"acc","accept_status","accuracy","average_response_time","avg_rt","background","bidi","canvas_backend","checkbox_status","clock_backend","color_backend","compensation","coordinates","correct","correct_block_activation","correct_block_exit","correct_instructions_1","correct_instructions_2","correct_keyboard_response","correct_response","count_block_activation","count_block_exit","count_block_info_QA","count_e_block_loop","count_e_block_sequence","count_end_of_experiment","count_experiment","count_experimental_loop","count_form_consent","count_info_forms","count_instructions_1","count_instructions_2","count_keyboard_response","count_listen_message","count_logger","count_p_block_loop","count_p_block_sequence","count_p_feedback","count_personal_details_form_1","count_personal_details_form_2","count_post_loop_blank","count_practice_loop","count_pre_e_block_message","count_pre_p_block_message","count_reset_feedback","count_stimulus_image","count_stimulus_sound","count_timeout_message","count_timeout_sound","count_trial_sequence","datetime","description","disable_garbage_collection","experiment_file","experiment_path","expyriment_opengl","font_bold","font_family","font_italic","font_size","font_underline","foreground","form_clicks","form_response","fullscreen","height","keyboard_backend","live_row","live_row_p_block_loop","live_row_practice_loop","logfile","mouse_backend","opensesame_codename","opensesame_version","osf_always_upload_data","osf_always_upload_experiment","osf_datanode_id","osf_id","practice","pygame_doublebuf","repeat_cycle","response","response_block_activation","response_block_exit","response_block_info_QA","response_instructions_1","response_instructions_2","response_keyboard_response","response_time","response_time_block_activation","response_time_block_exit","response_time_block_info_QA","response_time_instructions_1","response_time_instructions_2","response_time_keyboard_response","round_decimals","sampler_backend","sound_buf_size","sound_channels","sound_freq","sound_sample_size","start","stimulus","subject_age","subject_birth","subject_education","subject_gender","subject_handedness","subject_language_native","subject_language_other","subject_nr","subject_parity","subject_residence","time_block_activation","time_block_exit","time_block_info_QA","time_e_block_loop","time_e_block_sequence","time_end_of_experiment","time_experiment","time_experimental_loop","time_form_consent","time_info_forms","time_instructions_1","time_instructions_2","time_keyboard_response","time_listen_message","time_logger","time_p_block_loop","time_p_block_sequence","time_p_feedback","time_personal_details_form_1","time_personal_details_form_2","time_post_loop_blank","time_practice_loop","time_pre_e_block_message","time_pre_p_block_message","time_reset_feedback","time_stimulus_image","time_stimulus_sound","time_timeout_message","time_timeout_sound","time_trial_sequence","title","total_correct","total_response_time","total_responses","uniform_coordinates","width"
"100","yes","100","2945","2945","white","no","xpyriment","I have read and understood the information shown above","legacy","legacy","0","uniform","1","0","NA","undefined","undefined","1","f","0","0","NA","NA","NA","NA","0","0","0","0","0","0","0","0","0","0","0","NA","0","0","0","0","NA","0","0","0","0","0","0","0","Wed Jun 28 14:34:16 2017","Forced-choice identification task with a practice and an experimental phase","yes","NAP-FC_GER_AA_ver-1.osexp","/Users/aviadalbert/Documents/Academisch/UoC/Dissertation/Experiment/OpenSesame/NAP-FC/NAP-FC_GER_AA/GER_AA_ver-1","yes","no","sans","no","20","no","black","no","Next","yes","768","legacy","0","0","0","/Users/aviadalbert/Documents/Academisch/UoC/Dissertation/Experiment/OpenSesame/NAP-FC/NAP-FC_GER_AA/GER_AA_ver-1/subject-1.csv","xpyriment","Jazzy James","3.1.6","yes","yes","59504085b83f69022b47a751","595041f76c613b022ae3ecdb","yes","no","0","f","f","NA","NA","return","k","f","2945","12945","NA","NA","21581","10610","2945","2","legacy","1024","1","44100","-16","experiment","flal","21","dueseldorf","1","1","1","german","english,italian,greek","1","odd","duesseldorf","151684","NA","NA","NA","NA","NA","1630","NA","1630","1630","119202","140787","166340","164835","169286","164630","151681","NA","28475","100816","NA","151465","NA","151684","NA","166340","166340","NA","NA","164832","NAP perception","1","2945","1","yes","1024"
"100","yes","100","2140","2140","white","no","xpyriment","I have read and understood the information shown above","legacy","legacy","0","uniform","1","0","NA","undefined","undefined","1","j","0","0","NA","NA","NA","NA","0","0","0","0","0","0","1","1","1","0","0","NA","0","0","0","0","NA","0","0","1","1","1","1","1","Wed Jun 28 14:34:16 2017","Forced-choice identification task with a practice and an experimental phase","yes","NAP-FC_GER_AA_ver-1.osexp","/Users/aviadalbert/Documents/Academisch/UoC/Dissertation/Experiment/OpenSesame/NAP-FC/NAP-FC_GER_AA/GER_AA_ver-1","yes","no","sans","no","20","no","black","no","Next","yes","768","legacy","1","1","0","/Users/aviadalbert/Documents/Academisch/UoC/Dissertation/Experiment/OpenSesame/NAP-FC/NAP-FC_GER_AA/GER_AA_ver-1/subject-1.csv","xpyriment","Jazzy James","3.1.6","yes","yes","59504085b83f69022b47a751","595041f76c613b022ae3ecdb","yes","no","0","j","f","NA","NA","return","k","j","1335","12945","NA","NA","21581","10610","1335","2","legacy","1024","1","44100","-16","experiment","lepal","21","dueseldorf","1","1","1","german","english,italian,greek","1","odd","duesseldorf","151684","NA","NA","NA","NA","NA","1630","NA","1630","1630","119202","140787","171059","169553","172395","164630","151681","NA","28475","100816","NA","151465","NA","151684","NA","171059","171059","NA","NA","169549","NAP perception","2","4280","2","yes","1024"
"100","yes","100","2036.66666667","2036.66666667","white","no","xpyriment","I have read and understood the information shown above","legacy","legacy","0","uniform","1","0","NA","undefined","undefined","1","j","0","0","NA","NA","NA","NA","0","0","0","0","0","0","2","2","2","0","0","NA","0","0","0","0","NA","0","0","2","2","2","2","2","Wed Jun 28 14:34:16 2017","Forced-choice identification task with a practice and an experimental phase","yes","NAP-FC_GER_AA_ver-1.osexp","/Users/aviadalbert/Documents/Academisch/UoC/Dissertation/Experiment/OpenSesame/NAP-FC/NAP-FC_GER_AA/GER_AA_ver-1","yes","no","sans","no","20","no","black","no","Next","yes","768","legacy","2","2","0","/Users/aviadalbert/Documents/Academisch/UoC/Dissertation/Experiment/OpenSesame/NAP-FC/NAP-FC_GER_AA/GER_AA_ver-1/subject-1.csv","xpyriment","Jazzy James","3.1.6","yes","yes","59504085b83f69022b47a751","595041f76c613b022ae3ecdb","yes","no","0","j","f","NA","NA","return","k","j","1830","12945","NA","NA","21581","10610","1830","2","legacy","1024","1","44100","-16","experiment","emtal","21","dueseldorf","1","1","1","german","english,italian,greek","1","odd","duesseldorf","151684","NA","NA","NA","NA","NA","1630","NA","1630","1630","119202","140787","174179","172675","176010","164630","151681","NA","28475","100816","NA","151465","NA","151684","NA","174179","174179","NA","NA","172671","NAP perception","3","6110","3","yes","1024"
"100","yes","100","1962.5","1962.5","white","no","xpyriment","I have read and understood the information shown above","legacy","legacy","0","uniform","1","0","NA","undefined","undefined","1","f","0","0","NA","NA","NA","NA","0","0","0","0","0","0","3","3","3","0","0","NA","0","0","0","0","NA","0","0","3","3","3","3","3","Wed Jun 28 14:34:16 2017","Forced-choice identification task with a practice and an experimental phase","yes","NAP-FC_GER_AA_ver-1.osexp","/Users/aviadalbert/Documents/Academisch/UoC/Dissertation/Experiment/OpenSesame/NAP-FC/NAP-FC_GER_AA/GER_AA_ver-1","yes","no","sans","no","20","no","black","no","Next","yes","768","legacy","3","3","0","/Users/aviadalbert/Documents/Academisch/UoC/Dissertation/Experiment/OpenSesame/NAP-FC/NAP-FC_GER_AA/GER_AA_ver-1/subject-1.csv","xpyriment","Jazzy James","3.1.6","yes","yes","59504085b83f69022b47a751","595041f76c613b022ae3ecdb","yes","no","0","f","f","NA","NA","return","k","f","1740","12945","NA","NA","21581","10610","1740","2","legacy","1024","1","44100","-16","experiment","ʃpal","21","dueseldorf","1","1","1","german","english,italian,greek","1","odd","duesseldorf","151684","NA","NA","NA","NA","NA","1630","NA","1630","1630","119202","140787","177784","176279","179525","164630","151681","NA","28475","100816","NA","151465","NA","151684","NA","177784","177784","NA","NA","176275","NAP perception","4","7850","4","yes","1024"
"80","yes","80","2170","2170","white","no","xpyriment","I have read and understood the information shown above","legacy","legacy","0","uniform","0","0","NA","undefined","undefined","0","j","0","0","NA","NA","NA","NA","0","0","0","0","0","0","4","4","4","0","0","NA","0","0","0","0","NA","0","0","4","4","4","4","4","Wed Jun 28 14:34:16 2017","Forced-choice identification task with a practice and an experimental phase","yes","NAP-FC_GER_AA_ver-1.osexp","/Users/aviadalbert/Documents/Academisch/UoC/Dissertation/Experiment/OpenSesame/NAP-FC/NAP-FC_GER_AA/GER_AA_ver-1","yes","no","sans","no","20","no","black","no","Next","yes","768","legacy","4","4","0","/Users/aviadalbert/Documents/Academisch/UoC/Dissertation/Experiment/OpenSesame/NAP-FC/NAP-FC_GER_AA/GER_AA_ver-1/subject-1.csv","xpyriment","Jazzy James","3.1.6","yes","yes","59504085b83f69022b47a751","595041f76c613b022ae3ecdb","yes","no","0","None","f","NA","NA","return","k","None","3000","12945","NA","NA","21581","10610","3000","2","legacy","1024","1","44100","-16","experiment","nefal","21","dueseldorf","1","1","1","german","english,italian,greek","1","odd","duesseldorf","151684","NA","NA","NA","NA","NA","1630","NA","1630","1630","119202","140787","181297","179793","185300","164630","151681","NA","28475","100816","NA","151465","NA","151684","NA","181297","181297","184300","184297","179790","NAP perception","4","10850","5","yes","1024"
"83.3333333333","yes","83.3333333333","2041.83333333","2041.83333333","white","no","xpyriment","I have read and understood the information shown above","legacy","legacy","0","uniform","1","0","NA","undefined","undefined","1","f","0","0","NA","NA","NA","NA","0","0","0","0","0","0","5","5","5","0","0","NA","0","0","0","0","NA","0","0","5","5","5","5","5","Wed Jun 28 14:34:16 2017","Forced-choice identification task with a practice and an experimental phase","yes","NAP-FC_GER_AA_ver-1.osexp","/Users/aviadalbert/Documents/Academisch/UoC/Dissertation/Experiment/OpenSesame/NAP-FC/NAP-FC_GER_AA/GER_AA_ver-1","yes","no","sans","no","20","no","black","no","Next","yes","768","legacy","5","5","0","/Users/aviadalbert/Documents/Academisch/UoC/Dissertation/Experiment/OpenSesame/NAP-FC/NAP-FC_GER_AA/GER_AA_ver-1/subject-1.csv","xpyriment","Jazzy James","3.1.6","yes","yes","59504085b83f69022b47a751","595041f76c613b022ae3ecdb","yes","no","0","f","f","NA","NA","return","k","f","1401","12945","NA","NA","21581","10610","1401","2","legacy","1024","1","44100","-16","experiment","sfal","21","dueseldorf","1","1","1","german","english,italian,greek","1","odd","duesseldorf","151684","NA","NA","NA","NA","NA","1630","NA","1630","1630","119202","140787","187063","185560","188465","164630","151681","NA","28475","100816","NA","151465","NA","151684","NA","187063","187063","184300","184297","185555","NAP perception","5","12251","6","yes","1024"
"71.4285714286","yes","71.4285714286","1930.85714286","1930.85714286","white","no","xpyriment","I have read and understood the information shown above","legacy","legacy","0","uniform","0","0","NA","undefined","undefined","0","f","0","0","NA","NA","NA","NA","0","0","0","0","0","0","6","6","6","0","0","NA","0","0","0","0","NA","0","0","6","6","6","6","6","Wed Jun 28 14:34:16 2017","Forced-choice identification task with a practice and an experimental phase","yes","NAP-FC_GER_AA_ver-1.osexp","/Users/aviadalbert/Documents/Academisch/UoC/Dissertation/Experiment/OpenSesame/NAP-FC/NAP-FC_GER_AA/GER_AA_ver-1","yes","no","sans","no","20","no","black","no","Next","yes","768","legacy","6","6","0","/Users/aviadalbert/Documents/Academisch/UoC/Dissertation/Experiment/OpenSesame/NAP-FC/NAP-FC_GER_AA/GER_AA_ver-1/subject-1.csv","xpyriment","Jazzy James","3.1.6","yes","yes","59504085b83f69022b47a751","595041f76c613b022ae3ecdb","yes","no","0","j","f","NA","NA","return","k","j","1265","12945","NA","NA","21581","10610","1265","2","legacy","1024","1","44100","-16","experiment","zmal","21","dueseldorf","1","1","1","german","english,italian,greek","1","odd","duesseldorf","151684","NA","NA","NA","NA","NA","1630","NA","1630","1630","119202","140787","190233","188730","191499","164630","151681","NA","28475","100816","NA","151465","NA","151684","NA","190233","190233","184300","184297","188726","NAP perception","5","13516","7","yes","1024"
"75","yes","75","1807.625","1807.625","white","no","xpyriment","I have read and understood the information shown above","legacy","legacy","0","uniform","1","0","NA","undefined","undefined","1","j","0","0","NA","NA","NA","NA","0","0","0","0","0","0","7","7","7","0","0","NA","0","0","0","0","NA","0","0","7","7","7","7","7","Wed Jun 28 14:34:16 2017","Forced-choice identification task with a practice and an experimental phase","yes","NAP-FC_GER_AA_ver-1.osexp","/Users/aviadalbert/Documents/Academisch/UoC/Dissertation/Experiment/OpenSesame/NAP-FC/NAP-FC_GER_AA/GER_AA_ver-1","yes","no","sans","no","20","no","black","no","Next","yes","768","legacy","7","7","0","/Users/aviadalbert/Documents/Academisch/UoC/Dissertation/Experiment/OpenSesame/NAP-FC/NAP-FC_GER_AA/GER_AA_ver-1/subject-1.csv","xpyriment","Jazzy James","3.1.6","yes","yes","59504085b83f69022b47a751","595041f76c613b022ae3ecdb","yes","no","0","j","f","NA","NA","return","k","j","945","12945","NA","NA","21581","10610","945","2","legacy","1024","1","44100","-16","experiment","jeval","21","dueseldorf","1","1","1","german","english,italian,greek","1","odd","duesseldorf","151684","NA","NA","NA","NA","NA","1630","NA","1630","1630","119202","140787","193284","191781","194230","164630","151681","NA","28475","100816","NA","151465","NA","151684","NA","193284","193284","184300","184297","191777","NAP perception","6","14461","8","yes","1024"
"77.7777777778","yes","77.7777777778","1699.77777778","1699.77777778","white","no","xpyriment","I have read and understood the information shown above","legacy","legacy","0","uniform","1","0","NA","undefined","undefined","1","j","0","0","NA","NA","NA","NA","0","0","0","0","0","0","8","8","8","0","0","NA","0","0","0","0","NA","0","0","8","8","8","8","8","Wed Jun 28 14:34:16 2017","Forced-choice identification task with a practice and an experimental phase","yes","NAP-FC_GER_AA_ver-1.osexp","/Users/aviadalbert/Documents/Academisch/UoC/Dissertation/Experiment/OpenSesame/NAP-FC/NAP-FC_GER_AA/GER_AA_ver-1","yes","no","sans","no","20","no","black","no","Next","yes","768","legacy","8","8","0","/Users/aviadalbert/Documents/Academisch/UoC/Dissertation/Experiment/OpenSesame/NAP-FC/NAP-FC_GER_AA/GER_AA_ver-1/subject-1.csv","xpyriment","Jazzy James","3.1.6","yes","yes","59504085b83f69022b47a751","595041f76c613b022ae3ecdb","yes","no","0","j","f","NA","NA","return","k","j","837","12945","NA","NA","21581","10610","837","2","legacy","1024","1","44100","-16","experiment","enval","21","dueseldorf","1","1","1","german","english,italian,greek","1","odd","duesseldorf","151684","NA","NA","NA","NA","NA","1630","NA","1630","1630","119202","140787","196002","194500","196840","164630","151681","NA","28475","100816","NA","151465","NA","151684","NA","196002","196002","184300","184297","194496","NAP perception","7","15298","9","yes","1024"
"80","yes","80","1659.1","1659.1","white","no","xpyriment","I have read and understood the information shown above","legacy","legacy","0","uniform","1","0","NA","undefined","undefined","1","f","0","0","NA","NA","NA","NA","0","0","0","0","0","0","9","9","9","0","0","NA","0","0","0","0","NA","0","0","9","9","9","9","9","Wed Jun 28 14:34:16 2017","Forced-choice identification task with a practice and an experimental phase","yes","NAP-FC_GER_AA_ver-1.osexp","/Users/aviadalbert/Documents/Academisch/UoC/Dissertation/Experiment/OpenSesame/NAP-FC/NAP-FC_GER_AA/GER_AA_ver-1","yes","no","sans","no","20","no","black","no","Next","yes","768","legacy","9","9","0","/Users/aviadalbert/Documents/Academisch/UoC/Dissertation/Experiment/OpenSesame/NAP-FC/NAP-FC_GER_AA/GER_AA_ver-1/subject-1.csv","xpyriment","Jazzy James","3.1.6","yes","yes","59504085b83f69022b47a751","595041f76c613b022ae3ecdb","yes","no","0","f","f","NA","NA","return","k","f","1293","12945","NA","NA","21581","10610","1293","2","legacy","1024","1","44100","-16","experiment","vlal","21","dueseldorf","1","1","1","german","english,italian,greek","1","odd","duesseldorf","151684","NA","NA","NA","NA","NA","1630","NA","1630","1630","119202","140787","198620","197115","199914","164630","151681","NA","28475","100816","NA","151465","NA","151684","NA","198619","198620","184300","184297","197111","NAP perception","8","16591","10","yes","1024"
"100","yes","100","976","976","white","no","xpyriment","I have read and understood the information shown above","legacy","legacy","0","uniform","1","0","0","undefined","undefined","1","j","1","0","NA","0","0","0","0","0","0","0","0","0","10","10","10","0","0","0","0","0","1","0","0","0","1","10","10","10","10","10","Wed Jun 28 14:34:16 2017","Forced-choice identification task with a practice and an experimental phase","yes","NAP-FC_GER_AA_ver-1.osexp","/Users/aviadalbert/Documents/Academisch/UoC/Dissertation/Experiment/OpenSesame/NAP-FC/NAP-FC_GER_AA/GER_AA_ver-1","yes","no","sans","no","20","no","black","no","Next","yes","768","legacy","0","9","0","/Users/aviadalbert/Documents/Academisch/UoC/Dissertation/Experiment/OpenSesame/NAP-FC/NAP-FC_GER_AA/GER_AA_ver-1/subject-1.csv","xpyriment","Jazzy James","3.1.6","yes","yes","59504085b83f69022b47a751","595041f76c613b022ae3ecdb","no","no","0","j","f","space","NA","return","k","j","976","1462","11519","NA","21581","10610","976","2","legacy","1024","1","44100","-16","experiment","welal","21","dueseldorf","1","1","1","german","english,italian,greek","1","odd","duesseldorf","213470","201651","NA","214933","213467","NA","1630","213224","1630","1630","119202","140787","216627","215124","217604","164630","151681","201650","28475","100816","199973","151465","213470","151684","NA","216627","216627","184300","184297","215121","NAP perception","1","976","1","yes","1024"
"100","yes","100","982.5","982.5","white","no","xpyriment","I have read and understood the information shown above","legacy","legacy","0","uniform","1","0","0","undefined","undefined","1","j","1","0","NA","0","0","0","0","0","0","0","0","0","11","11","11","0","0","0","0","0","1","0","0","0","1","11","11","11","11","11","Wed Jun 28 14:34:16 2017","Forced-choice identification task with a practice and an experimental phase","yes","NAP-FC_GER_AA_ver-1.osexp","/Users/aviadalbert/Documents/Academisch/UoC/Dissertation/Experiment/OpenSesame/NAP-FC/NAP-FC_GER_AA/GER_AA_ver-1","yes","no","sans","no","20","no","black","no","Next","yes","768","legacy","1","9","0","/Users/aviadalbert/Documents/Academisch/UoC/Dissertation/Experiment/OpenSesame/NAP-FC/NAP-FC_GER_AA/GER_AA_ver-1/subject-1.csv","xpyriment","Jazzy James","3.1.6","yes","yes","59504085b83f69022b47a751","595041f76c613b022ae3ecdb","no","no","0","j","f","space","NA","return","k","j","989","1462","11519","NA","21581","10610","989","2","legacy","1024","1","44100","-16","experiment","velal","21","dueseldorf","1","1","1","german","english,italian,greek","1","odd","duesseldorf","213470","201651","NA","214933","213467","NA","1630","213224","1630","1630","119202","140787","219367","217863","220357","164630","151681","201650","28475","100816","199973","151465","213470","151684","NA","219367","219367","184300","184297","217859","NAP perception","2","1965","2","yes","1024"
"100","yes","100","1043","1043","white","no","xpyriment","I have read and understood the information shown above","legacy","legacy","0","uniform","1","0","0","undefined","undefined","1","j","1","0","NA","0","0","0","0","0","0","0","0","0","12","12","12","0","0","0","0","0","1","0","0","0","1","12","12","12","12","12","Wed Jun 28 14:34:16 2017","Forced-choice identification task with a practice and an experimental phase","yes","NAP-FC_GER_AA_ver-1.osexp","/Users/aviadalbert/Documents/Academisch/UoC/Dissertation/Experiment/OpenSesame/NAP-FC/NAP-FC_GER_AA/GER_AA_ver-1","yes","no","sans","no","20","no","black","no","Next","yes","768","legacy","2","9","0","/Users/aviadalbert/Documents/Academisch/UoC/Dissertation/Experiment/OpenSesame/NAP-FC/NAP-FC_GER_AA/GER_AA_ver-1/subject-1.csv","xpyriment","Jazzy James","3.1.6","yes","yes","59504085b83f69022b47a751","595041f76c613b022ae3ecdb","no","no","0","j","f","space","NA","return","k","j","1164","1462","11519","NA","21581","10610","1164","2","legacy","1024","1","44100","-16","experiment","evnal","21","dueseldorf","1","1","1","german","english,italian,greek","1","odd","duesseldorf","213470","201651","NA","214933","213467","NA","1630","213224","1630","1630","119202","140787","222129","220626","223295","164630","151681","201650","28475","100816","199973","151465","213470","151684","NA","222129","222129","184300","184297","220622","NAP perception","3","3129","3","yes","1024"
"75","yes","75","1182.75","1182.75","white","no","xpyriment","I have read and understood the information shown above","legacy","legacy","0","uniform","0","0","0","undefined","undefined","0","f","1","0","NA","0","0","0","0","0","0","0","0","0","13","13","13","0","0","0","0","0","1","0","0","0","1","13","13","13","13","13","Wed Jun 28 14:34:16 2017","Forced-choice identification task with a practice and an experimental phase","yes","NAP-FC_GER_AA_ver-1.osexp","/Users/aviadalbert/Documents/Academisch/UoC/Dissertation/Experiment/OpenSesame/NAP-FC/NAP-FC_GER_AA/GER_AA_ver-1","yes","no","sans","no","20","no","black","no","Next","yes","768","legacy","3","9","0","/Users/aviadalbert/Documents/Academisch/UoC/Dissertation/Experiment/OpenSesame/NAP-FC/NAP-FC_GER_AA/GER_AA_ver-1/subject-1.csv","xpyriment","Jazzy James","3.1.6","yes","yes","59504085b83f69022b47a751","595041f76c613b022ae3ecdb","no","no","0","j","f","space","NA","return","k","j","1602","1462","11519","NA","21581","10610","1602","2","legacy","1024","1","44100","-16","experiment","lkal","21","dueseldorf","1","1","1","german","english,italian,greek","1","odd","duesseldorf","213470","201651","NA","214933","213467","NA","1630","213224","1630","1630","119202","140787","225076","223573","226679","164630","151681","201650","28475","100816","199973","151465","213470","151684","NA","225076","225076","184300","184297","223569","NAP perception","3","4731","4","yes","1024"
"80","yes","80","1245.4","1245.4","white","no","xpyriment","I have read and understood the information shown above","legacy","legacy","0","uniform","1","0","0","undefined","undefined","1","j","1","0","NA","0","0","0","0","0","0","0","0","0","14","14","14","0","0","0","0","0","1","0","0","0","1","14","14","14","14","14","Wed Jun 28 14:34:16 2017","Forced-choice identification task with a practice and an experimental phase","yes","NAP-FC_GER_AA_ver-1.osexp","/Users/aviadalbert/Documents/Academisch/UoC/Dissertation/Experiment/OpenSesame/NAP-FC/NAP-FC_GER_AA/GER_AA_ver-1","yes","no","sans","no","20","no","black","no","Next","yes","768","legacy","4","9","0","/Users/aviadalbert/Documents/Academisch/UoC/Dissertation/Experiment/OpenSesame/NAP-FC/NAP-FC_GER_AA/GER_AA_ver-1/subject-1.csv","xpyriment","Jazzy James","3.1.6","yes","yes","59504085b83f69022b47a751","595041f76c613b022ae3ecdb","no","no","0","j","f","space","NA","return","k","j","1496","1462","11519","NA","21581","10610","1496","2","legacy","1024","1","44100","-16","experiment","lefal","21","dueseldorf","1","1","1","german","english,italian,greek","1","odd","duesseldorf","213470","201651","NA","214933","213467","NA","1630","213224","1630","1630","119202","140787","228455","226952","229953","164630","151681","201650","28475","100816","199973","151465","213470","151684","NA","228455","228455","184300","184297","226948","NAP perception","4","6227","5","yes","1024"
"66.6666666667","yes","66.6666666667","1386.16666667","1386.16666667","white","no","xpyriment","I have read and understood the information shown above","legacy","legacy","0","uniform","0","0","0","undefined","undefined","0","f","1","0","NA","0","0","0","0","0","0","0","0","0","15","15","15","0","0","0","0","0","1","0","0","0","1","15","15","15","15","15","Wed Jun 28 14:34:16 2017","Forced-choice identification task with a practice and an experimental phase","yes","NAP-FC_GER_AA_ver-1.osexp","/Users/aviadalbert/Documents/Academisch/UoC/Dissertation/Experiment/OpenSesame/NAP-FC/NAP-FC_GER_AA/GER_AA_ver-1","yes","no","sans","no","20","no","black","no","Next","yes","768","legacy","5","9","0","/Users/aviadalbert/Documents/Academisch/UoC/Dissertation/Experiment/OpenSesame/NAP-FC/NAP-FC_GER_AA/GER_AA_ver-1/subject-1.csv","xpyriment","Jazzy James","3.1.6","yes","yes","59504085b83f69022b47a751","595041f76c613b022ae3ecdb","no","no","0","j","f","space","NA","return","k","j","2090","1462","11519","NA","21581","10610","2090","2","legacy","1024","1","44100","-16","experiment","wnal","21","dueseldorf","1","1","1","german","english,italian,greek","1","odd","duesseldorf","213470","201651","NA","214933","213467","NA","1630","213224","1630","1630","119202","140787","231728","230221","233819","164630","151681","201650","28475","100816","199973","151465","213470","151684","NA","231728","231728","184300","184297","230216","NAP perception","4","8317","6","yes","1024"
"71.4285714286","yes","71.4285714286","1386.42857143","1386.42857143","white","no","xpyriment","I have read and understood the information shown above","legacy","legacy","0","uniform","1","0","0","undefined","undefined","1","f","1","0","NA","0","0","0","0","0","0","0","0","0","16","16","16","0","0","0","0","0","1","0","0","0","1","16","16","16","16","16","Wed Jun 28 14:34:16 2017","Forced-choice identification task with a practice and an experimental phase","yes","NAP-FC_GER_AA_ver-1.osexp","/Users/aviadalbert/Documents/Academisch/UoC/Dissertation/Experiment/OpenSesame/NAP-FC/NAP-FC_GER_AA/GER_AA_ver-1","yes","no","sans","no","20","no","black","no","Next","yes","768","legacy","6","9","0","/Users/aviadalbert/Documents/Academisch/UoC/Dissertation/Experiment/OpenSesame/NAP-FC/NAP-FC_GER_AA/GER_AA_ver-1/subject-1.csv","xpyriment","Jazzy James","3.1.6","yes","yes","59504085b83f69022b47a751","595041f76c613b022ae3ecdb","no","no","0","f","f","space","NA","return","k","f","1388","1462","11519","NA","21581","10610","1388","2","legacy","1024","1","44100","-16","experiment","spal","21","dueseldorf","1","1","1","german","english,italian,greek","1","odd","duesseldorf","213470","201651","NA","214933","213467","NA","1630","213224","1630","1630","119202","140787","235592","234085","236982","164630","151681","201650","28475","100816","199973","151465","213470","151684","NA","235592","235592","184300","184297","234081","NAP perception","5","9705","7","yes","1024"
"75","yes","75","1420.875","1420.875","white","no","xpyriment","I have read and understood the information shown above","legacy","legacy","0","uniform","1","0","0","undefined","undefined","1","j","1","0","NA","0","0","0","0","0","0","0","0","0","17","17","17","0","0","0","0","0","1","0","0","0","1","17","17","17","17","17","Wed Jun 28 14:34:16 2017","Forced-choice identification task with a practice and an experimental phase","yes","NAP-FC_GER_AA_ver-1.osexp","/Users/aviadalbert/Documents/Academisch/UoC/Dissertation/Experiment/OpenSesame/NAP-FC/NAP-FC_GER_AA/GER_AA_ver-1","yes","no","sans","no","20","no","black","no","Next","yes","768","legacy","7","9","0","/Users/aviadalbert/Documents/Academisch/UoC/Dissertation/Experiment/OpenSesame/NAP-FC/NAP-FC_GER_AA/GER_AA_ver-1/subject-1.csv","xpyriment","Jazzy James","3.1.6","yes","yes","59504085b83f69022b47a751","595041f76c613b022ae3ecdb","no","no","0","j","f","space","NA","return","k","j","1662","1462","11519","NA","21581","10610","1662","2","legacy","1024","1","44100","-16","experiment","wenal","21","dueseldorf","1","1","1","german","english,italian,greek","1","odd","duesseldorf","213470","201651","NA","214933","213467","NA","1630","213224","1630","1630","119202","140787","238762","237257","240425","164630","151681","201650","28475","100816","199973","151465","213470","151684","NA","238761","238762","184300","184297","237253","NAP perception","6","11367","8","yes","1024"
"77.7777777778","yes","77.7777777778","1462.55555556","1462.55555556","white","no","xpyriment","I have read and understood the information shown above","legacy","legacy","0","uniform","1","0","0","undefined","undefined","1","j","1","0","NA","0","0","0","0","0","0","0","0","0","18","18","18","0","0","0","0","0","1","0","0","0","1","18","18","18","18","18","Wed Jun 28 14:34:16 2017","Forced-choice identification task with a practice and an experimental phase","yes","NAP-FC_GER_AA_ver-1.osexp","/Users/aviadalbert/Documents/Academisch/UoC/Dissertation/Experiment/OpenSesame/NAP-FC/NAP-FC_GER_AA/GER_AA_ver-1","yes","no","sans","no","20","no","black","no","Next","yes","768","legacy","8","9","0","/Users/aviadalbert/Documents/Academisch/UoC/Dissertation/Experiment/OpenSesame/NAP-FC/NAP-FC_GER_AA/GER_AA_ver-1/subject-1.csv","xpyriment","Jazzy James","3.1.6","yes","yes","59504085b83f69022b47a751","595041f76c613b022ae3ecdb","no","no","0","j","f","space","NA","return","k","j","1796","1462","11519","NA","21581","10610","1796","2","legacy","1024","1","44100","-16","experiment","lemal","21","dueseldorf","1","1","1","german","english,italian,greek","1","odd","duesseldorf","213470","201651","NA","214933","213467","NA","1630","213224","1630","1630","119202","140787","242204","240701","244001","164630","151681","201650","28475","100816","199973","151465","213470","151684","NA","242204","242204","184300","184297","240697","NAP perception","7","13163","9","yes","1024"
"80","yes","80","1443.1","1443.1","white","no","xpyriment","I have read and understood the information shown above","legacy","legacy","0","uniform","1","0","0","undefined","undefined","1","j","1","0","NA","0","0","0","0","0","0","0","0","0","19","19","19","0","0","0","0","0","1","0","0","0","1","19","19","19","19","19","Wed Jun 28 14:34:16 2017","Forced-choice identification task with a practice and an experimental phase","yes","NAP-FC_GER_AA_ver-1.osexp","/Users/aviadalbert/Documents/Academisch/UoC/Dissertation/Experiment/OpenSesame/NAP-FC/NAP-FC_GER_AA/GER_AA_ver-1","yes","no","sans","no","20","no","black","no","Next","yes","768","legacy","9","9","0","/Users/aviadalbert/Documents/Academisch/UoC/Dissertation/Experiment/OpenSesame/NAP-FC/NAP-FC_GER_AA/GER_AA_ver-1/subject-1.csv","xpyriment","Jazzy James","3.1.6","yes","yes","59504085b83f69022b47a751","595041f76c613b022ae3ecdb","no","no","0","j","f","space","NA","return","k","j","1268","1462","11519","NA","21581","10610","1268","2","legacy","1024","1","44100","-16","experiment","enmal","21","dueseldorf","1","1","1","german","english,italian,greek","1","odd","duesseldorf","213470","201651","NA","214933","213467","NA","1630","213224","1630","1630","119202","140787","245788","244284","247057","164630","151681","201650","28475","100816","199973","151465","213470","151684","NA","245788","245788","184300","184297","244280","NAP perception","8","14431","10","yes","1024"
"81.8181818182","yes","81.8181818182","1473","1473","white","no","xpyriment","I have read and understood the information shown above","legacy","legacy","0","uniform","1","0","0","undefined","undefined","1","f","1","0","NA","0","0","0","0","0","0","0","0","0","20","20","20","0","0","0","0","0","1","0","0","0","1","20","20","20","20","20","Wed Jun 28 14:34:16 2017","Forced-choice identification task with a practice and an experimental phase","yes","NAP-FC_GER_AA_ver-1.osexp","/Users/aviadalbert/Documents/Academisch/UoC/Dissertation/Experiment/OpenSesame/NAP-FC/NAP-FC_GER_AA/GER_AA_ver-1","yes","no","sans","no","20","no","black","no","Next","yes","768","legacy","10","9","0","/Users/aviadalbert/Documents/Academisch/UoC/Dissertation/Experiment/OpenSesame/NAP-FC/NAP-FC_GER_AA/GER_AA_ver-1/subject-1.csv","xpyriment","Jazzy James","3.1.6","yes","yes","59504085b83f69022b47a751","595041f76c613b022ae3ecdb","no","no","0","f","f","space","NA","return","k","f","1772","1462","11519","NA","21581","10610","1772","2","legacy","1024","1","44100","-16","experiment","vlal","21","dueseldorf","1","1","1","german","english,italian,greek","1","odd","duesseldorf","213470","201651","NA","214933","213467","NA","1630","213224","1630","1630","119202","140787","248839","247333","250612","164630","151681","201650","28475","100816","199973","151465","213470","151684","NA","248839","248839","184300","184297","247329","NAP perception","9","16203","11","yes","1024"
"83.3333333333","yes","83.3333333333","1478.16666667","1478.16666667","white","no","xpyriment","I have read and understood the information shown above","legacy","legacy","0","uniform","1","0","0","undefined","undefined","1","j","1","0","NA","0","0","0","0","0","0","0","0","0","21","21","21","0","0","0","0","0","1","0","0","0","1","21","21","21","21","21","Wed Jun 28 14:34:16 2017","Forced-choice identification task with a practice and an experimental phase","yes","NAP-FC_GER_AA_ver-1.osexp","/Users/aviadalbert/Documents/Academisch/UoC/Dissertation/Experiment/OpenSesame/NAP-FC/NAP-FC_GER_AA/GER_AA_ver-1","yes","no","sans","no","20","no","black","no","Next","yes","768","legacy","11","9","0","/Users/aviadalbert/Documents/Academisch/UoC/Dissertation/Experiment/OpenSesame/NAP-FC/NAP-FC_GER_AA/GER_AA_ver-1/subject-1.csv","xpyriment","Jazzy James","3.1.6","yes","yes","59504085b83f69022b47a751","595041f76c613b022ae3ecdb","no","no","0","j","f","space","NA","return","k","j","1535","1462","11519","NA","21581","10610","1535","2","legacy","1024","1","44100","-16","experiment","zemal","21","dueseldorf","1","1","1","german","english,italian,greek","1","odd","duesseldorf","213470","201651","NA","214933","213467","NA","1630","213224","1630","1630","119202","140787","252381","250878","253917","164630","151681","201650","28475","100816","199973","151465","213470","151684","NA","252381","252381","184300","184297","250874","NAP perception","10","17738","12","yes","1024"
"84.6153846154","yes","84.6153846154","1490.76923077","1490.76923077","white","no","xpyriment","I have read and understood the information shown above","legacy","legacy","0","uniform","1","0","0","undefined","undefined","1","f","1","0","NA","0","0","0","0","0","0","0","0","0","22","22","22","0","0","0","0","0","1","0","0","0","1","22","22","22","22","22","Wed Jun 28 14:34:16 2017","Forced-choice identification task with a practice and an experimental phase","yes","NAP-FC_GER_AA_ver-1.osexp","/Users/aviadalbert/Documents/Academisch/UoC/Dissertation/Experiment/OpenSesame/NAP-FC/NAP-FC_GER_AA/GER_AA_ver-1","yes","no","sans","no","20","no","black","no","Next","yes","768","legacy","12","9","0","/Users/aviadalbert/Documents/Academisch/UoC/Dissertation/Experiment/OpenSesame/NAP-FC/NAP-FC_GER_AA/GER_AA_ver-1/subject-1.csv","xpyriment","Jazzy James","3.1.6","yes","yes","59504085b83f69022b47a751","595041f76c613b022ae3ecdb","no","no","0","f","f","space","NA","return","k","f","1642","1462","11519","NA","21581","10610","1642","2","legacy","1024","1","44100","-16","experiment","ʃfal","21","dueseldorf","1","1","1","german","english,italian,greek","1","odd","duesseldorf","213470","201651","NA","214933","213467","NA","1630","213224","1630","1630","119202","140787","255690","254185","257333","164630","151681","201650","28475","100816","199973","151465","213470","151684","NA","255690","255690","184300","184297","254181","NAP perception","11","19380","13","yes","1024"
"85.7142857143","yes","85.7142857143","1464.14285714","1464.14285714","white","no","xpyriment","I have read and understood the information shown above","legacy","legacy","0","uniform","1","0","0","undefined","undefined","1","f","1","0","NA","0","0","0","0","0","0","0","0","0","23","23","23","0","0","0","0","0","1","0","0","0","1","23","23","23","23","23","Wed Jun 28 14:34:16 2017","Forced-choice identification task with a practice and an experimental phase","yes","NAP-FC_GER_AA_ver-1.osexp","/Users/aviadalbert/Documents/Academisch/UoC/Dissertation/Experiment/OpenSesame/NAP-FC/NAP-FC_GER_AA/GER_AA_ver-1","yes","no","sans","no","20","no","black","no","Next","yes","768","legacy","13","9","0","/Users/aviadalbert/Documents/Academisch/UoC/Dissertation/Experiment/OpenSesame/NAP-FC/NAP-FC_GER_AA/GER_AA_ver-1/subject-1.csv","xpyriment","Jazzy James","3.1.6","yes","yes","59504085b83f69022b47a751","595041f76c613b022ae3ecdb","no","no","0","f","f","space","NA","return","k","f","1118","1462","11519","NA","21581","10610","1118","2","legacy","1024","1","44100","-16","experiment","ʃmal","21","dueseldorf","1","1","1","german","english,italian,greek","1","odd","duesseldorf","213470","201651","NA","214933","213467","NA","1630","213224","1630","1630","119202","140787","259126","257620","260245","164630","151681","201650","28475","100816","199973","151465","213470","151684","NA","259126","259126","184300","184297","257616","NAP perception","12","20498","14","yes","1024"
"86.6666666667","yes","86.6666666667","1531.2","1531.2","white","no","xpyriment","I have read and understood the information shown above","legacy","legacy","0","uniform","1","0","0","undefined","undefined","1","f","1","0","NA","0","0","0","0","0","0","0","0","0","24","24","24","0","0","0","0","0","1","0","0","0","1","24","24","24","24","24","Wed Jun 28 14:34:16 2017","Forced-choice identification task with a practice and an experimental phase","yes","NAP-FC_GER_AA_ver-1.osexp","/Users/aviadalbert/Documents/Academisch/UoC/Dissertation/Experiment/OpenSesame/NAP-FC/NAP-FC_GER_AA/GER_AA_ver-1","yes","no","sans","no","20","no","black","no","Next","yes","768","legacy","14","9","0","/Users/aviadalbert/Documents/Academisch/UoC/Dissertation/Experiment/OpenSesame/NAP-FC/NAP-FC_GER_AA/GER_AA_ver-1/subject-1.csv","xpyriment","Jazzy James","3.1.6","yes","yes","59504085b83f69022b47a751","595041f76c613b022ae3ecdb","no","no","0","f","f","space","NA","return","k","f","2470","1462","11519","NA","21581","10610","2470","2","legacy","1024","1","44100","-16","experiment","ftal","21","dueseldorf","1","1","1","german","english,italian,greek","1","odd","duesseldorf","213470","201651","NA","214933","213467","NA","1630","213224","1630","1630","119202","140787","262032","260528","264503","164630","151681","201650","28475","100816","199973","151465","213470","151684","NA","262031","262032","184300","184297","260524","NAP perception","13","22968","15","yes","1024"
"87.5","yes","87.5","1551.875","1551.875","white","no","xpyriment","I have read and understood the information shown above","legacy","legacy","0","uniform","1","0","0","undefined","undefined","1","f","1","0","NA","0","0","0","0","0","0","0","0","0","25","25","25","0","0","0","0","0","1","0","0","0","1","25","25","25","25","25","Wed Jun 28 14:34:16 2017","Forced-choice identification task with a practice and an experimental phase","yes","NAP-FC_GER_AA_ver-1.osexp","/Users/aviadalbert/Documents/Academisch/UoC/Dissertation/Experiment/OpenSesame/NAP-FC/NAP-FC_GER_AA/GER_AA_ver-1","yes","no","sans","no","20","no","black","no","Next","yes","768","legacy","15","9","0","/Users/aviadalbert/Documents/Academisch/UoC/Dissertation/Experiment/OpenSesame/NAP-FC/NAP-FC_GER_AA/GER_AA_ver-1/subject-1.csv","xpyriment","Jazzy James","3.1.6","yes","yes","59504085b83f69022b47a751","595041f76c613b022ae3ecdb","no","no","0","f","f","space","NA","return","k","f","1862","1462","11519","NA","21581","10610","1862","2","legacy","1024","1","44100","-16","experiment","mtal","21","dueseldorf","1","1","1","german","english,italian,greek","1","odd","duesseldorf","213470","201651","NA","214933","213467","NA","1630","213224","1630","1630","119202","140787","266278","264773","268141","164630","151681","201650","28475","100816","199973","151465","213470","151684","NA","266278","266278","184300","184297","264769","NAP perception","14","24830","16","yes","1024"
"88.2352941176","yes","88.2352941176","1569.76470588","1569.76470588","white","no","xpyriment","I have read and understood the information shown above","legacy","legacy","0","uniform","1","0","0","undefined","undefined","1","f","1","0","NA","0","0","0","0","0","0","0","0","0","26","26","26","0","0","0","0","0","1","0","0","0","1","26","26","26","26","26","Wed Jun 28 14:34:16 2017","Forced-choice identification task with a practice and an experimental phase","yes","NAP-FC_GER_AA_ver-1.osexp","/Users/aviadalbert/Documents/Academisch/UoC/Dissertation/Experiment/OpenSesame/NAP-FC/NAP-FC_GER_AA/GER_AA_ver-1","yes","no","sans","no","20","no","black","no","Next","yes","768","legacy","16","9","0","/Users/aviadalbert/Documents/Academisch/UoC/Dissertation/Experiment/OpenSesame/NAP-FC/NAP-FC_GER_AA/GER_AA_ver-1/subject-1.csv","xpyriment","Jazzy James","3.1.6","yes","yes","59504085b83f69022b47a751","595041f76c613b022ae3ecdb","no","no","0","f","f","space","NA","return","k","f","1856","1462","11519","NA","21581","10610","1856","2","legacy","1024","1","44100","-16","experiment","sfal","21","dueseldorf","1","1","1","german","english,italian,greek","1","odd","duesseldorf","213470","201651","NA","214933","213467","NA","1630","213224","1630","1630","119202","140787","269920","268414","271777","164630","151681","201650","28475","100816","199973","151465","213470","151684","NA","269919","269919","184300","184297","268410","NAP perception","15","26686","17","yes","1024"
"83.3333333333","yes","83.3333333333","1550.72222222","1550.72222222","white","no","xpyriment","I have read and understood the information shown above","legacy","legacy","0","uniform","0","0","0","undefined","undefined","0","f","1","0","NA","0","0","0","0","0","0","0","0","0","27","27","27","0","0","0","0","0","1","0","0","0","1","27","27","27","27","27","Wed Jun 28 14:34:16 2017","Forced-choice identification task with a practice and an experimental phase","yes","NAP-FC_GER_AA_ver-1.osexp","/Users/aviadalbert/Documents/Academisch/UoC/Dissertation/Experiment/OpenSesame/NAP-FC/NAP-FC_GER_AA/GER_AA_ver-1","yes","no","sans","no","20","no","black","no","Next","yes","768","legacy","17","9","0","/Users/aviadalbert/Documents/Academisch/UoC/Dissertation/Experiment/OpenSesame/NAP-FC/NAP-FC_GER_AA/GER_AA_ver-1/subject-1.csv","xpyriment","Jazzy James","3.1.6","yes","yes","59504085b83f69022b47a751","595041f76c613b022ae3ecdb","no","no","0","j","f","space","NA","return","k","j","1227","1462","11519","NA","21581","10610","1227","2","legacy","1024","1","44100","-16","experiment","jpal","21","dueseldorf","1","1","1","german","english,italian,greek","1","odd","duesseldorf","213470","201651","NA","214933","213467","NA","1630","213224","1630","1630","119202","140787","273551","272044","274779","164630","151681","201650","28475","100816","199973","151465","213470","151684","NA","273551","273551","184300","184297","272039","NAP perception","15","27913","18","yes","1024"
"84.2105263158","yes","84.2105263158","1533.10526316","1533.10526316","white","no","xpyriment","I have read and understood the information shown above","legacy","legacy","0","uniform","1","0","0","undefined","undefined","1","j","1","0","NA","0","0","0","0","0","0","0","0","0","28","28","28","0","0","0","0","0","1","0","0","0","1","28","28","28","28","28","Wed Jun 28 14:34:16 2017","Forced-choice identification task with a practice and an experimental phase","yes","NAP-FC_GER_AA_ver-1.osexp","/Users/aviadalbert/Documents/Academisch/UoC/Dissertation/Experiment/OpenSesame/NAP-FC/NAP-FC_GER_AA/GER_AA_ver-1","yes","no","sans","no","20","no","black","no","Next","yes","768","legacy","18","9","0","/Users/aviadalbert/Documents/Academisch/UoC/Dissertation/Experiment/OpenSesame/NAP-FC/NAP-FC_GER_AA/GER_AA_ver-1/subject-1.csv","xpyriment","Jazzy James","3.1.6","yes","yes","59504085b83f69022b47a751","595041f76c613b022ae3ecdb","no","no","0","j","f","space","NA","return","k","j","1216","1462","11519","NA","21581","10610","1216","2","legacy","1024","1","44100","-16","experiment","fesal","21","dueseldorf","1","1","1","german","english,italian,greek","1","odd","duesseldorf","213470","201651","NA","214933","213467","NA","1630","213224","1630","1630","119202","140787","276553","275049","277770","164630","151681","201650","28475","100816","199973","151465","213470","151684","NA","276553","276553","184300","184297","275045","NAP perception","16","29129","19","yes","1024"
"85","yes","85","1514.75","1514.75","white","no","xpyriment","I have read and understood the information shown above","legacy","legacy","0","uniform","1","0","0","undefined","undefined","1","j","1","0","NA","0","0","0","0","0","0","0","0","0","29","29","29","0","0","0","0","0","1","0","0","0","1","29","29","29","29","29","Wed Jun 28 14:34:16 2017","Forced-choice identification task with a practice and an experimental phase","yes","NAP-FC_GER_AA_ver-1.osexp","/Users/aviadalbert/Documents/Academisch/UoC/Dissertation/Experiment/OpenSesame/NAP-FC/NAP-FC_GER_AA/GER_AA_ver-1","yes","no","sans","no","20","no","black","no","Next","yes","768","legacy","19","9","0","/Users/aviadalbert/Documents/Academisch/UoC/Dissertation/Experiment/OpenSesame/NAP-FC/NAP-FC_GER_AA/GER_AA_ver-1/subject-1.csv","xpyriment","Jazzy James","3.1.6","yes","yes","59504085b83f69022b47a751","595041f76c613b022ae3ecdb","no","no","0","j","f","space","NA","return","k","j","1166","1462","11519","NA","21581","10610","1166","2","legacy","1024","1","44100","-16","experiment","enfal","21","dueseldorf","1","1","1","german","english,italian,greek","1","odd","duesseldorf","213470","201651","NA","214933","213467","NA","1630","213224","1630","1630","119202","140787","279526","278022","280693","164630","151681","201650","28475","100816","199973","151465","213470","151684","NA","279526","279526","184300","184297","278018","NAP perception","17","30295","20","yes","1024"
"80.9523809524","yes","80.9523809524","1486.33333333","1486.33333333","white","no","xpyriment","I have read and understood the information shown above","legacy","legacy","0","uniform","0","0","0","undefined","undefined","0","f","1","0","NA","0","0","0","0","0","0","0","0","0","30","30","30","0","0","0","0","0","1","0","0","0","1","30","30","30","30","30","Wed Jun 28 14:34:16 2017","Forced-choice identification task with a practice and an experimental phase","yes","NAP-FC_GER_AA_ver-1.osexp","/Users/aviadalbert/Documents/Academisch/UoC/Dissertation/Experiment/OpenSesame/NAP-FC/NAP-FC_GER_AA/GER_AA_ver-1","yes","no","sans","no","20","no","black","no","Next","yes","768","legacy","20","9","0","/Users/aviadalbert/Documents/Academisch/UoC/Dissertation/Experiment/OpenSesame/NAP-FC/NAP-FC_GER_AA/GER_AA_ver-1/subject-1.csv","xpyriment","Jazzy James","3.1.6","yes","yes","59504085b83f69022b47a751","595041f76c613b022ae3ecdb","no","no","0","j","f","space","NA","return","k","j","918","1462","11519","NA","21581","10610","918","2","legacy","1024","1","44100","-16","experiment","jval","21","dueseldorf","1","1","1","german","english,italian,greek","1","odd","duesseldorf","213470","201651","NA","214933","213467","NA","1630","213224","1630","1630","119202","140787","282479","280975","283398","164630","151681","201650","28475","100816","199973","151465","213470","151684","NA","282478","282479","184300","184297","280971","NAP perception","17","31213","21","yes","1024"
"81.8181818182","yes","81.8181818182","1533","1533","white","no","xpyriment","I have read and understood the information shown above","legacy","legacy","0","uniform","1","0","0","undefined","undefined","1","f","1","0","NA","0","0","0","0","0","0","0","0","0","31","31","31","0","0","0","0","0","1","0","0","0","1","31","31","31","31","31","Wed Jun 28 14:34:16 2017","Forced-choice identification task with a practice and an experimental phase","yes","NAP-FC_GER_AA_ver-1.osexp","/Users/aviadalbert/Documents/Academisch/UoC/Dissertation/Experiment/OpenSesame/NAP-FC/NAP-FC_GER_AA/GER_AA_ver-1","yes","no","sans","no","20","no","black","no","Next","yes","768","legacy","21","9","0","/Users/aviadalbert/Documents/Academisch/UoC/Dissertation/Experiment/OpenSesame/NAP-FC/NAP-FC_GER_AA/GER_AA_ver-1/subject-1.csv","xpyriment","Jazzy James","3.1.6","yes","yes","59504085b83f69022b47a751","595041f76c613b022ae3ecdb","no","no","0","f","f","space","NA","return","k","f","2513","1462","11519","NA","21581","10610","2513","2","legacy","1024","1","44100","-16","experiment","msal","21","dueseldorf","1","1","1","german","english,italian,greek","1","odd","duesseldorf","213470","201651","NA","214933","213467","NA","1630","213224","1630","1630","119202","140787","285168","283664","287682","164630","151681","201650","28475","100816","199973","151465","213470","151684","NA","285168","285168","184300","184297","283660","NAP perception","18","33726","22","yes","1024"
"82.6086956522","yes","82.6086956522","1515.47826087","1515.47826087","white","no","xpyriment","I have read and understood the information shown above","legacy","legacy","0","uniform","1","0","0","undefined","undefined","1","f","1","0","NA","0","0","0","0","0","0","0","0","0","32","32","32","0","0","0","0","0","1","0","0","0","1","32","32","32","32","32","Wed Jun 28 14:34:16 2017","Forced-choice identification task with a practice and an experimental phase","yes","NAP-FC_GER_AA_ver-1.osexp","/Users/aviadalbert/Documents/Academisch/UoC/Dissertation/Experiment/OpenSesame/NAP-FC/NAP-FC_GER_AA/GER_AA_ver-1","yes","no","sans","no","20","no","black","no","Next","yes","768","legacy","22","9","0","/Users/aviadalbert/Documents/Academisch/UoC/Dissertation/Experiment/OpenSesame/NAP-FC/NAP-FC_GER_AA/GER_AA_ver-1/subject-1.csv","xpyriment","Jazzy James","3.1.6","yes","yes","59504085b83f69022b47a751","595041f76c613b022ae3ecdb","no","no","0","f","f","space","NA","return","k","f","1130","1462","11519","NA","21581","10610","1130","2","legacy","1024","1","44100","-16","experiment","ʃpal","21","dueseldorf","1","1","1","german","english,italian,greek","1","odd","duesseldorf","213470","201651","NA","214933","213467","NA","1630","213224","1630","1630","119202","140787","289456","287953","290588","164630","151681","201650","28475","100816","199973","151465","213470","151684","NA","289456","289456","184300","184297","287949","NAP perception","19","34856","23","yes","1024"
"83.3333333333","yes","83.3333333333","1524.83333333","1524.83333333","white","no","xpyriment","I have read and understood the information shown above","legacy","legacy","0","uniform","1","0","0","undefined","undefined","1","j","1","0","NA","0","0","0","0","0","0","0","0","0","33","33","33","0","0","0","0","0","1","0","0","0","1","33","33","33","33","33","Wed Jun 28 14:34:16 2017","Forced-choice identification task with a practice and an experimental phase","yes","NAP-FC_GER_AA_ver-1.osexp","/Users/aviadalbert/Documents/Academisch/UoC/Dissertation/Experiment/OpenSesame/NAP-FC/NAP-FC_GER_AA/GER_AA_ver-1","yes","no","sans","no","20","no","black","no","Next","yes","768","legacy","23","9","0","/Users/aviadalbert/Documents/Academisch/UoC/Dissertation/Experiment/OpenSesame/NAP-FC/NAP-FC_GER_AA/GER_AA_ver-1/subject-1.csv","xpyriment","Jazzy James","3.1.6","yes","yes","59504085b83f69022b47a751","595041f76c613b022ae3ecdb","no","no","0","j","f","space","NA","return","k","j","1740","1462","11519","NA","21581","10610","1740","2","legacy","1024","1","44100","-16","experiment","elkal","21","dueseldorf","1","1","1","german","english,italian,greek","1","odd","duesseldorf","213470","201651","NA","214933","213467","NA","1630","213224","1630","1630","119202","140787","292366","290860","294107","164630","151681","201650","28475","100816","199973","151465","213470","151684","NA","292366","292366","184300","184297","290856","NAP perception","20","36596","24","yes","1024"
"80","yes","80","1507.68","1507.68","white","no","xpyriment","I have read and understood the information shown above","legacy","legacy","0","uniform","0","0","0","undefined","undefined","0","f","1","0","NA","0","0","0","0","0","0","0","0","0","34","34","34","0","0","0","0","0","1","0","0","0","1","34","34","34","34","34","Wed Jun 28 14:34:16 2017","Forced-choice identification task with a practice and an experimental phase","yes","NAP-FC_GER_AA_ver-1.osexp","/Users/aviadalbert/Documents/Academisch/UoC/Dissertation/Experiment/OpenSesame/NAP-FC/NAP-FC_GER_AA/GER_AA_ver-1","yes","no","sans","no","20","no","black","no","Next","yes","768","legacy","24","9","0","/Users/aviadalbert/Documents/Academisch/UoC/Dissertation/Experiment/OpenSesame/NAP-FC/NAP-FC_GER_AA/GER_AA_ver-1/subject-1.csv","xpyriment","Jazzy James","3.1.6","yes","yes","59504085b83f69022b47a751","595041f76c613b022ae3ecdb","no","no","0","j","f","space","NA","return","k","j","1096","1462","11519","NA","21581","10610","1096","2","legacy","1024","1","44100","-16","experiment","lpal","21","dueseldorf","1","1","1","german","english,italian,greek","1","odd","duesseldorf","213470","201651","NA","214933","213467","NA","1630","213224","1630","1630","119202","140787","295873","294367","296970","164630","151681","201650","28475","100816","199973","151465","213470","151684","NA","295873","295873","184300","184297","294363","NAP perception","20","37692","25","yes","1024"
"80.7692307692","yes","80.7692307692","1532.19230769","1532.19230769","white","no","xpyriment","I have read and understood the information shown above","legacy","legacy","0","uniform","1","0","0","undefined","undefined","1","j","1","0","NA","0","0","0","0","0","0","0","0","0","35","35","35","0","0","0","0","0","1","0","0","0","1","35","35","35","35","35","Wed Jun 28 14:34:16 2017","Forced-choice identification task with a practice and an experimental phase","yes","NAP-FC_GER_AA_ver-1.osexp","/Users/aviadalbert/Documents/Academisch/UoC/Dissertation/Experiment/OpenSesame/NAP-FC/NAP-FC_GER_AA/GER_AA_ver-1","yes","no","sans","no","20","no","black","no","Next","yes","768","legacy","25","9","0","/Users/aviadalbert/Documents/Academisch/UoC/Dissertation/Experiment/OpenSesame/NAP-FC/NAP-FC_GER_AA/GER_AA_ver-1/subject-1.csv","xpyriment","Jazzy James","3.1.6","yes","yes","59504085b83f69022b47a751","595041f76c613b022ae3ecdb","no","no","0","j","f","space","NA","return","k","j","2145","1462","11519","NA","21581","10610","2145","2","legacy","1024","1","44100","-16","experiment","esfal","21","dueseldorf","1","1","1","german","english,italian,greek","1","odd","duesseldorf","213470","201651","NA","214933","213467","NA","1630","213224","1630","1630","119202","140787","298743","297240","300889","164630","151681","201650","28475","100816","199973","151465","213470","151684","NA","298743","298743","184300","184297","297236","NAP perception","21","39837","26","yes","1024"
"81.4814814815","yes","81.4814814815","1567.55555556","1567.55555556","white","no","xpyriment","I have read and understood the information shown above","legacy","legacy","0","uniform","1","0","0","undefined","undefined","1","f","1","0","NA","0","0","0","0","0","0","0","0","0","36","36","36","0","0","0","0","0","1","0","0","0","1","36","36","36","36","36","Wed Jun 28 14:34:16 2017","Forced-choice identification task with a practice and an experimental phase","yes","NAP-FC_GER_AA_ver-1.osexp","/Users/aviadalbert/Documents/Academisch/UoC/Dissertation/Experiment/OpenSesame/NAP-FC/NAP-FC_GER_AA/GER_AA_ver-1","yes","no","sans","no","20","no","black","no","Next","yes","768","legacy","26","9","0","/Users/aviadalbert/Documents/Academisch/UoC/Dissertation/Experiment/OpenSesame/NAP-FC/NAP-FC_GER_AA/GER_AA_ver-1/subject-1.csv","xpyriment","Jazzy James","3.1.6","yes","yes","59504085b83f69022b47a751","595041f76c613b022ae3ecdb","no","no","0","f","f","space","NA","return","k","f","2487","1462","11519","NA","21581","10610","2487","2","legacy","1024","1","44100","-16","experiment","jmal","21","dueseldorf","1","1","1","german","english,italian,greek","1","odd","duesseldorf","213470","201651","NA","214933","213467","NA","1630","213224","1630","1630","119202","140787","302654","301151","305143","164630","151681","201650","28475","100816","199973","151465","213470","151684","NA","302654","302654","184300","184297","301147","NAP perception","22","42324","27","yes","1024"
"82.1428571429","yes","82.1428571429","1545.32142857","1545.32142857","white","no","xpyriment","I have read and understood the information shown above","legacy","legacy","0","uniform","1","0","0","undefined","undefined","1","j","1","0","NA","0","0","0","0","0","0","0","0","0","37","37","37","0","0","0","0","0","1","0","0","0","1","37","37","37","37","37","Wed Jun 28 14:34:16 2017","Forced-choice identification task with a practice and an experimental phase","yes","NAP-FC_GER_AA_ver-1.osexp","/Users/aviadalbert/Documents/Academisch/UoC/Dissertation/Experiment/OpenSesame/NAP-FC/NAP-FC_GER_AA/GER_AA_ver-1","yes","no","sans","no","20","no","black","no","Next","yes","768","legacy","27","9","0","/Users/aviadalbert/Documents/Academisch/UoC/Dissertation/Experiment/OpenSesame/NAP-FC/NAP-FC_GER_AA/GER_AA_ver-1/subject-1.csv","xpyriment","Jazzy James","3.1.6","yes","yes","59504085b83f69022b47a751","595041f76c613b022ae3ecdb","no","no","0","j","f","space","NA","return","k","j","945","1462","11519","NA","21581","10610","945","2","legacy","1024","1","44100","-16","experiment","lepal","21","dueseldorf","1","1","1","german","english,italian,greek","1","odd","duesseldorf","213470","201651","NA","214933","213467","NA","1630","213224","1630","1630","119202","140787","306913","305407","307859","164630","151681","201650","28475","100816","199973","151465","213470","151684","NA","306913","306913","184300","184297","305403","NAP perception","23","43269","28","yes","1024"
"82.7586206897","yes","82.7586206897","1545.13793103","1545.13793103","white","no","xpyriment","I have read and understood the information shown above","legacy","legacy","0","uniform","1","0","0","undefined","undefined","1","f","1","0","NA","0","0","0","0","0","0","0","0","0","38","38","38","0","0","0","0","0","1","0","0","0","1","38","38","38","38","38","Wed Jun 28 14:34:16 2017","Forced-choice identification task with a practice and an experimental phase","yes","NAP-FC_GER_AA_ver-1.osexp","/Users/aviadalbert/Documents/Academisch/UoC/Dissertation/Experiment/OpenSesame/NAP-FC/NAP-FC_GER_AA/GER_AA_ver-1","yes","no","sans","no","20","no","black","no","Next","yes","768","legacy","28","9","0","/Users/aviadalbert/Documents/Academisch/UoC/Dissertation/Experiment/OpenSesame/NAP-FC/NAP-FC_GER_AA/GER_AA_ver-1/subject-1.csv","xpyriment","Jazzy James","3.1.6","yes","yes","59504085b83f69022b47a751","595041f76c613b022ae3ecdb","no","no","0","f","f","space","NA","return","k","f","1540","1462","11519","NA","21581","10610","1540","2","legacy","1024","1","44100","-16","experiment","vnal","21","dueseldorf","1","1","1","german","english,italian,greek","1","odd","duesseldorf","213470","201651","NA","214933","213467","NA","1630","213224","1630","1630","119202","140787","309638","308135","311180","164630","151681","201650","28475","100816","199973","151465","213470","151684","NA","309638","309638","184300","184297","308131","NAP perception","24","44809","29","yes","1024"
"80","yes","80","1529.53333333","1529.53333333","white","no","xpyriment","I have read and understood the information shown above","legacy","legacy","0","uniform","0","0","0","undefined","undefined","0","f","1","0","NA","0","0","0","0","0","0","0","0","0","39","39","39","0","0","0","0","0","1","0","0","0","1","39","39","39","39","39","Wed Jun 28 14:34:16 2017","Forced-choice identification task with a practice and an experimental phase","yes","NAP-FC_GER_AA_ver-1.osexp","/Users/aviadalbert/Documents/Academisch/UoC/Dissertation/Experiment/OpenSesame/NAP-FC/NAP-FC_GER_AA/GER_AA_ver-1","yes","no","sans","no","20","no","black","no","Next","yes","768","legacy","29","9","0","/Users/aviadalbert/Documents/Academisch/UoC/Dissertation/Experiment/OpenSesame/NAP-FC/NAP-FC_GER_AA/GER_AA_ver-1/subject-1.csv","xpyriment","Jazzy James","3.1.6","yes","yes","59504085b83f69022b47a751","595041f76c613b022ae3ecdb","no","no","0","j","f","space","NA","return","k","j","1077","1462","11519","NA","21581","10610","1077","2","legacy","1024","1","44100","-16","experiment","wlal","21","dueseldorf","1","1","1","german","english,italian,greek","1","odd","duesseldorf","213470","201651","NA","214933","213467","NA","1630","213224","1630","1630","119202","140787","312962","311456","314040","164630","151681","201650","28475","100816","199973","151465","213470","151684","NA","312962","312962","184300","184297","311451","NAP perception","24","45886","30","yes","1024"
"77.4193548387","yes","77.4193548387","1511.09677419","1511.09677419","white","no","xpyriment","I have read and understood the information shown above","legacy","legacy","0","uniform","0","0","0","undefined","undefined","0","f","1","0","NA","0","0","0","0","0","0","0","0","0","40","40","40","0","0","0","0","0","1","0","0","0","1","40","40","40","40","40","Wed Jun 28 14:34:16 2017","Forced-choice identification task with a practice and an experimental phase","yes","NAP-FC_GER_AA_ver-1.osexp","/Users/aviadalbert/Documents/Academisch/UoC/Dissertation/Experiment/OpenSesame/NAP-FC/NAP-FC_GER_AA/GER_AA_ver-1","yes","no","sans","no","20","no","black","no","Next","yes","768","legacy","30","9","0","/Users/aviadalbert/Documents/Academisch/UoC/Dissertation/Experiment/OpenSesame/NAP-FC/NAP-FC_GER_AA/GER_AA_ver-1/subject-1.csv","xpyriment","Jazzy James","3.1.6","yes","yes","59504085b83f69022b47a751","595041f76c613b022ae3ecdb","no","no","0","j","f","space","NA","return","k","j","958","1462","11519","NA","21581","10610","958","2","legacy","1024","1","44100","-16","experiment","wsal","21","dueseldorf","1","1","1","german","english,italian,greek","1","odd","duesseldorf","213470","201651","NA","214933","213467","NA","1630","213224","1630","1630","119202","140787","315801","314297","316760","164630","151681","201650","28475","100816","199973","151465","213470","151684","NA","315800","315801","184300","184297","314293","NAP perception","24","46844","31","yes","1024"
"78.125","yes","78.125","1503.84375","1503.84375","white","no","xpyriment","I have read and understood the information shown above","legacy","legacy","0","uniform","1","0","0","undefined","undefined","1","f","1","0","NA","0","0","0","0","0","0","0","0","0","41","41","41","0","0","0","0","0","1","0","0","0","1","41","41","41","41","41","Wed Jun 28 14:34:16 2017","Forced-choice identification task with a practice and an experimental phase","yes","NAP-FC_GER_AA_ver-1.osexp","/Users/aviadalbert/Documents/Academisch/UoC/Dissertation/Experiment/OpenSesame/NAP-FC/NAP-FC_GER_AA/GER_AA_ver-1","yes","no","sans","no","20","no","black","no","Next","yes","768","legacy","31","9","0","/Users/aviadalbert/Documents/Academisch/UoC/Dissertation/Experiment/OpenSesame/NAP-FC/NAP-FC_GER_AA/GER_AA_ver-1/subject-1.csv","xpyriment","Jazzy James","3.1.6","yes","yes","59504085b83f69022b47a751","595041f76c613b022ae3ecdb","no","no","0","f","f","space","NA","return","k","f","1279","1462","11519","NA","21581","10610","1279","2","legacy","1024","1","44100","-16","experiment","nfal","21","dueseldorf","1","1","1","german","english,italian,greek","1","odd","duesseldorf","213470","201651","NA","214933","213467","NA","1630","213224","1630","1630","119202","140787","318525","317017","319805","164630","151681","201650","28475","100816","199973","151465","213470","151684","NA","318525","318525","184300","184297","317013","NAP perception","25","48123","32","yes","1024"
"78.7878787879","yes","78.7878787879","1495.66666667","1495.66666667","white","no","xpyriment","I have read and understood the information shown above","legacy","legacy","0","uniform","1","0","0","undefined","undefined","1","f","1","0","NA","0","0","0","0","0","0","0","0","0","42","42","42","0","0","0","0","0","1","0","0","0","1","42","42","42","42","42","Wed Jun 28 14:34:16 2017","Forced-choice identification task with a practice and an experimental phase","yes","NAP-FC_GER_AA_ver-1.osexp","/Users/aviadalbert/Documents/Academisch/UoC/Dissertation/Experiment/OpenSesame/NAP-FC/NAP-FC_GER_AA/GER_AA_ver-1","yes","no","sans","no","20","no","black","no","Next","yes","768","legacy","32","9","0","/Users/aviadalbert/Documents/Academisch/UoC/Dissertation/Experiment/OpenSesame/NAP-FC/NAP-FC_GER_AA/GER_AA_ver-1/subject-1.csv","xpyriment","Jazzy James","3.1.6","yes","yes","59504085b83f69022b47a751","595041f76c613b022ae3ecdb","no","no","0","f","f","space","NA","return","k","f","1234","1462","11519","NA","21581","10610","1234","2","legacy","1024","1","44100","-16","experiment","zmal","21","dueseldorf","1","1","1","german","english,italian,greek","1","odd","duesseldorf","213470","201651","NA","214933","213467","NA","1630","213224","1630","1630","119202","140787","321569","320061","322804","164630","151681","201650","28475","100816","199973","151465","213470","151684","NA","321569","321569","184300","184297","320057","NAP perception","26","49357","33","yes","1024"
"79.4117647059","yes","79.4117647059","1495.05882353","1495.05882353","white","no","xpyriment","I have read and understood the information shown above","legacy","legacy","0","uniform","1","0","0","undefined","undefined","1","j","1","0","NA","0","0","0","0","0","0","0","0","0","43","43","43","0","0","0","0","0","1","0","0","0","1","43","43","43","43","43","Wed Jun 28 14:34:16 2017","Forced-choice identification task with a practice and an experimental phase","yes","NAP-FC_GER_AA_ver-1.osexp","/Users/aviadalbert/Documents/Academisch/UoC/Dissertation/Experiment/OpenSesame/NAP-FC/NAP-FC_GER_AA/GER_AA_ver-1","yes","no","sans","no","20","no","black","no","Next","yes","768","legacy","33","9","0","/Users/aviadalbert/Documents/Academisch/UoC/Dissertation/Experiment/OpenSesame/NAP-FC/NAP-FC_GER_AA/GER_AA_ver-1/subject-1.csv","xpyriment","Jazzy James","3.1.6","yes","yes","59504085b83f69022b47a751","595041f76c613b022ae3ecdb","no","no","0","j","f","space","NA","return","k","j","1475","1462","11519","NA","21581","10610","1475","2","legacy","1024","1","44100","-16","experiment","jefal","21","dueseldorf","1","1","1","german","english,italian,greek","1","odd","duesseldorf","213470","201651","NA","214933","213467","NA","1630","213224","1630","1630","119202","140787","324588","323085","326064","164630","151681","201650","28475","100816","199973","151465","213470","151684","NA","324588","324588","184300","184297","323081","NAP perception","27","50832","34","yes","1024"
"77.1428571429","yes","77.1428571429","1509.51428571","1509.51428571","white","no","xpyriment","I have read and understood the information shown above","legacy","legacy","0","uniform","0","0","0","undefined","undefined","0","j","1","0","NA","0","0","0","0","0","0","0","0","0","44","44","44","0","0","0","0","0","1","0","0","0","1","44","44","44","44","44","Wed Jun 28 14:34:16 2017","Forced-choice identification task with a practice and an experimental phase","yes","NAP-FC_GER_AA_ver-1.osexp","/Users/aviadalbert/Documents/Academisch/UoC/Dissertation/Experiment/OpenSesame/NAP-FC/NAP-FC_GER_AA/GER_AA_ver-1","yes","no","sans","no","20","no","black","no","Next","yes","768","legacy","34","9","0","/Users/aviadalbert/Documents/Academisch/UoC/Dissertation/Experiment/OpenSesame/NAP-FC/NAP-FC_GER_AA/GER_AA_ver-1/subject-1.csv","xpyriment","Jazzy James","3.1.6","yes","yes","59504085b83f69022b47a751","595041f76c613b022ae3ecdb","no","no","0","f","f","space","NA","return","k","f","2001","1462","11519","NA","21581","10610","2001","2","legacy","1024","1","44100","-16","experiment","emtal","21","dueseldorf","1","1","1","german","english,italian,greek","1","odd","duesseldorf","213470","201651","NA","214933","213467","NA","1630","213224","1630","1630","119202","140787","327839","326334","329841","164630","151681","201650","28475","100816","199973","151465","213470","151684","NA","327838","327839","184300","184297","326331","NAP perception","27","52833","35","yes","1024"
"77.7777777778","yes","77.7777777778","1529.63888889","1529.63888889","white","no","xpyriment","I have read and understood the information shown above","legacy","legacy","0","uniform","1","0","0","undefined","undefined","1","f","1","0","NA","0","0","0","0","0","0","0","0","0","45","45","45","0","0","0","0","0","1","0","0","0","1","45","45","45","45","45","Wed Jun 28 14:34:16 2017","Forced-choice identification task with a practice and an experimental phase","yes","NAP-FC_GER_AA_ver-1.osexp","/Users/aviadalbert/Documents/Academisch/UoC/Dissertation/Experiment/OpenSesame/NAP-FC/NAP-FC_GER_AA/GER_AA_ver-1","yes","no","sans","no","20","no","black","no","Next","yes","768","legacy","35","9","0","/Users/aviadalbert/Documents/Academisch/UoC/Dissertation/Experiment/OpenSesame/NAP-FC/NAP-FC_GER_AA/GER_AA_ver-1/subject-1.csv","xpyriment","Jazzy James","3.1.6","yes","yes","59504085b83f69022b47a751","595041f76c613b022ae3ecdb","no","no","0","f","f","space","NA","return","k","f","2234","1462","11519","NA","21581","10610","2234","2","legacy","1024","1","44100","-16","experiment","mlal","21","dueseldorf","1","1","1","german","english,italian,greek","1","odd","duesseldorf","213470","201651","NA","214933","213467","NA","1630","213224","1630","1630","119202","140787","331610","330106","333845","164630","151681","201650","28475","100816","199973","151465","213470","151684","NA","331610","331610","184300","184297","330102","NAP perception","28","55067","36","yes","1024"
"78.3783783784","yes","78.3783783784","1512.75675676","1512.75675676","white","no","xpyriment","I have read and understood the information shown above","legacy","legacy","0","uniform","1","0","0","undefined","undefined","1","j","1","0","NA","0","0","0","0","0","0","0","0","0","46","46","46","0","0","0","0","0","1","0","0","0","1","46","46","46","46","46","Wed Jun 28 14:34:16 2017","Forced-choice identification task with a practice and an experimental phase","yes","NAP-FC_GER_AA_ver-1.osexp","/Users/aviadalbert/Documents/Academisch/UoC/Dissertation/Experiment/OpenSesame/NAP-FC/NAP-FC_GER_AA/GER_AA_ver-1","yes","no","sans","no","20","no","black","no","Next","yes","768","legacy","36","9","0","/Users/aviadalbert/Documents/Academisch/UoC/Dissertation/Experiment/OpenSesame/NAP-FC/NAP-FC_GER_AA/GER_AA_ver-1/subject-1.csv","xpyriment","Jazzy James","3.1.6","yes","yes","59504085b83f69022b47a751","595041f76c613b022ae3ecdb","no","no","0","j","f","space","NA","return","k","j","905","1462","11519","NA","21581","10610","905","2","legacy","1024","1","44100","-16","experiment","jeval","21","dueseldorf","1","1","1","german","english,italian,greek","1","odd","duesseldorf","213470","201651","NA","214933","213467","NA","1630","213224","1630","1630","119202","140787","335621","334118","336527","164630","151681","201650","28475","100816","199973","151465","213470","151684","NA","335621","335621","184300","184297","334114","NAP perception","29","55972","37","yes","1024"
"78.9473684211","yes","78.9473684211","1503.84210526","1503.84210526","white","no","xpyriment","I have read and understood the information shown above","legacy","legacy","0","uniform","1","0","0","undefined","undefined","1","j","1","0","NA","0","0","0","0","0","0","0","0","0","47","47","47","0","0","0","0","0","1","0","0","0","1","47","47","47","47","47","Wed Jun 28 14:34:16 2017","Forced-choice identification task with a practice and an experimental phase","yes","NAP-FC_GER_AA_ver-1.osexp","/Users/aviadalbert/Documents/Academisch/UoC/Dissertation/Experiment/OpenSesame/NAP-FC/NAP-FC_GER_AA/GER_AA_ver-1","yes","no","sans","no","20","no","black","no","Next","yes","768","legacy","37","9","0","/Users/aviadalbert/Documents/Academisch/UoC/Dissertation/Experiment/OpenSesame/NAP-FC/NAP-FC_GER_AA/GER_AA_ver-1/subject-1.csv","xpyriment","Jazzy James","3.1.6","yes","yes","59504085b83f69022b47a751","595041f76c613b022ae3ecdb","no","no","0","j","f","space","NA","return","k","j","1174","1462","11519","NA","21581","10610","1174","2","legacy","1024","1","44100","-16","experiment","nepal","21","dueseldorf","1","1","1","german","english,italian,greek","1","odd","duesseldorf","213470","201651","NA","214933","213467","NA","1630","213224","1630","1630","119202","140787","338302","336798","339477","164630","151681","201650","28475","100816","199973","151465","213470","151684","NA","338302","338302","184300","184297","336794","NAP perception","30","57146","38","yes","1024"
"79.4871794872","yes","79.4871794872","1494.35897436","1494.35897436","white","no","xpyriment","I have read and understood the information shown above","legacy","legacy","0","uniform","1","0","0","undefined","undefined","1","f","1","0","NA","0","0","0","0","0","0","0","0","0","48","48","48","0","0","0","0","0","1","0","0","0","1","48","48","48","48","48","Wed Jun 28 14:34:16 2017","Forced-choice identification task with a practice and an experimental phase","yes","NAP-FC_GER_AA_ver-1.osexp","/Users/aviadalbert/Documents/Academisch/UoC/Dissertation/Experiment/OpenSesame/NAP-FC/NAP-FC_GER_AA/GER_AA_ver-1","yes","no","sans","no","20","no","black","no","Next","yes","768","legacy","38","9","0","/Users/aviadalbert/Documents/Academisch/UoC/Dissertation/Experiment/OpenSesame/NAP-FC/NAP-FC_GER_AA/GER_AA_ver-1/subject-1.csv","xpyriment","Jazzy James","3.1.6","yes","yes","59504085b83f69022b47a751","595041f76c613b022ae3ecdb","no","no","0","f","f","space","NA","return","k","f","1134","1462","11519","NA","21581","10610","1134","2","legacy","1024","1","44100","-16","experiment","zval","21","dueseldorf","1","1","1","german","english,italian,greek","1","odd","duesseldorf","213470","201651","NA","214933","213467","NA","1630","213224","1630","1630","119202","140787","341245","339738","342380","164630","151681","201650","28475","100816","199973","151465","213470","151684","NA","341245","341245","184300","184297","339734","NAP perception","31","58280","39","yes","1024"
"80","yes","80","1503.325","1503.325","white","no","xpyriment","I have read and understood the information shown above","legacy","legacy","0","uniform","1","0","0","undefined","undefined","1","j","1","0","NA","0","0","0","0","0","0","0","0","0","49","49","49","0","0","0","0","0","1","0","0","0","1","49","49","49","49","49","Wed Jun 28 14:34:16 2017","Forced-choice identification task with a practice and an experimental phase","yes","NAP-FC_GER_AA_ver-1.osexp","/Users/aviadalbert/Documents/Academisch/UoC/Dissertation/Experiment/OpenSesame/NAP-FC/NAP-FC_GER_AA/GER_AA_ver-1","yes","no","sans","no","20","no","black","no","Next","yes","768","legacy","39","9","0","/Users/aviadalbert/Documents/Academisch/UoC/Dissertation/Experiment/OpenSesame/NAP-FC/NAP-FC_GER_AA/GER_AA_ver-1/subject-1.csv","xpyriment","Jazzy James","3.1.6","yes","yes","59504085b83f69022b47a751","595041f76c613b022ae3ecdb","no","no","0","j","f","space","NA","return","k","j","1853","1462","11519","NA","21581","10610","1853","2","legacy","1024","1","44100","-16","experiment","eʃpal","21","dueseldorf","1","1","1","german","english,italian,greek","1","odd","duesseldorf","213470","201651","NA","214933","213467","NA","1630","213224","1630","1630","119202","140787","344162","342656","346016","164630","151681","201650","28475","100816","199973","151465","213470","151684","NA","344162","344162","184300","184297","342652","NAP perception","32","60133","40","yes","1024"
"80.487804878","yes","80.487804878","1512.24390244","1512.24390244","white","no","xpyriment","I have read and understood the information shown above","legacy","legacy","0","uniform","1","0","0","undefined","undefined","1","j","1","0","NA","0","0","0","0","0","0","0","0","0","50","50","50","0","0","0","0","0","1","0","0","0","1","50","50","50","50","50","Wed Jun 28 14:34:16 2017","Forced-choice identification task with a practice and an experimental phase","yes","NAP-FC_GER_AA_ver-1.osexp","/Users/aviadalbert/Documents/Academisch/UoC/Dissertation/Experiment/OpenSesame/NAP-FC/NAP-FC_GER_AA/GER_AA_ver-1","yes","no","sans","no","20","no","black","no","Next","yes","768","legacy","40","9","0","/Users/aviadalbert/Documents/Academisch/UoC/Dissertation/Experiment/OpenSesame/NAP-FC/NAP-FC_GER_AA/GER_AA_ver-1/subject-1.csv","xpyriment","Jazzy James","3.1.6","yes","yes","59504085b83f69022b47a751","595041f76c613b022ae3ecdb","no","no","0","j","f","space","NA","return","k","j","1869","1462","11519","NA","21581","10610","1869","2","legacy","1024","1","44100","-16","experiment","semal","21","dueseldorf","1","1","1","german","english,italian,greek","1","odd","duesseldorf","213470","201651","NA","214933","213467","NA","1630","213224","1630","1630","119202","140787","347794","346289","349665","164630","151681","201650","28475","100816","199973","151465","213470","151684","NA","347794","347794","184300","184297","346285","NAP perception","33","62002","41","yes","1024"
"80.9523809524","yes","80.9523809524","1501.45238095","1501.45238095","white","no","xpyriment","I have read and understood the information shown above","legacy","legacy","0","uniform","1","0","0","undefined","undefined","1","f","1","0","NA","0","0","0","0","0","0","0","0","0","51","51","51","0","0","0","0","0","1","0","0","0","1","51","51","51","51","51","Wed Jun 28 14:34:16 2017","Forced-choice identification task with a practice and an experimental phase","yes","NAP-FC_GER_AA_ver-1.osexp","/Users/aviadalbert/Documents/Academisch/UoC/Dissertation/Experiment/OpenSesame/NAP-FC/NAP-FC_GER_AA/GER_AA_ver-1","yes","no","sans","no","20","no","black","no","Next","yes","768","legacy","41","9","0","/Users/aviadalbert/Documents/Academisch/UoC/Dissertation/Experiment/OpenSesame/NAP-FC/NAP-FC_GER_AA/GER_AA_ver-1/subject-1.csv","xpyriment","Jazzy James","3.1.6","yes","yes","59504085b83f69022b47a751","595041f76c613b022ae3ecdb","no","no","0","f","f","space","NA","return","k","f","1059","1462","11519","NA","21581","10610","1059","2","legacy","1024","1","44100","-16","experiment","flal","21","dueseldorf","1","1","1","german","english,italian,greek","1","odd","duesseldorf","213470","201651","NA","214933","213467","NA","1630","213224","1630","1630","119202","140787","351432","349927","352493","164630","151681","201650","28475","100816","199973","151465","213470","151684","NA","351431","351431","184300","184297","349923","NAP perception","34","63061","42","yes","1024"
"81.3953488372","yes","81.3953488372","1491.8372093","1491.8372093","white","no","xpyriment","I have read and understood the information shown above","legacy","legacy","0","uniform","1","0","0","undefined","undefined","1","j","1","0","NA","0","0","0","0","0","0","0","0","0","52","52","52","0","0","0","0","0","1","0","0","0","1","52","52","52","52","52","Wed Jun 28 14:34:16 2017","Forced-choice identification task with a practice and an experimental phase","yes","NAP-FC_GER_AA_ver-1.osexp","/Users/aviadalbert/Documents/Academisch/UoC/Dissertation/Experiment/OpenSesame/NAP-FC/NAP-FC_GER_AA/GER_AA_ver-1","yes","no","sans","no","20","no","black","no","Next","yes","768","legacy","42","9","0","/Users/aviadalbert/Documents/Academisch/UoC/Dissertation/Experiment/OpenSesame/NAP-FC/NAP-FC_GER_AA/GER_AA_ver-1/subject-1.csv","xpyriment","Jazzy James","3.1.6","yes","yes","59504085b83f69022b47a751","595041f76c613b022ae3ecdb","no","no","0","j","f","space","NA","return","k","j","1088","1462","11519","NA","21581","10610","1088","2","legacy","1024","1","44100","-16","experiment","eʃmal","21","dueseldorf","1","1","1","german","english,italian,greek","1","odd","duesseldorf","213470","201651","NA","214933","213467","NA","1630","213224","1630","1630","119202","140787","354264","352760","355354","164630","151681","201650","28475","100816","199973","151465","213470","151684","NA","354264","354264","184300","184297","352757","NAP perception","35","64149","43","yes","1024"
"81.8181818182","yes","81.8181818182","1480","1480","white","no","xpyriment","I have read and understood the information shown above","legacy","legacy","0","uniform","1","0","0","undefined","undefined","1","j","1","0","NA","0","0","0","0","0","0","0","0","0","53","53","53","0","0","0","0","0","1","0","0","0","1","53","53","53","53","53","Wed Jun 28 14:34:16 2017","Forced-choice identification task with a practice and an experimental phase","yes","NAP-FC_GER_AA_ver-1.osexp","/Users/aviadalbert/Documents/Academisch/UoC/Dissertation/Experiment/OpenSesame/NAP-FC/NAP-FC_GER_AA/GER_AA_ver-1","yes","no","sans","no","20","no","black","no","Next","yes","768","legacy","43","9","0","/Users/aviadalbert/Documents/Academisch/UoC/Dissertation/Experiment/OpenSesame/NAP-FC/NAP-FC_GER_AA/GER_AA_ver-1/subject-1.csv","xpyriment","Jazzy James","3.1.6","yes","yes","59504085b83f69022b47a751","595041f76c613b022ae3ecdb","no","no","0","j","f","space","NA","return","k","j","971","1462","11519","NA","21581","10610","971","2","legacy","1024","1","44100","-16","experiment","emzal","21","dueseldorf","1","1","1","german","english,italian,greek","1","odd","duesseldorf","213470","201651","NA","214933","213467","NA","1630","213224","1630","1630","119202","140787","357107","355604","358080","164630","151681","201650","28475","100816","199973","151465","213470","151684","NA","357107","357107","184300","184297","355601","NAP perception","36","65120","44","yes","1024"
"82.2222222222","yes","82.2222222222","1467.15555556","1467.15555556","white","no","xpyriment","I have read and understood the information shown above","legacy","legacy","0","uniform","1","0","0","undefined","undefined","1","j","1","0","NA","0","0","0","0","0","0","0","0","0","54","54","54","0","0","0","0","0","1","0","0","0","1","54","54","54","54","54","Wed Jun 28 14:34:16 2017","Forced-choice identification task with a practice and an experimental phase","yes","NAP-FC_GER_AA_ver-1.osexp","/Users/aviadalbert/Documents/Academisch/UoC/Dissertation/Experiment/OpenSesame/NAP-FC/NAP-FC_GER_AA/GER_AA_ver-1","yes","no","sans","no","20","no","black","no","Next","yes","768","legacy","44","9","0","/Users/aviadalbert/Documents/Academisch/UoC/Dissertation/Experiment/OpenSesame/NAP-FC/NAP-FC_GER_AA/GER_AA_ver-1/subject-1.csv","xpyriment","Jazzy James","3.1.6","yes","yes","59504085b83f69022b47a751","595041f76c613b022ae3ecdb","no","no","0","j","f","space","NA","return","k","j","902","1462","11519","NA","21581","10610","902","2","legacy","1024","1","44100","-16","experiment","jepal","21","dueseldorf","1","1","1","german","english,italian,greek","1","odd","duesseldorf","213470","201651","NA","214933","213467","NA","1630","213224","1630","1630","119202","140787","359858","358351","360762","164630","151681","201650","28475","100816","199973","151465","213470","151684","NA","359858","359858","184300","184297","358347","NAP perception","37","66022","45","yes","1024"
"82.6086956522","yes","82.6086956522","1452.73913043","1452.73913043","white","no","xpyriment","I have read and understood the information shown above","legacy","legacy","0","uniform","1","0","0","undefined","undefined","1","j","1","0","NA","0","0","0","0","0","0","0","0","0","55","55","55","0","0","0","0","0","1","0","0","0","1","55","55","55","55","55","Wed Jun 28 14:34:16 2017","Forced-choice identification task with a practice and an experimental phase","yes","NAP-FC_GER_AA_ver-1.osexp","/Users/aviadalbert/Documents/Academisch/UoC/Dissertation/Experiment/OpenSesame/NAP-FC/NAP-FC_GER_AA/GER_AA_ver-1","yes","no","sans","no","20","no","black","no","Next","yes","768","legacy","45","9","0","/Users/aviadalbert/Documents/Academisch/UoC/Dissertation/Experiment/OpenSesame/NAP-FC/NAP-FC_GER_AA/GER_AA_ver-1/subject-1.csv","xpyriment","Jazzy James","3.1.6","yes","yes","59504085b83f69022b47a751","595041f76c613b022ae3ecdb","no","no","0","j","f","space","NA","return","k","j","804","1462","11519","NA","21581","10610","804","2","legacy","1024","1","44100","-16","experiment","wetal","21","dueseldorf","1","1","1","german","english,italian,greek","1","odd","duesseldorf","213470","201651","NA","214933","213467","NA","1630","213224","1630","1630","119202","140787","362530","361027","363336","164630","151681","201650","28475","100816","199973","151465","213470","151684","NA","362530","362530","184300","184297","361023","NAP perception","38","66826","46","yes","1024"
"82.9787234043","yes","82.9787234043","1439.87234043","1439.87234043","white","no","xpyriment","I have read and understood the information shown above","legacy","legacy","0","uniform","1","0","0","undefined","undefined","1","j","1","0","NA","0","0","0","0","0","0","0","0","0","56","56","56","0","0","0","0","0","1","0","0","0","1","56","56","56","56","56","Wed Jun 28 14:34:16 2017","Forced-choice identification task with a practice and an experimental phase","yes","NAP-FC_GER_AA_ver-1.osexp","/Users/aviadalbert/Documents/Academisch/UoC/Dissertation/Experiment/OpenSesame/NAP-FC/NAP-FC_GER_AA/GER_AA_ver-1","yes","no","sans","no","20","no","black","no","Next","yes","768","legacy","46","9","0","/Users/aviadalbert/Documents/Academisch/UoC/Dissertation/Experiment/OpenSesame/NAP-FC/NAP-FC_GER_AA/GER_AA_ver-1/subject-1.csv","xpyriment","Jazzy James","3.1.6","yes","yes","59504085b83f69022b47a751","595041f76c613b022ae3ecdb","no","no","0","j","f","space","NA","return","k","j","848","1462","11519","NA","21581","10610","848","2","legacy","1024","1","44100","-16","experiment","vezal","21","dueseldorf","1","1","1","german","english,italian,greek","1","odd","duesseldorf","213470","201651","NA","214933","213467","NA","1630","213224","1630","1630","119202","140787","365095","363592","365944","164630","151681","201650","28475","100816","199973","151465","213470","151684","NA","365095","365095","184300","184297","363588","NAP perception","39","67674","47","yes","1024"
"83.3333333333","yes","83.3333333333","1428.375","1428.375","white","no","xpyriment","I have read and understood the information shown above","legacy","legacy","0","uniform","1","0","0","undefined","undefined","1","j","1","0","NA","0","0","0","0","0","0","0","0","0","57","57","57","0","0","0","0","0","1","0","0","0","1","57","57","57","57","57","Wed Jun 28 14:34:16 2017","Forced-choice identification task with a practice and an experimental phase","yes","NAP-FC_GER_AA_ver-1.osexp","/Users/aviadalbert/Documents/Academisch/UoC/Dissertation/Experiment/OpenSesame/NAP-FC/NAP-FC_GER_AA/GER_AA_ver-1","yes","no","sans","no","20","no","black","no","Next","yes","768","legacy","47","9","0","/Users/aviadalbert/Documents/Academisch/UoC/Dissertation/Experiment/OpenSesame/NAP-FC/NAP-FC_GER_AA/GER_AA_ver-1/subject-1.csv","xpyriment","Jazzy James","3.1.6","yes","yes","59504085b83f69022b47a751","595041f76c613b022ae3ecdb","no","no","0","j","f","space","NA","return","k","j","888","1462","11519","NA","21581","10610","888","2","legacy","1024","1","44100","-16","experiment","wesal","21","dueseldorf","1","1","1","german","english,italian,greek","1","odd","duesseldorf","213470","201651","NA","214933","213467","NA","1630","213224","1630","1630","119202","140787","367728","366225","368617","164630","151681","201650","28475","100816","199973","151465","213470","151684","NA","367728","367728","184300","184297","366221","NAP perception","40","68562","48","yes","1024"
"83.6734693878","yes","83.6734693878","1423.46938776","1423.46938776","white","no","xpyriment","I have read and understood the information shown above","legacy","legacy","0","uniform","1","0","0","undefined","undefined","1","f","1","0","NA","0","0","0","0","0","0","0","0","0","58","58","58","0","0","0","0","0","1","0","0","0","1","58","58","58","58","58","Wed Jun 28 14:34:16 2017","Forced-choice identification task with a practice and an experimental phase","yes","NAP-FC_GER_AA_ver-1.osexp","/Users/aviadalbert/Documents/Academisch/UoC/Dissertation/Experiment/OpenSesame/NAP-FC/NAP-FC_GER_AA/GER_AA_ver-1","yes","no","sans","no","20","no","black","no","Next","yes","768","legacy","48","9","0","/Users/aviadalbert/Documents/Academisch/UoC/Dissertation/Experiment/OpenSesame/NAP-FC/NAP-FC_GER_AA/GER_AA_ver-1/subject-1.csv","xpyriment","Jazzy James","3.1.6","yes","yes","59504085b83f69022b47a751","595041f76c613b022ae3ecdb","no","no","0","f","f","space","NA","return","k","f","1188","1462","11519","NA","21581","10610","1188","2","legacy","1024","1","44100","-16","experiment","smal","21","dueseldorf","1","1","1","german","english,italian,greek","1","odd","duesseldorf","213470","201651","NA","214933","213467","NA","1630","213224","1630","1630","119202","140787","370395","368891","371584","164630","151681","201650","28475","100816","199973","151465","213470","151684","NA","370394","370395","184300","184297","368887","NAP perception","41","69750","49","yes","1024"
"84","yes","84","1419.96","1419.96","white","no","xpyriment","I have read and understood the information shown above","legacy","legacy","0","uniform","1","0","0","undefined","undefined","1","f","1","0","NA","0","0","0","0","0","0","0","0","0","59","59","59","0","0","0","0","0","1","0","0","0","1","59","59","59","59","59","Wed Jun 28 14:34:16 2017","Forced-choice identification task with a practice and an experimental phase","yes","NAP-FC_GER_AA_ver-1.osexp","/Users/aviadalbert/Documents/Academisch/UoC/Dissertation/Experiment/OpenSesame/NAP-FC/NAP-FC_GER_AA/GER_AA_ver-1","yes","no","sans","no","20","no","black","no","Next","yes","768","legacy","49","9","0","/Users/aviadalbert/Documents/Academisch/UoC/Dissertation/Experiment/OpenSesame/NAP-FC/NAP-FC_GER_AA/GER_AA_ver-1/subject-1.csv","xpyriment","Jazzy James","3.1.6","yes","yes","59504085b83f69022b47a751","595041f76c613b022ae3ecdb","no","no","0","f","f","space","NA","return","k","f","1248","1462","11519","NA","21581","10610","1248","2","legacy","1024","1","44100","-16","experiment","fsal","21","dueseldorf","1","1","1","german","english,italian,greek","1","odd","duesseldorf","213470","201651","NA","214933","213467","NA","1630","213224","1630","1630","119202","140787","373349","371845","374598","164630","151681","201650","28475","100816","199973","151465","213470","151684","NA","373349","373349","184300","184297","371842","NAP perception","42","70998","50","yes","1024"
"84.3137254902","yes","84.3137254902","1417.1372549","1417.1372549","white","no","xpyriment","I have read and understood the information shown above","legacy","legacy","0","uniform","1","0","0","undefined","undefined","1","j","1","0","NA","0","0","0","0","0","0","0","0","0","60","60","60","0","0","0","0","0","1","0","0","0","1","60","60","60","60","60","Wed Jun 28 14:34:16 2017","Forced-choice identification task with a practice and an experimental phase","yes","NAP-FC_GER_AA_ver-1.osexp","/Users/aviadalbert/Documents/Academisch/UoC/Dissertation/Experiment/OpenSesame/NAP-FC/NAP-FC_GER_AA/GER_AA_ver-1","yes","no","sans","no","20","no","black","no","Next","yes","768","legacy","50","9","0","/Users/aviadalbert/Documents/Academisch/UoC/Dissertation/Experiment/OpenSesame/NAP-FC/NAP-FC_GER_AA/GER_AA_ver-1/subject-1.csv","xpyriment","Jazzy James","3.1.6","yes","yes","59504085b83f69022b47a751","595041f76c613b022ae3ecdb","no","no","0","j","f","space","NA","return","k","j","1276","1462","11519","NA","21581","10610","1276","2","legacy","1024","1","44100","-16","experiment","elval","21","dueseldorf","1","1","1","german","english,italian,greek","1","odd","duesseldorf","213470","201651","NA","214933","213467","NA","1630","213224","1630","1630","119202","140787","376375","374870","377652","164630","151681","201650","28475","100816","199973","151465","213470","151684","NA","376375","376375","184300","184297","374866","NAP perception","43","72274","51","yes","1024"
"82.6923076923","yes","82.6923076923","1407.44230769","1407.44230769","white","no","xpyriment","I have read and understood the information shown above","legacy","legacy","0","uniform","0","0","0","undefined","undefined","0","f","1","0","NA","0","0","0","0","0","0","0","0","0","61","61","61","0","0","0","0","0","1","0","0","0","1","61","61","61","61","61","Wed Jun 28 14:34:16 2017","Forced-choice identification task with a practice and an experimental phase","yes","NAP-FC_GER_AA_ver-1.osexp","/Users/aviadalbert/Documents/Academisch/UoC/Dissertation/Experiment/OpenSesame/NAP-FC/NAP-FC_GER_AA/GER_AA_ver-1","yes","no","sans","no","20","no","black","no","Next","yes","768","legacy","51","9","0","/Users/aviadalbert/Documents/Academisch/UoC/Dissertation/Experiment/OpenSesame/NAP-FC/NAP-FC_GER_AA/GER_AA_ver-1/subject-1.csv","xpyriment","Jazzy James","3.1.6","yes","yes","59504085b83f69022b47a751","595041f76c613b022ae3ecdb","no","no","0","j","f","space","NA","return","k","j","913","1462","11519","NA","21581","10610","913","2","legacy","1024","1","44100","-16","experiment","mnal","21","dueseldorf","1","1","1","german","english,italian,greek","1","odd","duesseldorf","213470","201651","NA","214933","213467","NA","1630","213224","1630","1630","119202","140787","379422","377919","380336","164630","151681","201650","28475","100816","199973","151465","213470","151684","NA","379422","379422","184300","184297","377915","NAP perception","43","73187","52","yes","1024"
"81.1320754717","yes","81.1320754717","1399.0754717","1399.0754717","white","no","xpyriment","I have read and understood the information shown above","legacy","legacy","0","uniform","0","0","0","undefined","undefined","0","f","1","0","NA","0","0","0","0","0","0","0","0","0","62","62","62","0","0","0","0","0","1","0","0","0","1","62","62","62","62","62","Wed Jun 28 14:34:16 2017","Forced-choice identification task with a practice and an experimental phase","yes","NAP-FC_GER_AA_ver-1.osexp","/Users/aviadalbert/Documents/Academisch/UoC/Dissertation/Experiment/OpenSesame/NAP-FC/NAP-FC_GER_AA/GER_AA_ver-1","yes","no","sans","no","20","no","black","no","Next","yes","768","legacy","52","9","0","/Users/aviadalbert/Documents/Academisch/UoC/Dissertation/Experiment/OpenSesame/NAP-FC/NAP-FC_GER_AA/GER_AA_ver-1/subject-1.csv","xpyriment","Jazzy James","3.1.6","yes","yes","59504085b83f69022b47a751","595041f76c613b022ae3ecdb","no","no","0","j","f","space","NA","return","k","j","964","1462","11519","NA","21581","10610","964","2","legacy","1024","1","44100","-16","experiment","mzal","21","dueseldorf","1","1","1","german","english,italian,greek","1","odd","duesseldorf","213470","201651","NA","214933","213467","NA","1630","213224","1630","1630","119202","140787","382116","380612","383082","164630","151681","201650","28475","100816","199973","151465","213470","151684","NA","382115","382116","184300","184297","380608","NAP perception","43","74151","53","yes","1024"
"79.6296296296","yes","79.6296296296","1397.87037037","1397.87037037","white","no","xpyriment","I have read and understood the information shown above","legacy","legacy","0","uniform","0","0","0","undefined","undefined","0","f","1","0","NA","0","0","0","0","0","0","0","0","0","63","63","63","0","0","0","0","0","1","0","0","0","1","63","63","63","63","63","Wed Jun 28 14:34:16 2017","Forced-choice identification task with a practice and an experimental phase","yes","NAP-FC_GER_AA_ver-1.osexp","/Users/aviadalbert/Documents/Academisch/UoC/Dissertation/Experiment/OpenSesame/NAP-FC/NAP-FC_GER_AA/GER_AA_ver-1","yes","no","sans","no","20","no","black","no","Next","yes","768","legacy","53","9","0","/Users/aviadalbert/Documents/Academisch/UoC/Dissertation/Experiment/OpenSesame/NAP-FC/NAP-FC_GER_AA/GER_AA_ver-1/subject-1.csv","xpyriment","Jazzy James","3.1.6","yes","yes","59504085b83f69022b47a751","595041f76c613b022ae3ecdb","no","no","0","j","f","space","NA","return","k","j","1334","1462","11519","NA","21581","10610","1334","2","legacy","1024","1","44100","-16","experiment","wzal","21","dueseldorf","1","1","1","german","english,italian,greek","1","odd","duesseldorf","213470","201651","NA","214933","213467","NA","1630","213224","1630","1630","119202","140787","384854","383349","386190","164630","151681","201650","28475","100816","199973","151465","213470","151684","NA","384854","384854","184300","184297","383345","NAP perception","43","75485","54","yes","1024"
"80","yes","80","1387.76363636","1387.76363636","white","no","xpyriment","I have read and understood the information shown above","legacy","legacy","0","uniform","1","0","0","undefined","undefined","1","j","1","0","NA","0","0","0","0","0","0","0","0","0","64","64","64","0","0","0","0","0","1","0","0","0","1","64","64","64","64","64","Wed Jun 28 14:34:16 2017","Forced-choice identification task with a practice and an experimental phase","yes","NAP-FC_GER_AA_ver-1.osexp","/Users/aviadalbert/Documents/Academisch/UoC/Dissertation/Experiment/OpenSesame/NAP-FC/NAP-FC_GER_AA/GER_AA_ver-1","yes","no","sans","no","20","no","black","no","Next","yes","768","legacy","54","9","0","/Users/aviadalbert/Documents/Academisch/UoC/Dissertation/Experiment/OpenSesame/NAP-FC/NAP-FC_GER_AA/GER_AA_ver-1/subject-1.csv","xpyriment","Jazzy James","3.1.6","yes","yes","59504085b83f69022b47a751","595041f76c613b022ae3ecdb","no","no","0","j","f","space","NA","return","k","j","842","1462","11519","NA","21581","10610","842","2","legacy","1024","1","44100","-16","experiment","mesal","21","dueseldorf","1","1","1","german","english,italian,greek","1","odd","duesseldorf","213470","201651","NA","214933","213467","NA","1630","213224","1630","1630","119202","140787","387962","386457","388806","164630","151681","201650","28475","100816","199973","151465","213470","151684","NA","387961","387961","184300","184297","386453","NAP perception","44","76327","55","yes","1024"
"80.3571428571","yes","80.3571428571","1382.85714286","1382.85714286","white","no","xpyriment","I have read and understood the information shown above","legacy","legacy","0","uniform","1","0","0","undefined","undefined","1","f","1","0","NA","0","0","0","0","0","0","0","0","0","65","65","65","0","0","0","0","0","1","0","0","0","1","65","65","65","65","65","Wed Jun 28 14:34:16 2017","Forced-choice identification task with a practice and an experimental phase","yes","NAP-FC_GER_AA_ver-1.osexp","/Users/aviadalbert/Documents/Academisch/UoC/Dissertation/Experiment/OpenSesame/NAP-FC/NAP-FC_GER_AA/GER_AA_ver-1","yes","no","sans","no","20","no","black","no","Next","yes","768","legacy","55","9","0","/Users/aviadalbert/Documents/Academisch/UoC/Dissertation/Experiment/OpenSesame/NAP-FC/NAP-FC_GER_AA/GER_AA_ver-1/subject-1.csv","xpyriment","Jazzy James","3.1.6","yes","yes","59504085b83f69022b47a751","595041f76c613b022ae3ecdb","no","no","0","f","f","space","NA","return","k","f","1113","1462","11519","NA","21581","10610","1113","2","legacy","1024","1","44100","-16","experiment","fnal","21","dueseldorf","1","1","1","german","english,italian,greek","1","odd","duesseldorf","213470","201651","NA","214933","213467","NA","1630","213224","1630","1630","119202","140787","390568","389064","391683","164630","151681","201650","28475","100816","199973","151465","213470","151684","NA","390568","390568","184300","184297","389060","NAP perception","45","77440","56","yes","1024"
