"acc","accept_status","accuracy","average_response_time","avg_rt","background","bidi","canvas_backend","checkbox_status","clock_backend","color_backend","compensation","coordinates","correct","correct_block_activation","correct_block_exit","correct_instructions_1","correct_instructions_2","correct_keyboard_response","correct_response","count_block_activation","count_block_exit","count_block_info_QA","count_e_block_loop","count_e_block_sequence","count_end_of_experiment","count_experiment","count_experimental_loop","count_form_consent","count_info_forms","count_instructions_1","count_instructions_2","count_keyboard_response","count_listen_message","count_logger","count_p_block_loop","count_p_block_sequence","count_p_feedback","count_personal_details_form_1","count_personal_details_form_2","count_post_loop_blank","count_practice_loop","count_pre_e_block_message","count_pre_p_block_message","count_reset_feedback","count_stimulus_image","count_stimulus_sound","count_timeout_message","count_timeout_sound","count_trial_sequence","datetime","description","disable_garbage_collection","experiment_file","experiment_path","expyriment_opengl","font_bold","font_family","font_italic","font_size","font_underline","foreground","form_clicks","form_response","fullscreen","height","keyboard_backend","live_row","live_row_p_block_loop","live_row_practice_loop","logfile","mouse_backend","opensesame_codename","opensesame_version","osf_always_upload_data","osf_always_upload_experiment","osf_datanode_id","osf_id","practice","pygame_doublebuf","repeat_cycle","response","response_block_activation","response_block_exit","response_block_info_QA","response_instructions_1","response_instructions_2","response_keyboard_response","response_time","response_time_block_activation","response_time_block_exit","response_time_block_info_QA","response_time_instructions_1","response_time_instructions_2","response_time_keyboard_response","round_decimals","sampler_backend","sound_buf_size","sound_channels","sound_freq","sound_sample_size","start","stimulus","subject_age","subject_birth","subject_education","subject_gender","subject_handedness","subject_language_native","subject_language_other","subject_nr","subject_parity","subject_residence","time_block_activation","time_block_exit","time_block_info_QA","time_e_block_loop","time_e_block_sequence","time_end_of_experiment","time_experiment","time_experimental_loop","time_form_consent","time_info_forms","time_instructions_1","time_instructions_2","time_keyboard_response","time_listen_message","time_logger","time_p_block_loop","time_p_block_sequence","time_p_feedback","time_personal_details_form_1","time_personal_details_form_2","time_post_loop_blank","time_practice_loop","time_pre_e_block_message","time_pre_p_block_message","time_reset_feedback","time_stimulus_image","time_stimulus_sound","time_timeout_message","time_timeout_sound","time_trial_sequence","title","total_correct","total_response_time","total_responses","uniform_coordinates","width"
"100","yes","100","2282","2282","white","no","xpyriment","I have read and understood the information shown above","legacy","legacy","0","uniform","1","0","NA","undefined","undefined","1","f","0","0","NA","NA","NA","NA","0","0","0","0","0","0","0","0","0","0","0","NA","0","0","0","0","NA","0","0","0","0","0","0","0","Wed Jun 28 16:53:56 2017","Forced-choice identification task with a practice and an experimental phase","yes","NAP-FC_GER_AA_ver-1.osexp","/Users/aviadalbert/Documents/Academisch/UoC/Dissertation/Experiment/OpenSesame/NAP-FC/NAP-FC_GER_AA/GER_AA_ver-1","yes","no","sans","no","20","no","black","no","Next","yes","768","legacy","0","0","0","/Users/aviadalbert/Documents/Academisch/UoC/Dissertation/Experiment/OpenSesame/NAP-FC/NAP-FC_GER_AA/GER_AA_ver-1/subject-5.csv","xpyriment","Jazzy James","3.1.6","yes","yes","59504085b83f69022b47a751","595041f76c613b022ae3ecdb","yes","no","0","f","f","NA","NA","return","return","f","2282","3156","NA","NA","17777","26985","2282","2","legacy","1024","1","44100","-16","experiment","flal","23","datteln","1","0","1","deutsch","english french","5","odd","koeln","6647050","NA","NA","NA","NA","NA","6424835","NA","6424836","6424836","6602000","6619781","6651940","6650436","6654224","6650208","6647046","NA","6444825","6577533","NA","6646830","NA","6647050","NA","6651940","6651940","NA","NA","6650432","NAP perception","1","2282","1","yes","1024"
"100","yes","100","1812.5","1812.5","white","no","xpyriment","I have read and understood the information shown above","legacy","legacy","0","uniform","1","0","NA","undefined","undefined","1","j","0","0","NA","NA","NA","NA","0","0","0","0","0","0","1","1","1","0","0","NA","0","0","0","0","NA","0","0","1","1","1","1","1","Wed Jun 28 16:53:56 2017","Forced-choice identification task with a practice and an experimental phase","yes","NAP-FC_GER_AA_ver-1.osexp","/Users/aviadalbert/Documents/Academisch/UoC/Dissertation/Experiment/OpenSesame/NAP-FC/NAP-FC_GER_AA/GER_AA_ver-1","yes","no","sans","no","20","no","black","no","Next","yes","768","legacy","1","1","0","/Users/aviadalbert/Documents/Academisch/UoC/Dissertation/Experiment/OpenSesame/NAP-FC/NAP-FC_GER_AA/GER_AA_ver-1/subject-5.csv","xpyriment","Jazzy James","3.1.6","yes","yes","59504085b83f69022b47a751","595041f76c613b022ae3ecdb","yes","no","0","j","f","NA","NA","return","return","j","1343","3156","NA","NA","17777","26985","1343","2","legacy","1024","1","44100","-16","experiment","lepal","23","datteln","1","0","1","deutsch","english french","5","odd","koeln","6647050","NA","NA","NA","NA","NA","6424835","NA","6424836","6424836","6602000","6619781","6656021","6654514","6657365","6650208","6647046","NA","6444825","6577533","NA","6646830","NA","6647050","NA","6656020","6656020","NA","NA","6654510","NAP perception","2","3625","2","yes","1024"
"100","yes","100","1623","1623","white","no","xpyriment","I have read and understood the information shown above","legacy","legacy","0","uniform","1","0","NA","undefined","undefined","1","j","0","0","NA","NA","NA","NA","0","0","0","0","0","0","2","2","2","0","0","NA","0","0","0","0","NA","0","0","2","2","2","2","2","Wed Jun 28 16:53:56 2017","Forced-choice identification task with a practice and an experimental phase","yes","NAP-FC_GER_AA_ver-1.osexp","/Users/aviadalbert/Documents/Academisch/UoC/Dissertation/Experiment/OpenSesame/NAP-FC/NAP-FC_GER_AA/GER_AA_ver-1","yes","no","sans","no","20","no","black","no","Next","yes","768","legacy","2","2","0","/Users/aviadalbert/Documents/Academisch/UoC/Dissertation/Experiment/OpenSesame/NAP-FC/NAP-FC_GER_AA/GER_AA_ver-1/subject-5.csv","xpyriment","Jazzy James","3.1.6","yes","yes","59504085b83f69022b47a751","595041f76c613b022ae3ecdb","yes","no","0","j","f","NA","NA","return","return","j","1244","3156","NA","NA","17777","26985","1244","2","legacy","1024","1","44100","-16","experiment","emtal","23","datteln","1","0","1","deutsch","english french","5","odd","koeln","6647050","NA","NA","NA","NA","NA","6424835","NA","6424836","6424836","6602000","6619781","6659138","6657632","6660384","6650208","6647046","NA","6444825","6577533","NA","6646830","NA","6647050","NA","6659138","6659138","NA","NA","6657628","NAP perception","3","4869","3","yes","1024"
"75","yes","75","1726.25","1726.25","white","no","xpyriment","I have read and understood the information shown above","legacy","legacy","0","uniform","0","0","NA","undefined","undefined","0","f","0","0","NA","NA","NA","NA","0","0","0","0","0","0","3","3","3","0","0","NA","0","0","0","0","NA","0","0","3","3","3","3","3","Wed Jun 28 16:53:56 2017","Forced-choice identification task with a practice and an experimental phase","yes","NAP-FC_GER_AA_ver-1.osexp","/Users/aviadalbert/Documents/Academisch/UoC/Dissertation/Experiment/OpenSesame/NAP-FC/NAP-FC_GER_AA/GER_AA_ver-1","yes","no","sans","no","20","no","black","no","Next","yes","768","legacy","3","3","0","/Users/aviadalbert/Documents/Academisch/UoC/Dissertation/Experiment/OpenSesame/NAP-FC/NAP-FC_GER_AA/GER_AA_ver-1/subject-5.csv","xpyriment","Jazzy James","3.1.6","yes","yes","59504085b83f69022b47a751","595041f76c613b022ae3ecdb","yes","no","0","j","f","NA","NA","return","return","j","2036","3156","NA","NA","17777","26985","2036","2","legacy","1024","1","44100","-16","experiment","ʃpal","23","datteln","1","0","1","deutsch","english french","5","odd","koeln","6647050","NA","NA","NA","NA","NA","6424835","NA","6424836","6424836","6602000","6619781","6662162","6660657","6664199","6650208","6647046","NA","6444825","6577533","NA","6646830","NA","6647050","NA","6662162","6662162","NA","NA","6660652","NAP perception","3","6905","4","yes","1024"
"80","yes","80","1648.2","1648.2","white","no","xpyriment","I have read and understood the information shown above","legacy","legacy","0","uniform","1","0","NA","undefined","undefined","1","j","0","0","NA","NA","NA","NA","0","0","0","0","0","0","4","4","4","0","0","NA","0","0","0","0","NA","0","0","4","4","4","4","4","Wed Jun 28 16:53:56 2017","Forced-choice identification task with a practice and an experimental phase","yes","NAP-FC_GER_AA_ver-1.osexp","/Users/aviadalbert/Documents/Academisch/UoC/Dissertation/Experiment/OpenSesame/NAP-FC/NAP-FC_GER_AA/GER_AA_ver-1","yes","no","sans","no","20","no","black","no","Next","yes","768","legacy","4","4","0","/Users/aviadalbert/Documents/Academisch/UoC/Dissertation/Experiment/OpenSesame/NAP-FC/NAP-FC_GER_AA/GER_AA_ver-1/subject-5.csv","xpyriment","Jazzy James","3.1.6","yes","yes","59504085b83f69022b47a751","595041f76c613b022ae3ecdb","yes","no","0","j","f","NA","NA","return","return","j","1336","3156","NA","NA","17777","26985","1336","2","legacy","1024","1","44100","-16","experiment","nefal","23","datteln","1","0","1","deutsch","english french","5","odd","koeln","6647050","NA","NA","NA","NA","NA","6424835","NA","6424836","6424836","6602000","6619781","6665982","6664478","6667319","6650208","6647046","NA","6444825","6577533","NA","6646830","NA","6647050","NA","6665982","6665982","NA","NA","6664474","NAP perception","4","8241","5","yes","1024"
"83.3333333333","yes","83.3333333333","1612.66666667","1612.66666667","white","no","xpyriment","I have read and understood the information shown above","legacy","legacy","0","uniform","1","0","NA","undefined","undefined","1","f","0","0","NA","NA","NA","NA","0","0","0","0","0","0","5","5","5","0","0","NA","0","0","0","0","NA","0","0","5","5","5","5","5","Wed Jun 28 16:53:56 2017","Forced-choice identification task with a practice and an experimental phase","yes","NAP-FC_GER_AA_ver-1.osexp","/Users/aviadalbert/Documents/Academisch/UoC/Dissertation/Experiment/OpenSesame/NAP-FC/NAP-FC_GER_AA/GER_AA_ver-1","yes","no","sans","no","20","no","black","no","Next","yes","768","legacy","5","5","0","/Users/aviadalbert/Documents/Academisch/UoC/Dissertation/Experiment/OpenSesame/NAP-FC/NAP-FC_GER_AA/GER_AA_ver-1/subject-5.csv","xpyriment","Jazzy James","3.1.6","yes","yes","59504085b83f69022b47a751","595041f76c613b022ae3ecdb","yes","no","0","f","f","NA","NA","return","return","f","1435","3156","NA","NA","17777","26985","1435","2","legacy","1024","1","44100","-16","experiment","sfal","23","datteln","1","0","1","deutsch","english french","5","odd","koeln","6647050","NA","NA","NA","NA","NA","6424835","NA","6424836","6424836","6602000","6619781","6669093","6667588","6670529","6650208","6647046","NA","6444825","6577533","NA","6646830","NA","6647050","NA","6669092","6669092","NA","NA","6667584","NAP perception","5","9676","6","yes","1024"
"85.7142857143","yes","85.7142857143","1652.14285714","1652.14285714","white","no","xpyriment","I have read and understood the information shown above","legacy","legacy","0","uniform","1","0","NA","undefined","undefined","1","f","0","0","NA","NA","NA","NA","0","0","0","0","0","0","6","6","6","0","0","NA","0","0","0","0","NA","0","0","6","6","6","6","6","Wed Jun 28 16:53:56 2017","Forced-choice identification task with a practice and an experimental phase","yes","NAP-FC_GER_AA_ver-1.osexp","/Users/aviadalbert/Documents/Academisch/UoC/Dissertation/Experiment/OpenSesame/NAP-FC/NAP-FC_GER_AA/GER_AA_ver-1","yes","no","sans","no","20","no","black","no","Next","yes","768","legacy","6","6","0","/Users/aviadalbert/Documents/Academisch/UoC/Dissertation/Experiment/OpenSesame/NAP-FC/NAP-FC_GER_AA/GER_AA_ver-1/subject-5.csv","xpyriment","Jazzy James","3.1.6","yes","yes","59504085b83f69022b47a751","595041f76c613b022ae3ecdb","yes","no","0","f","f","NA","NA","return","return","f","1889","3156","NA","NA","17777","26985","1889","2","legacy","1024","1","44100","-16","experiment","zmal","23","datteln","1","0","1","deutsch","english french","5","odd","koeln","6647050","NA","NA","NA","NA","NA","6424835","NA","6424836","6424836","6602000","6619781","6672311","6670808","6674201","6650208","6647046","NA","6444825","6577533","NA","6646830","NA","6647050","NA","6672311","6672311","NA","NA","6670803","NAP perception","6","11565","7","yes","1024"
"87.5","yes","87.5","1567.875","1567.875","white","no","xpyriment","I have read and understood the information shown above","legacy","legacy","0","uniform","1","0","NA","undefined","undefined","1","j","0","0","NA","NA","NA","NA","0","0","0","0","0","0","7","7","7","0","0","NA","0","0","0","0","NA","0","0","7","7","7","7","7","Wed Jun 28 16:53:56 2017","Forced-choice identification task with a practice and an experimental phase","yes","NAP-FC_GER_AA_ver-1.osexp","/Users/aviadalbert/Documents/Academisch/UoC/Dissertation/Experiment/OpenSesame/NAP-FC/NAP-FC_GER_AA/GER_AA_ver-1","yes","no","sans","no","20","no","black","no","Next","yes","768","legacy","7","7","0","/Users/aviadalbert/Documents/Academisch/UoC/Dissertation/Experiment/OpenSesame/NAP-FC/NAP-FC_GER_AA/GER_AA_ver-1/subject-5.csv","xpyriment","Jazzy James","3.1.6","yes","yes","59504085b83f69022b47a751","595041f76c613b022ae3ecdb","yes","no","0","j","f","NA","NA","return","return","j","978","3156","NA","NA","17777","26985","978","2","legacy","1024","1","44100","-16","experiment","jeval","23","datteln","1","0","1","deutsch","english french","5","odd","koeln","6647050","NA","NA","NA","NA","NA","6424835","NA","6424836","6424836","6602000","6619781","6676001","6674495","6676980","6650208","6647046","NA","6444825","6577533","NA","6646830","NA","6647050","NA","6676001","6676001","NA","NA","6674491","NAP perception","7","12543","8","yes","1024"
"88.8888888889","yes","88.8888888889","1503.88888889","1503.88888889","white","no","xpyriment","I have read and understood the information shown above","legacy","legacy","0","uniform","1","0","NA","undefined","undefined","1","j","0","0","NA","NA","NA","NA","0","0","0","0","0","0","8","8","8","0","0","NA","0","0","0","0","NA","0","0","8","8","8","8","8","Wed Jun 28 16:53:56 2017","Forced-choice identification task with a practice and an experimental phase","yes","NAP-FC_GER_AA_ver-1.osexp","/Users/aviadalbert/Documents/Academisch/UoC/Dissertation/Experiment/OpenSesame/NAP-FC/NAP-FC_GER_AA/GER_AA_ver-1","yes","no","sans","no","20","no","black","no","Next","yes","768","legacy","8","8","0","/Users/aviadalbert/Documents/Academisch/UoC/Dissertation/Experiment/OpenSesame/NAP-FC/NAP-FC_GER_AA/GER_AA_ver-1/subject-5.csv","xpyriment","Jazzy James","3.1.6","yes","yes","59504085b83f69022b47a751","595041f76c613b022ae3ecdb","yes","no","0","j","f","NA","NA","return","return","j","992","3156","NA","NA","17777","26985","992","2","legacy","1024","1","44100","-16","experiment","enval","23","datteln","1","0","1","deutsch","english french","5","odd","koeln","6647050","NA","NA","NA","NA","NA","6424835","NA","6424836","6424836","6602000","6619781","6678776","6677271","6679770","6650208","6647046","NA","6444825","6577533","NA","6646830","NA","6647050","NA","6678776","6678776","NA","NA","6677267","NAP perception","8","13535","9","yes","1024"
"90","yes","90","1535.8","1535.8","white","no","xpyriment","I have read and understood the information shown above","legacy","legacy","0","uniform","1","0","NA","undefined","undefined","1","f","0","0","NA","NA","NA","NA","0","0","0","0","0","0","9","9","9","0","0","NA","0","0","0","0","NA","0","0","9","9","9","9","9","Wed Jun 28 16:53:56 2017","Forced-choice identification task with a practice and an experimental phase","yes","NAP-FC_GER_AA_ver-1.osexp","/Users/aviadalbert/Documents/Academisch/UoC/Dissertation/Experiment/OpenSesame/NAP-FC/NAP-FC_GER_AA/GER_AA_ver-1","yes","no","sans","no","20","no","black","no","Next","yes","768","legacy","9","9","0","/Users/aviadalbert/Documents/Academisch/UoC/Dissertation/Experiment/OpenSesame/NAP-FC/NAP-FC_GER_AA/GER_AA_ver-1/subject-5.csv","xpyriment","Jazzy James","3.1.6","yes","yes","59504085b83f69022b47a751","595041f76c613b022ae3ecdb","yes","no","0","f","f","NA","NA","return","return","f","1823","3156","NA","NA","17777","26985","1823","2","legacy","1024","1","44100","-16","experiment","vlal","23","datteln","1","0","1","deutsch","english french","5","odd","koeln","6647050","NA","NA","NA","NA","NA","6424835","NA","6424836","6424836","6602000","6619781","6681550","6680046","6683374","6650208","6647046","NA","6444825","6577533","NA","6646830","NA","6647050","NA","6681550","6681550","NA","NA","6680042","NAP perception","9","15358","10","yes","1024"
"100","yes","100","1374","1374","white","no","xpyriment","I have read and understood the information shown above","legacy","legacy","0","uniform","1","0","0","undefined","undefined","1","j","1","0","NA","0","0","0","0","0","0","0","0","0","10","10","10","0","0","0","0","0","1","0","0","0","1","10","10","10","10","10","Wed Jun 28 16:53:56 2017","Forced-choice identification task with a practice and an experimental phase","yes","NAP-FC_GER_AA_ver-1.osexp","/Users/aviadalbert/Documents/Academisch/UoC/Dissertation/Experiment/OpenSesame/NAP-FC/NAP-FC_GER_AA/GER_AA_ver-1","yes","no","sans","no","20","no","black","no","Next","yes","768","legacy","0","9","0","/Users/aviadalbert/Documents/Academisch/UoC/Dissertation/Experiment/OpenSesame/NAP-FC/NAP-FC_GER_AA/GER_AA_ver-1/subject-5.csv","xpyriment","Jazzy James","3.1.6","yes","yes","59504085b83f69022b47a751","595041f76c613b022ae3ecdb","no","no","0","j","f","space","NA","return","return","j","1374","1971","11303","NA","17777","26985","1374","2","legacy","1024","1","44100","-16","experiment","vezal","23","datteln","1","0","1","deutsch","english french","5","odd","koeln","6696712","6685120","NA","6698684","6696709","NA","6424835","6696486","6424836","6424836","6602000","6619781","6700398","6698894","6701773","6650208","6647046","6685119","6444825","6577533","6683444","6646830","6696712","6647050","NA","6700398","6700398","NA","NA","6698891","NAP perception","1","1374","1","yes","1024"
"100","yes","100","1178","1178","white","no","xpyriment","I have read and understood the information shown above","legacy","legacy","0","uniform","1","0","0","undefined","undefined","1","f","1","0","NA","0","0","0","0","0","0","0","0","0","11","11","11","0","0","0","0","0","1","0","0","0","1","11","11","11","11","11","Wed Jun 28 16:53:56 2017","Forced-choice identification task with a practice and an experimental phase","yes","NAP-FC_GER_AA_ver-1.osexp","/Users/aviadalbert/Documents/Academisch/UoC/Dissertation/Experiment/OpenSesame/NAP-FC/NAP-FC_GER_AA/GER_AA_ver-1","yes","no","sans","no","20","no","black","no","Next","yes","768","legacy","1","9","0","/Users/aviadalbert/Documents/Academisch/UoC/Dissertation/Experiment/OpenSesame/NAP-FC/NAP-FC_GER_AA/GER_AA_ver-1/subject-5.csv","xpyriment","Jazzy James","3.1.6","yes","yes","59504085b83f69022b47a751","595041f76c613b022ae3ecdb","no","no","0","f","f","space","NA","return","return","f","982","1971","11303","NA","17777","26985","982","2","legacy","1024","1","44100","-16","experiment","ʃfal","23","datteln","1","0","1","deutsch","english french","5","odd","koeln","6696712","6685120","NA","6698684","6696709","NA","6424835","6696486","6424836","6424836","6602000","6619781","6703553","6702050","6704536","6650208","6647046","6685119","6444825","6577533","6683444","6646830","6696712","6647050","NA","6703553","6703553","NA","NA","6702046","NAP perception","2","2356","2","yes","1024"
"100","yes","100","1555.66666667","1555.66666667","white","no","xpyriment","I have read and understood the information shown above","legacy","legacy","0","uniform","1","0","0","undefined","undefined","1","f","1","0","NA","0","0","0","0","0","0","0","0","0","12","12","12","0","0","0","0","0","1","0","0","0","1","12","12","12","12","12","Wed Jun 28 16:53:56 2017","Forced-choice identification task with a practice and an experimental phase","yes","NAP-FC_GER_AA_ver-1.osexp","/Users/aviadalbert/Documents/Academisch/UoC/Dissertation/Experiment/OpenSesame/NAP-FC/NAP-FC_GER_AA/GER_AA_ver-1","yes","no","sans","no","20","no","black","no","Next","yes","768","legacy","2","9","0","/Users/aviadalbert/Documents/Academisch/UoC/Dissertation/Experiment/OpenSesame/NAP-FC/NAP-FC_GER_AA/GER_AA_ver-1/subject-5.csv","xpyriment","Jazzy James","3.1.6","yes","yes","59504085b83f69022b47a751","595041f76c613b022ae3ecdb","no","no","0","f","f","space","NA","return","return","f","2311","1971","11303","NA","17777","26985","2311","2","legacy","1024","1","44100","-16","experiment","msal","23","datteln","1","0","1","deutsch","english french","5","odd","koeln","6696712","6685120","NA","6698684","6696709","NA","6424835","6696486","6424836","6424836","6602000","6619781","6706309","6704806","6708621","6650208","6647046","6685119","6444825","6577533","6683444","6646830","6696712","6647050","NA","6706309","6706309","NA","NA","6704801","NAP perception","3","4667","3","yes","1024"
"100","yes","100","1638","1638","white","no","xpyriment","I have read and understood the information shown above","legacy","legacy","0","uniform","1","0","0","undefined","undefined","1","j","1","0","NA","0","0","0","0","0","0","0","0","0","13","13","13","0","0","0","0","0","1","0","0","0","1","13","13","13","13","13","Wed Jun 28 16:53:56 2017","Forced-choice identification task with a practice and an experimental phase","yes","NAP-FC_GER_AA_ver-1.osexp","/Users/aviadalbert/Documents/Academisch/UoC/Dissertation/Experiment/OpenSesame/NAP-FC/NAP-FC_GER_AA/GER_AA_ver-1","yes","no","sans","no","20","no","black","no","Next","yes","768","legacy","3","9","0","/Users/aviadalbert/Documents/Academisch/UoC/Dissertation/Experiment/OpenSesame/NAP-FC/NAP-FC_GER_AA/GER_AA_ver-1/subject-5.csv","xpyriment","Jazzy James","3.1.6","yes","yes","59504085b83f69022b47a751","595041f76c613b022ae3ecdb","no","no","0","j","f","space","NA","return","return","j","1885","1971","11303","NA","17777","26985","1885","2","legacy","1024","1","44100","-16","experiment","zemal","23","datteln","1","0","1","deutsch","english french","5","odd","koeln","6696712","6685120","NA","6698684","6696709","NA","6424835","6696486","6424836","6424836","6602000","6619781","6710414","6708909","6712300","6650208","6647046","6685119","6444825","6577533","6683444","6646830","6696712","6647050","NA","6710414","6710414","NA","NA","6708904","NAP perception","4","6552","4","yes","1024"
"100","yes","100","1505.4","1505.4","white","no","xpyriment","I have read and understood the information shown above","legacy","legacy","0","uniform","1","0","0","undefined","undefined","1","j","1","0","NA","0","0","0","0","0","0","0","0","0","14","14","14","0","0","0","0","0","1","0","0","0","1","14","14","14","14","14","Wed Jun 28 16:53:56 2017","Forced-choice identification task with a practice and an experimental phase","yes","NAP-FC_GER_AA_ver-1.osexp","/Users/aviadalbert/Documents/Academisch/UoC/Dissertation/Experiment/OpenSesame/NAP-FC/NAP-FC_GER_AA/GER_AA_ver-1","yes","no","sans","no","20","no","black","no","Next","yes","768","legacy","4","9","0","/Users/aviadalbert/Documents/Academisch/UoC/Dissertation/Experiment/OpenSesame/NAP-FC/NAP-FC_GER_AA/GER_AA_ver-1/subject-5.csv","xpyriment","Jazzy James","3.1.6","yes","yes","59504085b83f69022b47a751","595041f76c613b022ae3ecdb","no","no","0","j","f","space","NA","return","return","j","975","1971","11303","NA","17777","26985","975","2","legacy","1024","1","44100","-16","experiment","ʃefal","23","datteln","1","0","1","deutsch","english french","5","odd","koeln","6696712","6685120","NA","6698684","6696709","NA","6424835","6696486","6424836","6424836","6602000","6619781","6714083","6712576","6715059","6650208","6647046","6685119","6444825","6577533","6683444","6646830","6696712","6647050","NA","6714083","6714083","NA","NA","6712572","NAP perception","5","7527","5","yes","1024"
"100","yes","100","1412.66666667","1412.66666667","white","no","xpyriment","I have read and understood the information shown above","legacy","legacy","0","uniform","1","0","0","undefined","undefined","1","f","1","0","NA","0","0","0","0","0","0","0","0","0","15","15","15","0","0","0","0","0","1","0","0","0","1","15","15","15","15","15","Wed Jun 28 16:53:56 2017","Forced-choice identification task with a practice and an experimental phase","yes","NAP-FC_GER_AA_ver-1.osexp","/Users/aviadalbert/Documents/Academisch/UoC/Dissertation/Experiment/OpenSesame/NAP-FC/NAP-FC_GER_AA/GER_AA_ver-1","yes","no","sans","no","20","no","black","no","Next","yes","768","legacy","5","9","0","/Users/aviadalbert/Documents/Academisch/UoC/Dissertation/Experiment/OpenSesame/NAP-FC/NAP-FC_GER_AA/GER_AA_ver-1/subject-5.csv","xpyriment","Jazzy James","3.1.6","yes","yes","59504085b83f69022b47a751","595041f76c613b022ae3ecdb","no","no","0","f","f","space","NA","return","return","f","949","1971","11303","NA","17777","26985","949","2","legacy","1024","1","44100","-16","experiment","ʃpal","23","datteln","1","0","1","deutsch","english french","5","odd","koeln","6696712","6685120","NA","6698684","6696709","NA","6424835","6696486","6424836","6424836","6602000","6619781","6716874","6715366","6717824","6650208","6647046","6685119","6444825","6577533","6683444","6646830","6696712","6647050","NA","6716873","6716873","NA","NA","6715362","NAP perception","6","8476","6","yes","1024"
"100","yes","100","1489.28571429","1489.28571429","white","no","xpyriment","I have read and understood the information shown above","legacy","legacy","0","uniform","1","0","0","undefined","undefined","1","j","1","0","NA","0","0","0","0","0","0","0","0","0","16","16","16","0","0","0","0","0","1","0","0","0","1","16","16","16","16","16","Wed Jun 28 16:53:56 2017","Forced-choice identification task with a practice and an experimental phase","yes","NAP-FC_GER_AA_ver-1.osexp","/Users/aviadalbert/Documents/Academisch/UoC/Dissertation/Experiment/OpenSesame/NAP-FC/NAP-FC_GER_AA/GER_AA_ver-1","yes","no","sans","no","20","no","black","no","Next","yes","768","legacy","6","9","0","/Users/aviadalbert/Documents/Academisch/UoC/Dissertation/Experiment/OpenSesame/NAP-FC/NAP-FC_GER_AA/GER_AA_ver-1/subject-5.csv","xpyriment","Jazzy James","3.1.6","yes","yes","59504085b83f69022b47a751","595041f76c613b022ae3ecdb","no","no","0","j","f","space","NA","return","return","j","1949","1971","11303","NA","17777","26985","1949","2","legacy","1024","1","44100","-16","experiment","nepal","23","datteln","1","0","1","deutsch","english french","5","odd","koeln","6696712","6685120","NA","6698684","6696709","NA","6424835","6696486","6424836","6424836","6602000","6619781","6719592","6718088","6721543","6650208","6647046","6685119","6444825","6577533","6683444","6646830","6696712","6647050","NA","6719592","6719592","NA","NA","6718084","NAP perception","7","10425","7","yes","1024"
"100","yes","100","1496.375","1496.375","white","no","xpyriment","I have read and understood the information shown above","legacy","legacy","0","uniform","1","0","0","undefined","undefined","1","f","1","0","NA","0","0","0","0","0","0","0","0","0","17","17","17","0","0","0","0","0","1","0","0","0","1","17","17","17","17","17","Wed Jun 28 16:53:56 2017","Forced-choice identification task with a practice and an experimental phase","yes","NAP-FC_GER_AA_ver-1.osexp","/Users/aviadalbert/Documents/Academisch/UoC/Dissertation/Experiment/OpenSesame/NAP-FC/NAP-FC_GER_AA/GER_AA_ver-1","yes","no","sans","no","20","no","black","no","Next","yes","768","legacy","7","9","0","/Users/aviadalbert/Documents/Academisch/UoC/Dissertation/Experiment/OpenSesame/NAP-FC/NAP-FC_GER_AA/GER_AA_ver-1/subject-5.csv","xpyriment","Jazzy James","3.1.6","yes","yes","59504085b83f69022b47a751","595041f76c613b022ae3ecdb","no","no","0","f","f","space","NA","return","return","f","1546","1971","11303","NA","17777","26985","1546","2","legacy","1024","1","44100","-16","experiment","flal","23","datteln","1","0","1","deutsch","english french","5","odd","koeln","6696712","6685120","NA","6698684","6696709","NA","6424835","6696486","6424836","6424836","6602000","6619781","6723318","6721814","6724866","6650208","6647046","6685119","6444825","6577533","6683444","6646830","6696712","6647050","NA","6723318","6723318","NA","NA","6721810","NAP perception","8","11971","8","yes","1024"
"100","yes","100","1438.88888889","1438.88888889","white","no","xpyriment","I have read and understood the information shown above","legacy","legacy","0","uniform","1","0","0","undefined","undefined","1","j","1","0","NA","0","0","0","0","0","0","0","0","0","18","18","18","0","0","0","0","0","1","0","0","0","1","18","18","18","18","18","Wed Jun 28 16:53:56 2017","Forced-choice identification task with a practice and an experimental phase","yes","NAP-FC_GER_AA_ver-1.osexp","/Users/aviadalbert/Documents/Academisch/UoC/Dissertation/Experiment/OpenSesame/NAP-FC/NAP-FC_GER_AA/GER_AA_ver-1","yes","no","sans","no","20","no","black","no","Next","yes","768","legacy","8","9","0","/Users/aviadalbert/Documents/Academisch/UoC/Dissertation/Experiment/OpenSesame/NAP-FC/NAP-FC_GER_AA/GER_AA_ver-1/subject-5.csv","xpyriment","Jazzy James","3.1.6","yes","yes","59504085b83f69022b47a751","595041f76c613b022ae3ecdb","no","no","0","j","f","space","NA","return","return","j","979","1971","11303","NA","17777","26985","979","2","legacy","1024","1","44100","-16","experiment","mesal","23","datteln","1","0","1","deutsch","english french","5","odd","koeln","6696712","6685120","NA","6698684","6696709","NA","6424835","6696486","6424836","6424836","6602000","6619781","6726651","6725147","6727632","6650208","6647046","6685119","6444825","6577533","6683444","6646830","6696712","6647050","NA","6726650","6726651","NA","NA","6725143","NAP perception","9","12950","9","yes","1024"
"100","yes","100","1413.2","1413.2","white","no","xpyriment","I have read and understood the information shown above","legacy","legacy","0","uniform","1","0","0","undefined","undefined","1","f","1","0","NA","0","0","0","0","0","0","0","0","0","19","19","19","0","0","0","0","0","1","0","0","0","1","19","19","19","19","19","Wed Jun 28 16:53:56 2017","Forced-choice identification task with a practice and an experimental phase","yes","NAP-FC_GER_AA_ver-1.osexp","/Users/aviadalbert/Documents/Academisch/UoC/Dissertation/Experiment/OpenSesame/NAP-FC/NAP-FC_GER_AA/GER_AA_ver-1","yes","no","sans","no","20","no","black","no","Next","yes","768","legacy","9","9","0","/Users/aviadalbert/Documents/Academisch/UoC/Dissertation/Experiment/OpenSesame/NAP-FC/NAP-FC_GER_AA/GER_AA_ver-1/subject-5.csv","xpyriment","Jazzy James","3.1.6","yes","yes","59504085b83f69022b47a751","595041f76c613b022ae3ecdb","no","no","0","f","f","space","NA","return","return","f","1182","1971","11303","NA","17777","26985","1182","2","legacy","1024","1","44100","-16","experiment","fsal","23","datteln","1","0","1","deutsch","english french","5","odd","koeln","6696712","6685120","NA","6698684","6696709","NA","6424835","6696486","6424836","6424836","6602000","6619781","6729411","6727908","6730595","6650208","6647046","6685119","6444825","6577533","6683444","6646830","6696712","6647050","NA","6729411","6729411","NA","NA","6727904","NAP perception","10","14132","10","yes","1024"
"100","yes","100","1399","1399","white","no","xpyriment","I have read and understood the information shown above","legacy","legacy","0","uniform","1","0","0","undefined","undefined","1","f","1","0","NA","0","0","0","0","0","0","0","0","0","20","20","20","0","0","0","0","0","1","0","0","0","1","20","20","20","20","20","Wed Jun 28 16:53:56 2017","Forced-choice identification task with a practice and an experimental phase","yes","NAP-FC_GER_AA_ver-1.osexp","/Users/aviadalbert/Documents/Academisch/UoC/Dissertation/Experiment/OpenSesame/NAP-FC/NAP-FC_GER_AA/GER_AA_ver-1","yes","no","sans","no","20","no","black","no","Next","yes","768","legacy","10","9","0","/Users/aviadalbert/Documents/Academisch/UoC/Dissertation/Experiment/OpenSesame/NAP-FC/NAP-FC_GER_AA/GER_AA_ver-1/subject-5.csv","xpyriment","Jazzy James","3.1.6","yes","yes","59504085b83f69022b47a751","595041f76c613b022ae3ecdb","no","no","0","f","f","space","NA","return","return","f","1257","1971","11303","NA","17777","26985","1257","2","legacy","1024","1","44100","-16","experiment","smal","23","datteln","1","0","1","deutsch","english french","5","odd","koeln","6696712","6685120","NA","6698684","6696709","NA","6424835","6696486","6424836","6424836","6602000","6619781","6732386","6730883","6733645","6650208","6647046","6685119","6444825","6577533","6683444","6646830","6696712","6647050","NA","6732386","6732386","NA","NA","6730879","NAP perception","11","15389","11","yes","1024"
"91.6666666667","yes","91.6666666667","1413","1413","white","no","xpyriment","I have read and understood the information shown above","legacy","legacy","0","uniform","0","0","0","undefined","undefined","0","f","1","0","NA","0","0","0","0","0","0","0","0","0","21","21","21","0","0","0","0","0","1","0","0","0","1","21","21","21","21","21","Wed Jun 28 16:53:56 2017","Forced-choice identification task with a practice and an experimental phase","yes","NAP-FC_GER_AA_ver-1.osexp","/Users/aviadalbert/Documents/Academisch/UoC/Dissertation/Experiment/OpenSesame/NAP-FC/NAP-FC_GER_AA/GER_AA_ver-1","yes","no","sans","no","20","no","black","no","Next","yes","768","legacy","11","9","0","/Users/aviadalbert/Documents/Academisch/UoC/Dissertation/Experiment/OpenSesame/NAP-FC/NAP-FC_GER_AA/GER_AA_ver-1/subject-5.csv","xpyriment","Jazzy James","3.1.6","yes","yes","59504085b83f69022b47a751","595041f76c613b022ae3ecdb","no","no","0","j","f","space","NA","return","return","j","1567","1971","11303","NA","17777","26985","1567","2","legacy","1024","1","44100","-16","experiment","wnal","23","datteln","1","0","1","deutsch","english french","5","odd","koeln","6696712","6685120","NA","6698684","6696709","NA","6424835","6696486","6424836","6424836","6602000","6619781","6735424","6733918","6736993","6650208","6647046","6685119","6444825","6577533","6683444","6646830","6696712","6647050","NA","6735424","6735424","NA","NA","6733914","NAP perception","11","16956","12","yes","1024"
"84.6153846154","yes","84.6153846154","1394.53846154","1394.53846154","white","no","xpyriment","I have read and understood the information shown above","legacy","legacy","0","uniform","0","0","0","undefined","undefined","0","f","1","0","NA","0","0","0","0","0","0","0","0","0","22","22","22","0","0","0","0","0","1","0","0","0","1","22","22","22","22","22","Wed Jun 28 16:53:56 2017","Forced-choice identification task with a practice and an experimental phase","yes","NAP-FC_GER_AA_ver-1.osexp","/Users/aviadalbert/Documents/Academisch/UoC/Dissertation/Experiment/OpenSesame/NAP-FC/NAP-FC_GER_AA/GER_AA_ver-1","yes","no","sans","no","20","no","black","no","Next","yes","768","legacy","12","9","0","/Users/aviadalbert/Documents/Academisch/UoC/Dissertation/Experiment/OpenSesame/NAP-FC/NAP-FC_GER_AA/GER_AA_ver-1/subject-5.csv","xpyriment","Jazzy James","3.1.6","yes","yes","59504085b83f69022b47a751","595041f76c613b022ae3ecdb","no","no","0","j","f","space","NA","return","return","j","1173","1971","11303","NA","17777","26985","1173","2","legacy","1024","1","44100","-16","experiment","wzal","23","datteln","1","0","1","deutsch","english french","5","odd","koeln","6696712","6685120","NA","6698684","6696709","NA","6424835","6696486","6424836","6424836","6602000","6619781","6738776","6737270","6739951","6650208","6647046","6685119","6444825","6577533","6683444","6646830","6696712","6647050","NA","6738775","6738776","NA","NA","6737266","NAP perception","11","18129","13","yes","1024"
"85.7142857143","yes","85.7142857143","1412.14285714","1412.14285714","white","no","xpyriment","I have read and understood the information shown above","legacy","legacy","0","uniform","1","0","0","undefined","undefined","1","j","1","0","NA","0","0","0","0","0","0","0","0","0","23","23","23","0","0","0","0","0","1","0","0","0","1","23","23","23","23","23","Wed Jun 28 16:53:56 2017","Forced-choice identification task with a practice and an experimental phase","yes","NAP-FC_GER_AA_ver-1.osexp","/Users/aviadalbert/Documents/Academisch/UoC/Dissertation/Experiment/OpenSesame/NAP-FC/NAP-FC_GER_AA/GER_AA_ver-1","yes","no","sans","no","20","no","black","no","Next","yes","768","legacy","13","9","0","/Users/aviadalbert/Documents/Academisch/UoC/Dissertation/Experiment/OpenSesame/NAP-FC/NAP-FC_GER_AA/GER_AA_ver-1/subject-5.csv","xpyriment","Jazzy James","3.1.6","yes","yes","59504085b83f69022b47a751","595041f76c613b022ae3ecdb","no","no","0","j","f","space","NA","return","return","j","1641","1971","11303","NA","17777","26985","1641","2","legacy","1024","1","44100","-16","experiment","evnal","23","datteln","1","0","1","deutsch","english french","5","odd","koeln","6696712","6685120","NA","6698684","6696709","NA","6424835","6696486","6424836","6424836","6602000","6619781","6741740","6740232","6743383","6650208","6647046","6685119","6444825","6577533","6683444","6646830","6696712","6647050","NA","6741740","6741740","NA","NA","6740228","NAP perception","12","19770","14","yes","1024"
"86.6666666667","yes","86.6666666667","1412.33333333","1412.33333333","white","no","xpyriment","I have read and understood the information shown above","legacy","legacy","0","uniform","1","0","0","undefined","undefined","1","j","1","0","NA","0","0","0","0","0","0","0","0","0","24","24","24","0","0","0","0","0","1","0","0","0","1","24","24","24","24","24","Wed Jun 28 16:53:56 2017","Forced-choice identification task with a practice and an experimental phase","yes","NAP-FC_GER_AA_ver-1.osexp","/Users/aviadalbert/Documents/Academisch/UoC/Dissertation/Experiment/OpenSesame/NAP-FC/NAP-FC_GER_AA/GER_AA_ver-1","yes","no","sans","no","20","no","black","no","Next","yes","768","legacy","14","9","0","/Users/aviadalbert/Documents/Academisch/UoC/Dissertation/Experiment/OpenSesame/NAP-FC/NAP-FC_GER_AA/GER_AA_ver-1/subject-5.csv","xpyriment","Jazzy James","3.1.6","yes","yes","59504085b83f69022b47a751","595041f76c613b022ae3ecdb","no","no","0","j","f","space","NA","return","return","j","1415","1971","11303","NA","17777","26985","1415","2","legacy","1024","1","44100","-16","experiment","enmal","23","datteln","1","0","1","deutsch","english french","5","odd","koeln","6696712","6685120","NA","6698684","6696709","NA","6424835","6696486","6424836","6424836","6602000","6619781","6745177","6743671","6746593","6650208","6647046","6685119","6444825","6577533","6683444","6646830","6696712","6647050","NA","6745176","6745176","NA","NA","6743667","NAP perception","13","21185","15","yes","1024"
"81.25","yes","81.25","1397.1875","1397.1875","white","no","xpyriment","I have read and understood the information shown above","legacy","legacy","0","uniform","0","0","0","undefined","undefined","0","j","1","0","NA","0","0","0","0","0","0","0","0","0","25","25","25","0","0","0","0","0","1","0","0","0","1","25","25","25","25","25","Wed Jun 28 16:53:56 2017","Forced-choice identification task with a practice and an experimental phase","yes","NAP-FC_GER_AA_ver-1.osexp","/Users/aviadalbert/Documents/Academisch/UoC/Dissertation/Experiment/OpenSesame/NAP-FC/NAP-FC_GER_AA/GER_AA_ver-1","yes","no","sans","no","20","no","black","no","Next","yes","768","legacy","15","9","0","/Users/aviadalbert/Documents/Academisch/UoC/Dissertation/Experiment/OpenSesame/NAP-FC/NAP-FC_GER_AA/GER_AA_ver-1/subject-5.csv","xpyriment","Jazzy James","3.1.6","yes","yes","59504085b83f69022b47a751","595041f76c613b022ae3ecdb","no","no","0","f","f","space","NA","return","return","f","1170","1971","11303","NA","17777","26985","1170","2","legacy","1024","1","44100","-16","experiment","eʃpal","23","datteln","1","0","1","deutsch","english french","5","odd","koeln","6696712","6685120","NA","6698684","6696709","NA","6424835","6696486","6424836","6424836","6602000","6619781","6748370","6746867","6749542","6650208","6647046","6685119","6444825","6577533","6683444","6646830","6696712","6647050","NA","6748370","6748370","NA","NA","6746862","NAP perception","13","22355","16","yes","1024"
"82.3529411765","yes","82.3529411765","1381.70588235","1381.70588235","white","no","xpyriment","I have read and understood the information shown above","legacy","legacy","0","uniform","1","0","0","undefined","undefined","1","j","1","0","NA","0","0","0","0","0","0","0","0","0","26","26","26","0","0","0","0","0","1","0","0","0","1","26","26","26","26","26","Wed Jun 28 16:53:56 2017","Forced-choice identification task with a practice and an experimental phase","yes","NAP-FC_GER_AA_ver-1.osexp","/Users/aviadalbert/Documents/Academisch/UoC/Dissertation/Experiment/OpenSesame/NAP-FC/NAP-FC_GER_AA/GER_AA_ver-1","yes","no","sans","no","20","no","black","no","Next","yes","768","legacy","16","9","0","/Users/aviadalbert/Documents/Academisch/UoC/Dissertation/Experiment/OpenSesame/NAP-FC/NAP-FC_GER_AA/GER_AA_ver-1/subject-5.csv","xpyriment","Jazzy James","3.1.6","yes","yes","59504085b83f69022b47a751","595041f76c613b022ae3ecdb","no","no","0","j","f","space","NA","return","return","j","1134","1971","11303","NA","17777","26985","1134","2","legacy","1024","1","44100","-16","experiment","wezal","23","datteln","1","0","1","deutsch","english french","5","odd","koeln","6696712","6685120","NA","6698684","6696709","NA","6424835","6696486","6424836","6424836","6602000","6619781","6751319","6749814","6752455","6650208","6647046","6685119","6444825","6577533","6683444","6646830","6696712","6647050","NA","6751318","6751318","NA","NA","6749810","NAP perception","14","23489","17","yes","1024"
"83.3333333333","yes","83.3333333333","1379.38888889","1379.38888889","white","no","xpyriment","I have read and understood the information shown above","legacy","legacy","0","uniform","1","0","0","undefined","undefined","1","j","1","0","NA","0","0","0","0","0","0","0","0","0","27","27","27","0","0","0","0","0","1","0","0","0","1","27","27","27","27","27","Wed Jun 28 16:53:56 2017","Forced-choice identification task with a practice and an experimental phase","yes","NAP-FC_GER_AA_ver-1.osexp","/Users/aviadalbert/Documents/Academisch/UoC/Dissertation/Experiment/OpenSesame/NAP-FC/NAP-FC_GER_AA/GER_AA_ver-1","yes","no","sans","no","20","no","black","no","Next","yes","768","legacy","17","9","0","/Users/aviadalbert/Documents/Academisch/UoC/Dissertation/Experiment/OpenSesame/NAP-FC/NAP-FC_GER_AA/GER_AA_ver-1/subject-5.csv","xpyriment","Jazzy James","3.1.6","yes","yes","59504085b83f69022b47a751","595041f76c613b022ae3ecdb","no","no","0","j","f","space","NA","return","return","j","1340","1971","11303","NA","17777","26985","1340","2","legacy","1024","1","44100","-16","experiment","wesal","23","datteln","1","0","1","deutsch","english french","5","odd","koeln","6696712","6685120","NA","6698684","6696709","NA","6424835","6696486","6424836","6424836","6602000","6619781","6754247","6752744","6755589","6650208","6647046","6685119","6444825","6577533","6683444","6646830","6696712","6647050","NA","6754247","6754247","NA","NA","6752740","NAP perception","15","24829","18","yes","1024"
"84.2105263158","yes","84.2105263158","1362.89473684","1362.89473684","white","no","xpyriment","I have read and understood the information shown above","legacy","legacy","0","uniform","1","0","0","undefined","undefined","1","j","1","0","NA","0","0","0","0","0","0","0","0","0","28","28","28","0","0","0","0","0","1","0","0","0","1","28","28","28","28","28","Wed Jun 28 16:53:56 2017","Forced-choice identification task with a practice and an experimental phase","yes","NAP-FC_GER_AA_ver-1.osexp","/Users/aviadalbert/Documents/Academisch/UoC/Dissertation/Experiment/OpenSesame/NAP-FC/NAP-FC_GER_AA/GER_AA_ver-1","yes","no","sans","no","20","no","black","no","Next","yes","768","legacy","18","9","0","/Users/aviadalbert/Documents/Academisch/UoC/Dissertation/Experiment/OpenSesame/NAP-FC/NAP-FC_GER_AA/GER_AA_ver-1/subject-5.csv","xpyriment","Jazzy James","3.1.6","yes","yes","59504085b83f69022b47a751","595041f76c613b022ae3ecdb","no","no","0","j","f","space","NA","return","return","j","1066","1971","11303","NA","17777","26985","1066","2","legacy","1024","1","44100","-16","experiment","enfal","23","datteln","1","0","1","deutsch","english french","5","odd","koeln","6696712","6685120","NA","6698684","6696709","NA","6424835","6696486","6424836","6424836","6602000","6619781","6757372","6755868","6758440","6650208","6647046","6685119","6444825","6577533","6683444","6646830","6696712","6647050","NA","6757372","6757372","NA","NA","6755864","NAP perception","16","25895","19","yes","1024"
"85","yes","85","1370.05","1370.05","white","no","xpyriment","I have read and understood the information shown above","legacy","legacy","0","uniform","1","0","0","undefined","undefined","1","f","1","0","NA","0","0","0","0","0","0","0","0","0","29","29","29","0","0","0","0","0","1","0","0","0","1","29","29","29","29","29","Wed Jun 28 16:53:56 2017","Forced-choice identification task with a practice and an experimental phase","yes","NAP-FC_GER_AA_ver-1.osexp","/Users/aviadalbert/Documents/Academisch/UoC/Dissertation/Experiment/OpenSesame/NAP-FC/NAP-FC_GER_AA/GER_AA_ver-1","yes","no","sans","no","20","no","black","no","Next","yes","768","legacy","19","9","0","/Users/aviadalbert/Documents/Academisch/UoC/Dissertation/Experiment/OpenSesame/NAP-FC/NAP-FC_GER_AA/GER_AA_ver-1/subject-5.csv","xpyriment","Jazzy James","3.1.6","yes","yes","59504085b83f69022b47a751","595041f76c613b022ae3ecdb","no","no","0","f","f","space","NA","return","return","f","1506","1971","11303","NA","17777","26985","1506","2","legacy","1024","1","44100","-16","experiment","zmal","23","datteln","1","0","1","deutsch","english french","5","odd","koeln","6696712","6685120","NA","6698684","6696709","NA","6424835","6696486","6424836","6424836","6602000","6619781","6760225","6758721","6761732","6650208","6647046","6685119","6444825","6577533","6683444","6646830","6696712","6647050","NA","6760224","6760224","NA","NA","6758717","NAP perception","17","27401","20","yes","1024"
"85.7142857143","yes","85.7142857143","1378.47619048","1378.47619048","white","no","xpyriment","I have read and understood the information shown above","legacy","legacy","0","uniform","1","0","0","undefined","undefined","1","f","1","0","NA","0","0","0","0","0","0","0","0","0","30","30","30","0","0","0","0","0","1","0","0","0","1","30","30","30","30","30","Wed Jun 28 16:53:56 2017","Forced-choice identification task with a practice and an experimental phase","yes","NAP-FC_GER_AA_ver-1.osexp","/Users/aviadalbert/Documents/Academisch/UoC/Dissertation/Experiment/OpenSesame/NAP-FC/NAP-FC_GER_AA/GER_AA_ver-1","yes","no","sans","no","20","no","black","no","Next","yes","768","legacy","20","9","0","/Users/aviadalbert/Documents/Academisch/UoC/Dissertation/Experiment/OpenSesame/NAP-FC/NAP-FC_GER_AA/GER_AA_ver-1/subject-5.csv","xpyriment","Jazzy James","3.1.6","yes","yes","59504085b83f69022b47a751","595041f76c613b022ae3ecdb","no","no","0","f","f","space","NA","return","return","f","1547","1971","11303","NA","17777","26985","1547","2","legacy","1024","1","44100","-16","experiment","mzal","23","datteln","1","0","1","deutsch","english french","5","odd","koeln","6696712","6685120","NA","6698684","6696709","NA","6424835","6696486","6424836","6424836","6602000","6619781","6763512","6762008","6765060","6650208","6647046","6685119","6444825","6577533","6683444","6646830","6696712","6647050","NA","6763512","6763512","NA","NA","6762004","NAP perception","18","28948","21","yes","1024"
"86.3636363636","yes","86.3636363636","1363.22727273","1363.22727273","white","no","xpyriment","I have read and understood the information shown above","legacy","legacy","0","uniform","1","0","0","undefined","undefined","1","j","1","0","NA","0","0","0","0","0","0","0","0","0","31","31","31","0","0","0","0","0","1","0","0","0","1","31","31","31","31","31","Wed Jun 28 16:53:56 2017","Forced-choice identification task with a practice and an experimental phase","yes","NAP-FC_GER_AA_ver-1.osexp","/Users/aviadalbert/Documents/Academisch/UoC/Dissertation/Experiment/OpenSesame/NAP-FC/NAP-FC_GER_AA/GER_AA_ver-1","yes","no","sans","no","20","no","black","no","Next","yes","768","legacy","21","9","0","/Users/aviadalbert/Documents/Academisch/UoC/Dissertation/Experiment/OpenSesame/NAP-FC/NAP-FC_GER_AA/GER_AA_ver-1/subject-5.csv","xpyriment","Jazzy James","3.1.6","yes","yes","59504085b83f69022b47a751","595041f76c613b022ae3ecdb","no","no","0","j","f","space","NA","return","return","j","1043","1971","11303","NA","17777","26985","1043","2","legacy","1024","1","44100","-16","experiment","sepal","23","datteln","1","0","1","deutsch","english french","5","odd","koeln","6696712","6685120","NA","6698684","6696709","NA","6424835","6696486","6424836","6424836","6602000","6619781","6766836","6765331","6767881","6650208","6647046","6685119","6444825","6577533","6683444","6646830","6696712","6647050","NA","6766835","6766836","NA","NA","6765327","NAP perception","19","29991","22","yes","1024"
"86.9565217391","yes","86.9565217391","1353.26086957","1353.26086957","white","no","xpyriment","I have read and understood the information shown above","legacy","legacy","0","uniform","1","0","0","undefined","undefined","1","f","1","0","NA","0","0","0","0","0","0","0","0","0","32","32","32","0","0","0","0","0","1","0","0","0","1","32","32","32","32","32","Wed Jun 28 16:53:56 2017","Forced-choice identification task with a practice and an experimental phase","yes","NAP-FC_GER_AA_ver-1.osexp","/Users/aviadalbert/Documents/Academisch/UoC/Dissertation/Experiment/OpenSesame/NAP-FC/NAP-FC_GER_AA/GER_AA_ver-1","yes","no","sans","no","20","no","black","no","Next","yes","768","legacy","22","9","0","/Users/aviadalbert/Documents/Academisch/UoC/Dissertation/Experiment/OpenSesame/NAP-FC/NAP-FC_GER_AA/GER_AA_ver-1/subject-5.csv","xpyriment","Jazzy James","3.1.6","yes","yes","59504085b83f69022b47a751","595041f76c613b022ae3ecdb","no","no","0","f","f","space","NA","return","return","f","1134","1971","11303","NA","17777","26985","1134","2","legacy","1024","1","44100","-16","experiment","ʃmal","23","datteln","1","0","1","deutsch","english french","5","odd","koeln","6696712","6685120","NA","6698684","6696709","NA","6424835","6696486","6424836","6424836","6602000","6619781","6769666","6768162","6770801","6650208","6647046","6685119","6444825","6577533","6683444","6646830","6696712","6647050","NA","6769665","6769666","NA","NA","6768158","NAP perception","20","31125","23","yes","1024"
"83.3333333333","yes","83.3333333333","1374.20833333","1374.20833333","white","no","xpyriment","I have read and understood the information shown above","legacy","legacy","0","uniform","0","0","0","undefined","undefined","0","f","1","0","NA","0","0","0","0","0","0","0","0","0","33","33","33","0","0","0","0","0","1","0","0","0","1","33","33","33","33","33","Wed Jun 28 16:53:56 2017","Forced-choice identification task with a practice and an experimental phase","yes","NAP-FC_GER_AA_ver-1.osexp","/Users/aviadalbert/Documents/Academisch/UoC/Dissertation/Experiment/OpenSesame/NAP-FC/NAP-FC_GER_AA/GER_AA_ver-1","yes","no","sans","no","20","no","black","no","Next","yes","768","legacy","23","9","0","/Users/aviadalbert/Documents/Academisch/UoC/Dissertation/Experiment/OpenSesame/NAP-FC/NAP-FC_GER_AA/GER_AA_ver-1/subject-5.csv","xpyriment","Jazzy James","3.1.6","yes","yes","59504085b83f69022b47a751","595041f76c613b022ae3ecdb","no","no","0","j","f","space","NA","return","return","j","1856","1971","11303","NA","17777","26985","1856","2","legacy","1024","1","44100","-16","experiment","nval","23","datteln","1","0","1","deutsch","english french","5","odd","koeln","6696712","6685120","NA","6698684","6696709","NA","6424835","6696486","6424836","6424836","6602000","6619781","6772572","6771066","6774430","6650208","6647046","6685119","6444825","6577533","6683444","6646830","6696712","6647050","NA","6772572","6772572","NA","NA","6771062","NAP perception","20","32981","24","yes","1024"
"84","yes","84","1364.72","1364.72","white","no","xpyriment","I have read and understood the information shown above","legacy","legacy","0","uniform","1","0","0","undefined","undefined","1","j","1","0","NA","0","0","0","0","0","0","0","0","0","34","34","34","0","0","0","0","0","1","0","0","0","1","34","34","34","34","34","Wed Jun 28 16:53:56 2017","Forced-choice identification task with a practice and an experimental phase","yes","NAP-FC_GER_AA_ver-1.osexp","/Users/aviadalbert/Documents/Academisch/UoC/Dissertation/Experiment/OpenSesame/NAP-FC/NAP-FC_GER_AA/GER_AA_ver-1","yes","no","sans","no","20","no","black","no","Next","yes","768","legacy","24","9","0","/Users/aviadalbert/Documents/Academisch/UoC/Dissertation/Experiment/OpenSesame/NAP-FC/NAP-FC_GER_AA/GER_AA_ver-1/subject-5.csv","xpyriment","Jazzy James","3.1.6","yes","yes","59504085b83f69022b47a751","595041f76c613b022ae3ecdb","no","no","0","j","f","space","NA","return","return","j","1137","1971","11303","NA","17777","26985","1137","2","legacy","1024","1","44100","-16","experiment","welal","23","datteln","1","0","1","deutsch","english french","5","odd","koeln","6696712","6685120","NA","6698684","6696709","NA","6424835","6696486","6424836","6424836","6602000","6619781","6776214","6774710","6777352","6650208","6647046","6685119","6444825","6577533","6683444","6646830","6696712","6647050","NA","6776213","6776213","NA","NA","6774706","NAP perception","21","34118","25","yes","1024"
"84.6153846154","yes","84.6153846154","1409.92307692","1409.92307692","white","no","xpyriment","I have read and understood the information shown above","legacy","legacy","0","uniform","1","0","0","undefined","undefined","1","j","1","0","NA","0","0","0","0","0","0","0","0","0","35","35","35","0","0","0","0","0","1","0","0","0","1","35","35","35","35","35","Wed Jun 28 16:53:56 2017","Forced-choice identification task with a practice and an experimental phase","yes","NAP-FC_GER_AA_ver-1.osexp","/Users/aviadalbert/Documents/Academisch/UoC/Dissertation/Experiment/OpenSesame/NAP-FC/NAP-FC_GER_AA/GER_AA_ver-1","yes","no","sans","no","20","no","black","no","Next","yes","768","legacy","25","9","0","/Users/aviadalbert/Documents/Academisch/UoC/Dissertation/Experiment/OpenSesame/NAP-FC/NAP-FC_GER_AA/GER_AA_ver-1/subject-5.csv","xpyriment","Jazzy James","3.1.6","yes","yes","59504085b83f69022b47a751","595041f76c613b022ae3ecdb","no","no","0","j","f","space","NA","return","return","j","2540","1971","11303","NA","17777","26985","2540","2","legacy","1024","1","44100","-16","experiment","fesal","23","datteln","1","0","1","deutsch","english french","5","odd","koeln","6696712","6685120","NA","6698684","6696709","NA","6424835","6696486","6424836","6424836","6602000","6619781","6779126","6777623","6781668","6650208","6647046","6685119","6444825","6577533","6683444","6646830","6696712","6647050","NA","6779126","6779126","NA","NA","6777619","NAP perception","22","36658","26","yes","1024"
"85.1851851852","yes","85.1851851852","1454.48148148","1454.48148148","white","no","xpyriment","I have read and understood the information shown above","legacy","legacy","0","uniform","1","0","0","undefined","undefined","1","j","1","0","NA","0","0","0","0","0","0","0","0","0","36","36","36","0","0","0","0","0","1","0","0","0","1","36","36","36","36","36","Wed Jun 28 16:53:56 2017","Forced-choice identification task with a practice and an experimental phase","yes","NAP-FC_GER_AA_ver-1.osexp","/Users/aviadalbert/Documents/Academisch/UoC/Dissertation/Experiment/OpenSesame/NAP-FC/NAP-FC_GER_AA/GER_AA_ver-1","yes","no","sans","no","20","no","black","no","Next","yes","768","legacy","26","9","0","/Users/aviadalbert/Documents/Academisch/UoC/Dissertation/Experiment/OpenSesame/NAP-FC/NAP-FC_GER_AA/GER_AA_ver-1/subject-5.csv","xpyriment","Jazzy James","3.1.6","yes","yes","59504085b83f69022b47a751","595041f76c613b022ae3ecdb","no","no","0","j","f","space","NA","return","return","j","2613","1971","11303","NA","17777","26985","2613","2","legacy","1024","1","44100","-16","experiment","wetal","23","datteln","1","0","1","deutsch","english french","5","odd","koeln","6696712","6685120","NA","6698684","6696709","NA","6424835","6696486","6424836","6424836","6602000","6619781","6783436","6781933","6786050","6650208","6647046","6685119","6444825","6577533","6683444","6646830","6696712","6647050","NA","6783436","6783436","NA","NA","6781929","NAP perception","23","39271","27","yes","1024"
"82.1428571429","yes","82.1428571429","1451.35714286","1451.35714286","white","no","xpyriment","I have read and understood the information shown above","legacy","legacy","0","uniform","0","0","0","undefined","undefined","0","f","1","0","NA","0","0","0","0","0","0","0","0","0","37","37","37","0","0","0","0","0","1","0","0","0","1","37","37","37","37","37","Wed Jun 28 16:53:56 2017","Forced-choice identification task with a practice and an experimental phase","yes","NAP-FC_GER_AA_ver-1.osexp","/Users/aviadalbert/Documents/Academisch/UoC/Dissertation/Experiment/OpenSesame/NAP-FC/NAP-FC_GER_AA/GER_AA_ver-1","yes","no","sans","no","20","no","black","no","Next","yes","768","legacy","27","9","0","/Users/aviadalbert/Documents/Academisch/UoC/Dissertation/Experiment/OpenSesame/NAP-FC/NAP-FC_GER_AA/GER_AA_ver-1/subject-5.csv","xpyriment","Jazzy James","3.1.6","yes","yes","59504085b83f69022b47a751","595041f76c613b022ae3ecdb","no","no","0","j","f","space","NA","return","return","j","1367","1971","11303","NA","17777","26985","1367","2","legacy","1024","1","44100","-16","experiment","wtal","23","datteln","1","0","1","deutsch","english french","5","odd","koeln","6696712","6685120","NA","6698684","6696709","NA","6424835","6696486","6424836","6424836","6602000","6619781","6787835","6786328","6789203","6650208","6647046","6685119","6444825","6577533","6683444","6646830","6696712","6647050","NA","6787835","6787835","NA","NA","6786324","NAP perception","23","40638","28","yes","1024"
"82.7586206897","yes","82.7586206897","1437.72413793","1437.72413793","white","no","xpyriment","I have read and understood the information shown above","legacy","legacy","0","uniform","1","0","0","undefined","undefined","1","f","1","0","NA","0","0","0","0","0","0","0","0","0","38","38","38","0","0","0","0","0","1","0","0","0","1","38","38","38","38","38","Wed Jun 28 16:53:56 2017","Forced-choice identification task with a practice and an experimental phase","yes","NAP-FC_GER_AA_ver-1.osexp","/Users/aviadalbert/Documents/Academisch/UoC/Dissertation/Experiment/OpenSesame/NAP-FC/NAP-FC_GER_AA/GER_AA_ver-1","yes","no","sans","no","20","no","black","no","Next","yes","768","legacy","28","9","0","/Users/aviadalbert/Documents/Academisch/UoC/Dissertation/Experiment/OpenSesame/NAP-FC/NAP-FC_GER_AA/GER_AA_ver-1/subject-5.csv","xpyriment","Jazzy James","3.1.6","yes","yes","59504085b83f69022b47a751","595041f76c613b022ae3ecdb","no","no","0","f","f","space","NA","return","return","f","1056","1971","11303","NA","17777","26985","1056","2","legacy","1024","1","44100","-16","experiment","spal","23","datteln","1","0","1","deutsch","english french","5","odd","koeln","6696712","6685120","NA","6698684","6696709","NA","6424835","6696486","6424836","6424836","6602000","6619781","6790987","6789481","6792044","6650208","6647046","6685119","6444825","6577533","6683444","6646830","6696712","6647050","NA","6790986","6790986","NA","NA","6789477","NAP perception","24","41694","29","yes","1024"
"83.3333333333","yes","83.3333333333","1437.7","1437.7","white","no","xpyriment","I have read and understood the information shown above","legacy","legacy","0","uniform","1","0","0","undefined","undefined","1","j","1","0","NA","0","0","0","0","0","0","0","0","0","39","39","39","0","0","0","0","0","1","0","0","0","1","39","39","39","39","39","Wed Jun 28 16:53:56 2017","Forced-choice identification task with a practice and an experimental phase","yes","NAP-FC_GER_AA_ver-1.osexp","/Users/aviadalbert/Documents/Academisch/UoC/Dissertation/Experiment/OpenSesame/NAP-FC/NAP-FC_GER_AA/GER_AA_ver-1","yes","no","sans","no","20","no","black","no","Next","yes","768","legacy","29","9","0","/Users/aviadalbert/Documents/Academisch/UoC/Dissertation/Experiment/OpenSesame/NAP-FC/NAP-FC_GER_AA/GER_AA_ver-1/subject-5.csv","xpyriment","Jazzy James","3.1.6","yes","yes","59504085b83f69022b47a751","595041f76c613b022ae3ecdb","no","no","0","j","f","space","NA","return","return","j","1437","1971","11303","NA","17777","26985","1437","2","legacy","1024","1","44100","-16","experiment","velal","23","datteln","1","0","1","deutsch","english french","5","odd","koeln","6696712","6685120","NA","6698684","6696709","NA","6424835","6696486","6424836","6424836","6602000","6619781","6793832","6792325","6795270","6650208","6647046","6685119","6444825","6577533","6683444","6646830","6696712","6647050","NA","6793832","6793832","NA","NA","6792321","NAP perception","25","43131","30","yes","1024"
"83.8709677419","yes","83.8709677419","1431.90322581","1431.90322581","white","no","xpyriment","I have read and understood the information shown above","legacy","legacy","0","uniform","1","0","0","undefined","undefined","1","f","1","0","NA","0","0","0","0","0","0","0","0","0","40","40","40","0","0","0","0","0","1","0","0","0","1","40","40","40","40","40","Wed Jun 28 16:53:56 2017","Forced-choice identification task with a practice and an experimental phase","yes","NAP-FC_GER_AA_ver-1.osexp","/Users/aviadalbert/Documents/Academisch/UoC/Dissertation/Experiment/OpenSesame/NAP-FC/NAP-FC_GER_AA/GER_AA_ver-1","yes","no","sans","no","20","no","black","no","Next","yes","768","legacy","30","9","0","/Users/aviadalbert/Documents/Academisch/UoC/Dissertation/Experiment/OpenSesame/NAP-FC/NAP-FC_GER_AA/GER_AA_ver-1/subject-5.csv","xpyriment","Jazzy James","3.1.6","yes","yes","59504085b83f69022b47a751","595041f76c613b022ae3ecdb","no","no","0","f","f","space","NA","return","return","f","1258","1971","11303","NA","17777","26985","1258","2","legacy","1024","1","44100","-16","experiment","npal","23","datteln","1","0","1","deutsch","english french","5","odd","koeln","6696712","6685120","NA","6698684","6696709","NA","6424835","6696486","6424836","6424836","6602000","6619781","6797067","6795563","6798326","6650208","6647046","6685119","6444825","6577533","6683444","6646830","6696712","6647050","NA","6797066","6797067","NA","NA","6795559","NAP perception","26","44389","31","yes","1024"
"84.375","yes","84.375","1420.53125","1420.53125","white","no","xpyriment","I have read and understood the information shown above","legacy","legacy","0","uniform","1","0","0","undefined","undefined","1","j","1","0","NA","0","0","0","0","0","0","0","0","0","41","41","41","0","0","0","0","0","1","0","0","0","1","41","41","41","41","41","Wed Jun 28 16:53:56 2017","Forced-choice identification task with a practice and an experimental phase","yes","NAP-FC_GER_AA_ver-1.osexp","/Users/aviadalbert/Documents/Academisch/UoC/Dissertation/Experiment/OpenSesame/NAP-FC/NAP-FC_GER_AA/GER_AA_ver-1","yes","no","sans","no","20","no","black","no","Next","yes","768","legacy","31","9","0","/Users/aviadalbert/Documents/Academisch/UoC/Dissertation/Experiment/OpenSesame/NAP-FC/NAP-FC_GER_AA/GER_AA_ver-1/subject-5.csv","xpyriment","Jazzy James","3.1.6","yes","yes","59504085b83f69022b47a751","595041f76c613b022ae3ecdb","no","no","0","j","f","space","NA","return","return","j","1068","1971","11303","NA","17777","26985","1068","2","legacy","1024","1","44100","-16","experiment","jefal","23","datteln","1","0","1","deutsch","english french","5","odd","koeln","6696712","6685120","NA","6698684","6696709","NA","6424835","6696486","6424836","6424836","6602000","6619781","6800097","6798594","6801166","6650208","6647046","6685119","6444825","6577533","6683444","6646830","6696712","6647050","NA","6800097","6800097","NA","NA","6798590","NAP perception","27","45457","32","yes","1024"
"81.8181818182","yes","81.8181818182","1412.78787879","1412.78787879","white","no","xpyriment","I have read and understood the information shown above","legacy","legacy","0","uniform","0","0","0","undefined","undefined","0","f","1","0","NA","0","0","0","0","0","0","0","0","0","42","42","42","0","0","0","0","0","1","0","0","0","1","42","42","42","42","42","Wed Jun 28 16:53:56 2017","Forced-choice identification task with a practice and an experimental phase","yes","NAP-FC_GER_AA_ver-1.osexp","/Users/aviadalbert/Documents/Academisch/UoC/Dissertation/Experiment/OpenSesame/NAP-FC/NAP-FC_GER_AA/GER_AA_ver-1","yes","no","sans","no","20","no","black","no","Next","yes","768","legacy","32","9","0","/Users/aviadalbert/Documents/Academisch/UoC/Dissertation/Experiment/OpenSesame/NAP-FC/NAP-FC_GER_AA/GER_AA_ver-1/subject-5.csv","xpyriment","Jazzy James","3.1.6","yes","yes","59504085b83f69022b47a751","595041f76c613b022ae3ecdb","no","no","0","j","f","space","NA","return","return","j","1165","1971","11303","NA","17777","26985","1165","2","legacy","1024","1","44100","-16","experiment","jmal","23","datteln","1","0","1","deutsch","english french","5","odd","koeln","6696712","6685120","NA","6698684","6696709","NA","6424835","6696486","6424836","6424836","6602000","6619781","6802945","6801441","6804111","6650208","6647046","6685119","6444825","6577533","6683444","6646830","6696712","6647050","NA","6802945","6802945","NA","NA","6801437","NAP perception","27","46622","33","yes","1024"
"82.3529411765","yes","82.3529411765","1425.38235294","1425.38235294","white","no","xpyriment","I have read and understood the information shown above","legacy","legacy","0","uniform","1","0","0","undefined","undefined","1","j","1","0","NA","0","0","0","0","0","0","0","0","0","43","43","43","0","0","0","0","0","1","0","0","0","1","43","43","43","43","43","Wed Jun 28 16:53:56 2017","Forced-choice identification task with a practice and an experimental phase","yes","NAP-FC_GER_AA_ver-1.osexp","/Users/aviadalbert/Documents/Academisch/UoC/Dissertation/Experiment/OpenSesame/NAP-FC/NAP-FC_GER_AA/GER_AA_ver-1","yes","no","sans","no","20","no","black","no","Next","yes","768","legacy","33","9","0","/Users/aviadalbert/Documents/Academisch/UoC/Dissertation/Experiment/OpenSesame/NAP-FC/NAP-FC_GER_AA/GER_AA_ver-1/subject-5.csv","xpyriment","Jazzy James","3.1.6","yes","yes","59504085b83f69022b47a751","595041f76c613b022ae3ecdb","no","no","0","j","f","space","NA","return","return","j","1841","1971","11303","NA","17777","26985","1841","2","legacy","1024","1","44100","-16","experiment","neval","23","datteln","1","0","1","deutsch","english french","5","odd","koeln","6696712","6685120","NA","6698684","6696709","NA","6424835","6696486","6424836","6424836","6602000","6619781","6805885","6804377","6807728","6650208","6647046","6685119","6444825","6577533","6683444","6646830","6696712","6647050","NA","6805885","6805885","NA","NA","6804373","NAP perception","28","48463","34","yes","1024"
"80","yes","80","1412.71428571","1412.71428571","white","no","xpyriment","I have read and understood the information shown above","legacy","legacy","0","uniform","0","0","0","undefined","undefined","0","f","1","0","NA","0","0","0","0","0","0","0","0","0","44","44","44","0","0","0","0","0","1","0","0","0","1","44","44","44","44","44","Wed Jun 28 16:53:56 2017","Forced-choice identification task with a practice and an experimental phase","yes","NAP-FC_GER_AA_ver-1.osexp","/Users/aviadalbert/Documents/Academisch/UoC/Dissertation/Experiment/OpenSesame/NAP-FC/NAP-FC_GER_AA/GER_AA_ver-1","yes","no","sans","no","20","no","black","no","Next","yes","768","legacy","34","9","0","/Users/aviadalbert/Documents/Academisch/UoC/Dissertation/Experiment/OpenSesame/NAP-FC/NAP-FC_GER_AA/GER_AA_ver-1/subject-5.csv","xpyriment","Jazzy James","3.1.6","yes","yes","59504085b83f69022b47a751","595041f76c613b022ae3ecdb","no","no","0","j","f","space","NA","return","return","j","982","1971","11303","NA","17777","26985","982","2","legacy","1024","1","44100","-16","experiment","jval","23","datteln","1","0","1","deutsch","english french","5","odd","koeln","6696712","6685120","NA","6698684","6696709","NA","6424835","6696486","6424836","6424836","6602000","6619781","6809503","6808000","6810487","6650208","6647046","6685119","6444825","6577533","6683444","6646830","6696712","6647050","NA","6809503","6809503","NA","NA","6807996","NAP perception","28","49445","35","yes","1024"
"80.5555555556","yes","80.5555555556","1401.5","1401.5","white","no","xpyriment","I have read and understood the information shown above","legacy","legacy","0","uniform","1","0","0","undefined","undefined","1","j","1","0","NA","0","0","0","0","0","0","0","0","0","45","45","45","0","0","0","0","0","1","0","0","0","1","45","45","45","45","45","Wed Jun 28 16:53:56 2017","Forced-choice identification task with a practice and an experimental phase","yes","NAP-FC_GER_AA_ver-1.osexp","/Users/aviadalbert/Documents/Academisch/UoC/Dissertation/Experiment/OpenSesame/NAP-FC/NAP-FC_GER_AA/GER_AA_ver-1","yes","no","sans","no","20","no","black","no","Next","yes","768","legacy","35","9","0","/Users/aviadalbert/Documents/Academisch/UoC/Dissertation/Experiment/OpenSesame/NAP-FC/NAP-FC_GER_AA/GER_AA_ver-1/subject-5.csv","xpyriment","Jazzy James","3.1.6","yes","yes","59504085b83f69022b47a751","595041f76c613b022ae3ecdb","no","no","0","j","f","space","NA","return","return","j","1009","1971","11303","NA","17777","26985","1009","2","legacy","1024","1","44100","-16","experiment","elkal","23","datteln","1","0","1","deutsch","english french","5","odd","koeln","6696712","6685120","NA","6698684","6696709","NA","6424835","6696486","6424836","6424836","6602000","6619781","6812279","6810774","6813290","6650208","6647046","6685119","6444825","6577533","6683444","6646830","6696712","6647050","NA","6812279","6812279","NA","NA","6810770","NAP perception","29","50454","36","yes","1024"
"81.0810810811","yes","81.0810810811","1411.13513514","1411.13513514","white","no","xpyriment","I have read and understood the information shown above","legacy","legacy","0","uniform","1","0","0","undefined","undefined","1","f","1","0","NA","0","0","0","0","0","0","0","0","0","46","46","46","0","0","0","0","0","1","0","0","0","1","46","46","46","46","46","Wed Jun 28 16:53:56 2017","Forced-choice identification task with a practice and an experimental phase","yes","NAP-FC_GER_AA_ver-1.osexp","/Users/aviadalbert/Documents/Academisch/UoC/Dissertation/Experiment/OpenSesame/NAP-FC/NAP-FC_GER_AA/GER_AA_ver-1","yes","no","sans","no","20","no","black","no","Next","yes","768","legacy","36","9","0","/Users/aviadalbert/Documents/Academisch/UoC/Dissertation/Experiment/OpenSesame/NAP-FC/NAP-FC_GER_AA/GER_AA_ver-1/subject-5.csv","xpyriment","Jazzy James","3.1.6","yes","yes","59504085b83f69022b47a751","595041f76c613b022ae3ecdb","no","no","0","f","f","space","NA","return","return","f","1758","1971","11303","NA","17777","26985","1758","2","legacy","1024","1","44100","-16","experiment","zval","23","datteln","1","0","1","deutsch","english french","5","odd","koeln","6696712","6685120","NA","6698684","6696709","NA","6424835","6696486","6424836","6424836","6602000","6619781","6815071","6813566","6816831","6650208","6647046","6685119","6444825","6577533","6683444","6646830","6696712","6647050","NA","6815071","6815071","NA","NA","6813562","NAP perception","30","52212","37","yes","1024"
"81.5789473684","yes","81.5789473684","1400.92105263","1400.92105263","white","no","xpyriment","I have read and understood the information shown above","legacy","legacy","0","uniform","1","0","0","undefined","undefined","1","j","1","0","NA","0","0","0","0","0","0","0","0","0","47","47","47","0","0","0","0","0","1","0","0","0","1","47","47","47","47","47","Wed Jun 28 16:53:56 2017","Forced-choice identification task with a practice and an experimental phase","yes","NAP-FC_GER_AA_ver-1.osexp","/Users/aviadalbert/Documents/Academisch/UoC/Dissertation/Experiment/OpenSesame/NAP-FC/NAP-FC_GER_AA/GER_AA_ver-1","yes","no","sans","no","20","no","black","no","Next","yes","768","legacy","37","9","0","/Users/aviadalbert/Documents/Academisch/UoC/Dissertation/Experiment/OpenSesame/NAP-FC/NAP-FC_GER_AA/GER_AA_ver-1/subject-5.csv","xpyriment","Jazzy James","3.1.6","yes","yes","59504085b83f69022b47a751","595041f76c613b022ae3ecdb","no","no","0","j","f","space","NA","return","return","j","1023","1971","11303","NA","17777","26985","1023","2","legacy","1024","1","44100","-16","experiment","lepal","23","datteln","1","0","1","deutsch","english french","5","odd","koeln","6696712","6685120","NA","6698684","6696709","NA","6424835","6696486","6424836","6424836","6602000","6619781","6818607","6817103","6819632","6650208","6647046","6685119","6444825","6577533","6683444","6646830","6696712","6647050","NA","6818606","6818606","NA","NA","6817099","NAP perception","31","53235","38","yes","1024"
"82.0512820513","yes","82.0512820513","1410.07692308","1410.07692308","white","no","xpyriment","I have read and understood the information shown above","legacy","legacy","0","uniform","1","0","0","undefined","undefined","1","j","1","0","NA","0","0","0","0","0","0","0","0","0","48","48","48","0","0","0","0","0","1","0","0","0","1","48","48","48","48","48","Wed Jun 28 16:53:56 2017","Forced-choice identification task with a practice and an experimental phase","yes","NAP-FC_GER_AA_ver-1.osexp","/Users/aviadalbert/Documents/Academisch/UoC/Dissertation/Experiment/OpenSesame/NAP-FC/NAP-FC_GER_AA/GER_AA_ver-1","yes","no","sans","no","20","no","black","no","Next","yes","768","legacy","38","9","0","/Users/aviadalbert/Documents/Academisch/UoC/Dissertation/Experiment/OpenSesame/NAP-FC/NAP-FC_GER_AA/GER_AA_ver-1/subject-5.csv","xpyriment","Jazzy James","3.1.6","yes","yes","59504085b83f69022b47a751","595041f76c613b022ae3ecdb","no","no","0","j","f","space","NA","return","return","j","1758","1971","11303","NA","17777","26985","1758","2","legacy","1024","1","44100","-16","experiment","felal","23","datteln","1","0","1","deutsch","english french","5","odd","koeln","6696712","6685120","NA","6698684","6696709","NA","6424835","6696486","6424836","6424836","6602000","6619781","6821411","6819907","6823171","6650208","6647046","6685119","6444825","6577533","6683444","6646830","6696712","6647050","NA","6821411","6821411","NA","NA","6819903","NAP perception","32","54993","39","yes","1024"
"82.5","yes","82.5","1401.025","1401.025","white","no","xpyriment","I have read and understood the information shown above","legacy","legacy","0","uniform","1","0","0","undefined","undefined","1","f","1","0","NA","0","0","0","0","0","0","0","0","0","49","49","49","0","0","0","0","0","1","0","0","0","1","49","49","49","49","49","Wed Jun 28 16:53:56 2017","Forced-choice identification task with a practice and an experimental phase","yes","NAP-FC_GER_AA_ver-1.osexp","/Users/aviadalbert/Documents/Academisch/UoC/Dissertation/Experiment/OpenSesame/NAP-FC/NAP-FC_GER_AA/GER_AA_ver-1","yes","no","sans","no","20","no","black","no","Next","yes","768","legacy","39","9","0","/Users/aviadalbert/Documents/Academisch/UoC/Dissertation/Experiment/OpenSesame/NAP-FC/NAP-FC_GER_AA/GER_AA_ver-1/subject-5.csv","xpyriment","Jazzy James","3.1.6","yes","yes","59504085b83f69022b47a751","595041f76c613b022ae3ecdb","no","no","0","f","f","space","NA","return","return","f","1048","1971","11303","NA","17777","26985","1048","2","legacy","1024","1","44100","-16","experiment","mlal","23","datteln","1","0","1","deutsch","english french","5","odd","koeln","6696712","6685120","NA","6698684","6696709","NA","6424835","6696486","6424836","6424836","6602000","6619781","6824959","6823453","6826009","6650208","6647046","6685119","6444825","6577533","6683444","6646830","6696712","6647050","NA","6824958","6824959","NA","NA","6823449","NAP perception","33","56041","40","yes","1024"
"82.9268292683","yes","82.9268292683","1410.41463415","1410.41463415","white","no","xpyriment","I have read and understood the information shown above","legacy","legacy","0","uniform","1","0","0","undefined","undefined","1","f","1","0","NA","0","0","0","0","0","0","0","0","0","50","50","50","0","0","0","0","0","1","0","0","0","1","50","50","50","50","50","Wed Jun 28 16:53:56 2017","Forced-choice identification task with a practice and an experimental phase","yes","NAP-FC_GER_AA_ver-1.osexp","/Users/aviadalbert/Documents/Academisch/UoC/Dissertation/Experiment/OpenSesame/NAP-FC/NAP-FC_GER_AA/GER_AA_ver-1","yes","no","sans","no","20","no","black","no","Next","yes","768","legacy","40","9","0","/Users/aviadalbert/Documents/Academisch/UoC/Dissertation/Experiment/OpenSesame/NAP-FC/NAP-FC_GER_AA/GER_AA_ver-1/subject-5.csv","xpyriment","Jazzy James","3.1.6","yes","yes","59504085b83f69022b47a751","595041f76c613b022ae3ecdb","no","no","0","f","f","space","NA","return","return","f","1786","1971","11303","NA","17777","26985","1786","2","legacy","1024","1","44100","-16","experiment","lpal","23","datteln","1","0","1","deutsch","english french","5","odd","koeln","6696712","6685120","NA","6698684","6696709","NA","6424835","6696486","6424836","6424836","6602000","6619781","6827786","6826279","6829574","6650208","6647046","6685119","6444825","6577533","6683444","6646830","6696712","6647050","NA","6827786","6827786","NA","NA","6826275","NAP perception","34","57827","41","yes","1024"
"83.3333333333","yes","83.3333333333","1400.26190476","1400.26190476","white","no","xpyriment","I have read and understood the information shown above","legacy","legacy","0","uniform","1","0","0","undefined","undefined","1","f","1","0","NA","0","0","0","0","0","0","0","0","0","51","51","51","0","0","0","0","0","1","0","0","0","1","51","51","51","51","51","Wed Jun 28 16:53:56 2017","Forced-choice identification task with a practice and an experimental phase","yes","NAP-FC_GER_AA_ver-1.osexp","/Users/aviadalbert/Documents/Academisch/UoC/Dissertation/Experiment/OpenSesame/NAP-FC/NAP-FC_GER_AA/GER_AA_ver-1","yes","no","sans","no","20","no","black","no","Next","yes","768","legacy","41","9","0","/Users/aviadalbert/Documents/Academisch/UoC/Dissertation/Experiment/OpenSesame/NAP-FC/NAP-FC_GER_AA/GER_AA_ver-1/subject-5.csv","xpyriment","Jazzy James","3.1.6","yes","yes","59504085b83f69022b47a751","595041f76c613b022ae3ecdb","no","no","0","f","f","space","NA","return","return","f","984","1971","11303","NA","17777","26985","984","2","legacy","1024","1","44100","-16","experiment","mtal","23","datteln","1","0","1","deutsch","english french","5","odd","koeln","6696712","6685120","NA","6698684","6696709","NA","6424835","6696486","6424836","6424836","6602000","6619781","6831350","6829847","6832335","6650208","6647046","6685119","6444825","6577533","6683444","6646830","6696712","6647050","NA","6831350","6831350","NA","NA","6829843","NAP perception","35","58811","42","yes","1024"
"83.7209302326","yes","83.7209302326","1387.60465116","1387.60465116","white","no","xpyriment","I have read and understood the information shown above","legacy","legacy","0","uniform","1","0","0","undefined","undefined","1","f","1","0","NA","0","0","0","0","0","0","0","0","0","52","52","52","0","0","0","0","0","1","0","0","0","1","52","52","52","52","52","Wed Jun 28 16:53:56 2017","Forced-choice identification task with a practice and an experimental phase","yes","NAP-FC_GER_AA_ver-1.osexp","/Users/aviadalbert/Documents/Academisch/UoC/Dissertation/Experiment/OpenSesame/NAP-FC/NAP-FC_GER_AA/GER_AA_ver-1","yes","no","sans","no","20","no","black","no","Next","yes","768","legacy","42","9","0","/Users/aviadalbert/Documents/Academisch/UoC/Dissertation/Experiment/OpenSesame/NAP-FC/NAP-FC_GER_AA/GER_AA_ver-1/subject-5.csv","xpyriment","Jazzy James","3.1.6","yes","yes","59504085b83f69022b47a751","595041f76c613b022ae3ecdb","no","no","0","f","f","space","NA","return","return","f","856","1971","11303","NA","17777","26985","856","2","legacy","1024","1","44100","-16","experiment","sfal","23","datteln","1","0","1","deutsch","english french","5","odd","koeln","6696712","6685120","NA","6698684","6696709","NA","6424835","6696486","6424836","6424836","6602000","6619781","6834124","6832620","6834981","6650208","6647046","6685119","6444825","6577533","6683444","6646830","6696712","6647050","NA","6834124","6834124","NA","NA","6832616","NAP perception","36","59667","43","yes","1024"
"84.0909090909","yes","84.0909090909","1383.09090909","1383.09090909","white","no","xpyriment","I have read and understood the information shown above","legacy","legacy","0","uniform","1","0","0","undefined","undefined","1","f","1","0","NA","0","0","0","0","0","0","0","0","0","53","53","53","0","0","0","0","0","1","0","0","0","1","53","53","53","53","53","Wed Jun 28 16:53:56 2017","Forced-choice identification task with a practice and an experimental phase","yes","NAP-FC_GER_AA_ver-1.osexp","/Users/aviadalbert/Documents/Academisch/UoC/Dissertation/Experiment/OpenSesame/NAP-FC/NAP-FC_GER_AA/GER_AA_ver-1","yes","no","sans","no","20","no","black","no","Next","yes","768","legacy","43","9","0","/Users/aviadalbert/Documents/Academisch/UoC/Dissertation/Experiment/OpenSesame/NAP-FC/NAP-FC_GER_AA/GER_AA_ver-1/subject-5.csv","xpyriment","Jazzy James","3.1.6","yes","yes","59504085b83f69022b47a751","595041f76c613b022ae3ecdb","no","no","0","f","f","space","NA","return","return","f","1189","1971","11303","NA","17777","26985","1189","2","legacy","1024","1","44100","-16","experiment","vzal","23","datteln","1","0","1","deutsch","english french","5","odd","koeln","6696712","6685120","NA","6698684","6696709","NA","6424835","6696486","6424836","6424836","6602000","6619781","6836756","6835251","6837946","6650208","6647046","6685119","6444825","6577533","6683444","6646830","6696712","6647050","NA","6836755","6836755","NA","NA","6835247","NAP perception","37","60856","44","yes","1024"
"82.2222222222","yes","82.2222222222","1374.22222222","1374.22222222","white","no","xpyriment","I have read and understood the information shown above","legacy","legacy","0","uniform","0","0","0","undefined","undefined","0","f","1","0","NA","0","0","0","0","0","0","0","0","0","54","54","54","0","0","0","0","0","1","0","0","0","1","54","54","54","54","54","Wed Jun 28 16:53:56 2017","Forced-choice identification task with a practice and an experimental phase","yes","NAP-FC_GER_AA_ver-1.osexp","/Users/aviadalbert/Documents/Academisch/UoC/Dissertation/Experiment/OpenSesame/NAP-FC/NAP-FC_GER_AA/GER_AA_ver-1","yes","no","sans","no","20","no","black","no","Next","yes","768","legacy","44","9","0","/Users/aviadalbert/Documents/Academisch/UoC/Dissertation/Experiment/OpenSesame/NAP-FC/NAP-FC_GER_AA/GER_AA_ver-1/subject-5.csv","xpyriment","Jazzy James","3.1.6","yes","yes","59504085b83f69022b47a751","595041f76c613b022ae3ecdb","no","no","0","j","f","space","NA","return","return","j","984","1971","11303","NA","17777","26985","984","2","legacy","1024","1","44100","-16","experiment","jpal","23","datteln","1","0","1","deutsch","english french","5","odd","koeln","6696712","6685120","NA","6698684","6696709","NA","6424835","6696486","6424836","6424836","6602000","6619781","6839738","6838234","6840723","6650208","6647046","6685119","6444825","6577533","6683444","6646830","6696712","6647050","NA","6839738","6839738","NA","NA","6838230","NAP perception","37","61840","45","yes","1024"
"82.6086956522","yes","82.6086956522","1379.58695652","1379.58695652","white","no","xpyriment","I have read and understood the information shown above","legacy","legacy","0","uniform","1","0","0","undefined","undefined","1","j","1","0","NA","0","0","0","0","0","0","0","0","0","55","55","55","0","0","0","0","0","1","0","0","0","1","55","55","55","55","55","Wed Jun 28 16:53:56 2017","Forced-choice identification task with a practice and an experimental phase","yes","NAP-FC_GER_AA_ver-1.osexp","/Users/aviadalbert/Documents/Academisch/UoC/Dissertation/Experiment/OpenSesame/NAP-FC/NAP-FC_GER_AA/GER_AA_ver-1","yes","no","sans","no","20","no","black","no","Next","yes","768","legacy","45","9","0","/Users/aviadalbert/Documents/Academisch/UoC/Dissertation/Experiment/OpenSesame/NAP-FC/NAP-FC_GER_AA/GER_AA_ver-1/subject-5.csv","xpyriment","Jazzy James","3.1.6","yes","yes","59504085b83f69022b47a751","595041f76c613b022ae3ecdb","no","no","0","j","f","space","NA","return","return","j","1621","1971","11303","NA","17777","26985","1621","2","legacy","1024","1","44100","-16","experiment","eʃmal","23","datteln","1","0","1","deutsch","english french","5","odd","koeln","6696712","6685120","NA","6698684","6696709","NA","6424835","6696486","6424836","6424836","6602000","6619781","6842500","6840997","6844122","6650208","6647046","6685119","6444825","6577533","6683444","6646830","6696712","6647050","NA","6842500","6842500","NA","NA","6840993","NAP perception","38","63461","46","yes","1024"
"82.9787234043","yes","82.9787234043","1376.14893617","1376.14893617","white","no","xpyriment","I have read and understood the information shown above","legacy","legacy","0","uniform","1","0","0","undefined","undefined","1","j","1","0","NA","0","0","0","0","0","0","0","0","0","56","56","56","0","0","0","0","0","1","0","0","0","1","56","56","56","56","56","Wed Jun 28 16:53:56 2017","Forced-choice identification task with a practice and an experimental phase","yes","NAP-FC_GER_AA_ver-1.osexp","/Users/aviadalbert/Documents/Academisch/UoC/Dissertation/Experiment/OpenSesame/NAP-FC/NAP-FC_GER_AA/GER_AA_ver-1","yes","no","sans","no","20","no","black","no","Next","yes","768","legacy","46","9","0","/Users/aviadalbert/Documents/Academisch/UoC/Dissertation/Experiment/OpenSesame/NAP-FC/NAP-FC_GER_AA/GER_AA_ver-1/subject-5.csv","xpyriment","Jazzy James","3.1.6","yes","yes","59504085b83f69022b47a751","595041f76c613b022ae3ecdb","no","no","0","j","f","space","NA","return","return","j","1218","1971","11303","NA","17777","26985","1218","2","legacy","1024","1","44100","-16","experiment","eftal","23","datteln","1","0","1","deutsch","english french","5","odd","koeln","6696712","6685120","NA","6698684","6696709","NA","6424835","6696486","6424836","6424836","6602000","6619781","6845918","6844412","6847137","6650208","6647046","6685119","6444825","6577533","6683444","6646830","6696712","6647050","NA","6845917","6845917","NA","NA","6844408","NAP perception","39","64679","47","yes","1024"
"83.3333333333","yes","83.3333333333","1371.9375","1371.9375","white","no","xpyriment","I have read and understood the information shown above","legacy","legacy","0","uniform","1","0","0","undefined","undefined","1","f","1","0","NA","0","0","0","0","0","0","0","0","0","57","57","57","0","0","0","0","0","1","0","0","0","1","57","57","57","57","57","Wed Jun 28 16:53:56 2017","Forced-choice identification task with a practice and an experimental phase","yes","NAP-FC_GER_AA_ver-1.osexp","/Users/aviadalbert/Documents/Academisch/UoC/Dissertation/Experiment/OpenSesame/NAP-FC/NAP-FC_GER_AA/GER_AA_ver-1","yes","no","sans","no","20","no","black","no","Next","yes","768","legacy","47","9","0","/Users/aviadalbert/Documents/Academisch/UoC/Dissertation/Experiment/OpenSesame/NAP-FC/NAP-FC_GER_AA/GER_AA_ver-1/subject-5.csv","xpyriment","Jazzy James","3.1.6","yes","yes","59504085b83f69022b47a751","595041f76c613b022ae3ecdb","no","no","0","f","f","space","NA","return","return","f","1174","1971","11303","NA","17777","26985","1174","2","legacy","1024","1","44100","-16","experiment","fnal","23","datteln","1","0","1","deutsch","english french","5","odd","koeln","6696712","6685120","NA","6698684","6696709","NA","6424835","6696486","6424836","6424836","6602000","6619781","6848934","6847430","6850109","6650208","6647046","6685119","6444825","6577533","6683444","6646830","6696712","6647050","NA","6848934","6848934","NA","NA","6847426","NAP perception","40","65853","48","yes","1024"
"81.6326530612","yes","81.6326530612","1369.14285714","1369.14285714","white","no","xpyriment","I have read and understood the information shown above","legacy","legacy","0","uniform","0","0","0","undefined","undefined","0","f","1","0","NA","0","0","0","0","0","0","0","0","0","58","58","58","0","0","0","0","0","1","0","0","0","1","58","58","58","58","58","Wed Jun 28 16:53:56 2017","Forced-choice identification task with a practice and an experimental phase","yes","NAP-FC_GER_AA_ver-1.osexp","/Users/aviadalbert/Documents/Academisch/UoC/Dissertation/Experiment/OpenSesame/NAP-FC/NAP-FC_GER_AA/GER_AA_ver-1","yes","no","sans","no","20","no","black","no","Next","yes","768","legacy","48","9","0","/Users/aviadalbert/Documents/Academisch/UoC/Dissertation/Experiment/OpenSesame/NAP-FC/NAP-FC_GER_AA/GER_AA_ver-1/subject-5.csv","xpyriment","Jazzy James","3.1.6","yes","yes","59504085b83f69022b47a751","595041f76c613b022ae3ecdb","no","no","0","j","f","space","NA","return","return","j","1235","1971","11303","NA","17777","26985","1235","2","legacy","1024","1","44100","-16","experiment","nmal","23","datteln","1","0","1","deutsch","english french","5","odd","koeln","6696712","6685120","NA","6698684","6696709","NA","6424835","6696486","6424836","6424836","6602000","6619781","6851892","6850388","6853128","6650208","6647046","6685119","6444825","6577533","6683444","6646830","6696712","6647050","NA","6851892","6851892","NA","NA","6850384","NAP perception","40","67088","49","yes","1024"
"80","yes","80","1370.44","1370.44","white","no","xpyriment","I have read and understood the information shown above","legacy","legacy","0","uniform","0","0","0","undefined","undefined","0","f","1","0","NA","0","0","0","0","0","0","0","0","0","59","59","59","0","0","0","0","0","1","0","0","0","1","59","59","59","59","59","Wed Jun 28 16:53:56 2017","Forced-choice identification task with a practice and an experimental phase","yes","NAP-FC_GER_AA_ver-1.osexp","/Users/aviadalbert/Documents/Academisch/UoC/Dissertation/Experiment/OpenSesame/NAP-FC/NAP-FC_GER_AA/GER_AA_ver-1","yes","no","sans","no","20","no","black","no","Next","yes","768","legacy","49","9","0","/Users/aviadalbert/Documents/Academisch/UoC/Dissertation/Experiment/OpenSesame/NAP-FC/NAP-FC_GER_AA/GER_AA_ver-1/subject-5.csv","xpyriment","Jazzy James","3.1.6","yes","yes","59504085b83f69022b47a751","595041f76c613b022ae3ecdb","no","no","0","j","f","space","NA","return","return","j","1434","1971","11303","NA","17777","26985","1434","2","legacy","1024","1","44100","-16","experiment","lfal","23","datteln","1","0","1","deutsch","english french","5","odd","koeln","6696712","6685120","NA","6698684","6696709","NA","6424835","6696486","6424836","6424836","6602000","6619781","6854932","6853425","6856367","6650208","6647046","6685119","6444825","6577533","6683444","6646830","6696712","6647050","NA","6854932","6854932","NA","NA","6853421","NAP perception","40","68522","50","yes","1024"
"80.3921568627","yes","80.3921568627","1361.70588235","1361.70588235","white","no","xpyriment","I have read and understood the information shown above","legacy","legacy","0","uniform","1","0","0","undefined","undefined","1","j","1","0","NA","0","0","0","0","0","0","0","0","0","60","60","60","0","0","0","0","0","1","0","0","0","1","60","60","60","60","60","Wed Jun 28 16:53:56 2017","Forced-choice identification task with a practice and an experimental phase","yes","NAP-FC_GER_AA_ver-1.osexp","/Users/aviadalbert/Documents/Academisch/UoC/Dissertation/Experiment/OpenSesame/NAP-FC/NAP-FC_GER_AA/GER_AA_ver-1","yes","no","sans","no","20","no","black","no","Next","yes","768","legacy","50","9","0","/Users/aviadalbert/Documents/Academisch/UoC/Dissertation/Experiment/OpenSesame/NAP-FC/NAP-FC_GER_AA/GER_AA_ver-1/subject-5.csv","xpyriment","Jazzy James","3.1.6","yes","yes","59504085b83f69022b47a751","595041f76c613b022ae3ecdb","no","no","0","j","f","space","NA","return","return","j","925","1971","11303","NA","17777","26985","925","2","legacy","1024","1","44100","-16","experiment","elval","23","datteln","1","0","1","deutsch","english french","5","odd","koeln","6696712","6685120","NA","6698684","6696709","NA","6424835","6696486","6424836","6424836","6602000","6619781","6858164","6856659","6859091","6650208","6647046","6685119","6444825","6577533","6683444","6646830","6696712","6647050","NA","6858164","6858164","NA","NA","6856655","NAP perception","41","69447","51","yes","1024"
"80.7692307692","yes","80.7692307692","1386.73076923","1386.73076923","white","no","xpyriment","I have read and understood the information shown above","legacy","legacy","0","uniform","1","0","0","undefined","undefined","1","f","1","0","NA","0","0","0","0","0","0","0","0","0","61","61","61","0","0","0","0","0","1","0","0","0","1","61","61","61","61","61","Wed Jun 28 16:53:56 2017","Forced-choice identification task with a practice and an experimental phase","yes","NAP-FC_GER_AA_ver-1.osexp","/Users/aviadalbert/Documents/Academisch/UoC/Dissertation/Experiment/OpenSesame/NAP-FC/NAP-FC_GER_AA/GER_AA_ver-1","yes","no","sans","no","20","no","black","no","Next","yes","768","legacy","51","9","0","/Users/aviadalbert/Documents/Academisch/UoC/Dissertation/Experiment/OpenSesame/NAP-FC/NAP-FC_GER_AA/GER_AA_ver-1/subject-5.csv","xpyriment","Jazzy James","3.1.6","yes","yes","59504085b83f69022b47a751","595041f76c613b022ae3ecdb","no","no","0","f","f","space","NA","return","return","f","2663","1971","11303","NA","17777","26985","2663","2","legacy","1024","1","44100","-16","experiment","lmal","23","datteln","1","0","1","deutsch","english french","5","odd","koeln","6696712","6685120","NA","6698684","6696709","NA","6424835","6696486","6424836","6424836","6602000","6619781","6860868","6859363","6863532","6650208","6647046","6685119","6444825","6577533","6683444","6646830","6696712","6647050","NA","6860867","6860868","NA","NA","6859360","NAP perception","42","72110","52","yes","1024"
"79.2452830189","yes","79.2452830189","1396.49056604","1396.49056604","white","no","xpyriment","I have read and understood the information shown above","legacy","legacy","0","uniform","0","0","0","undefined","undefined","0","f","1","0","NA","0","0","0","0","0","0","0","0","0","62","62","62","0","0","0","0","0","1","0","0","0","1","62","62","62","62","62","Wed Jun 28 16:53:56 2017","Forced-choice identification task with a practice and an experimental phase","yes","NAP-FC_GER_AA_ver-1.osexp","/Users/aviadalbert/Documents/Academisch/UoC/Dissertation/Experiment/OpenSesame/NAP-FC/NAP-FC_GER_AA/GER_AA_ver-1","yes","no","sans","no","20","no","black","no","Next","yes","768","legacy","52","9","0","/Users/aviadalbert/Documents/Academisch/UoC/Dissertation/Experiment/OpenSesame/NAP-FC/NAP-FC_GER_AA/GER_AA_ver-1/subject-5.csv","xpyriment","Jazzy James","3.1.6","yes","yes","59504085b83f69022b47a751","595041f76c613b022ae3ecdb","no","no","0","j","f","space","NA","return","return","j","1904","1971","11303","NA","17777","26985","1904","2","legacy","1024","1","44100","-16","experiment","lkal","23","datteln","1","0","1","deutsch","english french","5","odd","koeln","6696712","6685120","NA","6698684","6696709","NA","6424835","6696486","6424836","6424836","6602000","6619781","6865321","6863815","6867227","6650208","6647046","6685119","6444825","6577533","6683444","6646830","6696712","6647050","NA","6865321","6865321","NA","NA","6863811","NAP perception","42","74014","53","yes","1024"
"79.6296296296","yes","79.6296296296","1391.24074074","1391.24074074","white","no","xpyriment","I have read and understood the information shown above","legacy","legacy","0","uniform","1","0","0","undefined","undefined","1","j","1","0","NA","0","0","0","0","0","0","0","0","0","63","63","63","0","0","0","0","0","1","0","0","0","1","63","63","63","63","63","Wed Jun 28 16:53:56 2017","Forced-choice identification task with a practice and an experimental phase","yes","NAP-FC_GER_AA_ver-1.osexp","/Users/aviadalbert/Documents/Academisch/UoC/Dissertation/Experiment/OpenSesame/NAP-FC/NAP-FC_GER_AA/GER_AA_ver-1","yes","no","sans","no","20","no","black","no","Next","yes","768","legacy","53","9","0","/Users/aviadalbert/Documents/Academisch/UoC/Dissertation/Experiment/OpenSesame/NAP-FC/NAP-FC_GER_AA/GER_AA_ver-1/subject-5.csv","xpyriment","Jazzy James","3.1.6","yes","yes","59504085b83f69022b47a751","595041f76c613b022ae3ecdb","no","no","0","j","f","space","NA","return","return","j","1113","1971","11303","NA","17777","26985","1113","2","legacy","1024","1","44100","-16","experiment","jepal","23","datteln","1","0","1","deutsch","english french","5","odd","koeln","6696712","6685120","NA","6698684","6696709","NA","6424835","6696486","6424836","6424836","6602000","6619781","6869003","6867499","6870117","6650208","6647046","6685119","6444825","6577533","6683444","6646830","6696712","6647050","NA","6869003","6869003","NA","NA","6867495","NAP perception","43","75127","54","yes","1024"
"78.1818181818","yes","78.1818181818","1412.49090909","1412.49090909","white","no","xpyriment","I have read and understood the information shown above","legacy","legacy","0","uniform","0","0","0","undefined","undefined","0","f","1","0","NA","0","0","0","0","0","0","0","0","0","64","64","64","0","0","0","0","0","1","0","0","0","1","64","64","64","64","64","Wed Jun 28 16:53:56 2017","Forced-choice identification task with a practice and an experimental phase","yes","NAP-FC_GER_AA_ver-1.osexp","/Users/aviadalbert/Documents/Academisch/UoC/Dissertation/Experiment/OpenSesame/NAP-FC/NAP-FC_GER_AA/GER_AA_ver-1","yes","no","sans","no","20","no","black","no","Next","yes","768","legacy","54","9","0","/Users/aviadalbert/Documents/Academisch/UoC/Dissertation/Experiment/OpenSesame/NAP-FC/NAP-FC_GER_AA/GER_AA_ver-1/subject-5.csv","xpyriment","Jazzy James","3.1.6","yes","yes","59504085b83f69022b47a751","595041f76c613b022ae3ecdb","no","no","0","j","f","space","NA","return","return","j","2560","1971","11303","NA","17777","26985","2560","2","legacy","1024","1","44100","-16","experiment","lval","23","datteln","1","0","1","deutsch","english french","5","odd","koeln","6696712","6685120","NA","6698684","6696709","NA","6424835","6696486","6424836","6424836","6602000","6619781","6871885","6870380","6874447","6650208","6647046","6685119","6444825","6577533","6683444","6646830","6696712","6647050","NA","6871885","6871885","NA","NA","6870376","NAP perception","43","77687","55","yes","1024"
"78.5714285714","yes","78.5714285714","1406.76785714","1406.76785714","white","no","xpyriment","I have read and understood the information shown above","legacy","legacy","0","uniform","1","0","0","undefined","undefined","1","j","1","0","NA","0","0","0","0","0","0","0","0","0","65","65","65","0","0","0","0","0","1","0","0","0","1","65","65","65","65","65","Wed Jun 28 16:53:56 2017","Forced-choice identification task with a practice and an experimental phase","yes","NAP-FC_GER_AA_ver-1.osexp","/Users/aviadalbert/Documents/Academisch/UoC/Dissertation/Experiment/OpenSesame/NAP-FC/NAP-FC_GER_AA/GER_AA_ver-1","yes","no","sans","no","20","no","black","no","Next","yes","768","legacy","55","9","0","/Users/aviadalbert/Documents/Academisch/UoC/Dissertation/Experiment/OpenSesame/NAP-FC/NAP-FC_GER_AA/GER_AA_ver-1/subject-5.csv","xpyriment","Jazzy James","3.1.6","yes","yes","59504085b83f69022b47a751","595041f76c613b022ae3ecdb","no","no","0","j","f","space","NA","return","return","j","1092","1971","11303","NA","17777","26985","1092","2","legacy","1024","1","44100","-16","experiment","ezval","23","datteln","1","0","1","deutsch","english french","5","odd","koeln","6696712","6685120","NA","6698684","6696709","NA","6424835","6696486","6424836","6424836","6602000","6619781","6876231","6874725","6877324","6650208","6647046","6685119","6444825","6577533","6683444","6646830","6696712","6647050","NA","6876231","6876231","NA","NA","6874721","NAP perception","44","78779","56","yes","1024"
