"acc","accept_status","accuracy","average_response_time","avg_rt","background","bidi","canvas_backend","checkbox_status","clock_backend","color_backend","compensation","coordinates","correct","correct_block_activation","correct_block_exit","correct_instructions_1","correct_instructions_2","correct_keyboard_response","correct_response","count_block_activation","count_block_exit","count_block_info_QA","count_e_block_loop","count_e_block_sequence","count_end_of_experiment","count_experiment","count_experimental_loop","count_form_consent","count_info_forms","count_instructions_1","count_instructions_2","count_keyboard_response","count_listen_message","count_logger","count_p_block_loop","count_p_block_sequence","count_p_feedback","count_personal_details_form_1","count_personal_details_form_2","count_post_loop_blank","count_practice_loop","count_pre_e_block_message","count_pre_p_block_message","count_reset_feedback","count_stimulus_image","count_stimulus_sound","count_timeout_message","count_timeout_sound","count_trial_sequence","datetime","description","disable_garbage_collection","experiment_file","experiment_path","expyriment_opengl","font_bold","font_family","font_italic","font_size","font_underline","foreground","form_clicks","form_response","fullscreen","height","keyboard_backend","live_row","live_row_p_block_loop","live_row_practice_loop","logfile","mouse_backend","opensesame_codename","opensesame_version","osf_always_upload_data","osf_always_upload_experiment","osf_datanode_id","osf_id","practice","pygame_doublebuf","repeat_cycle","response","response_block_activation","response_block_exit","response_block_info_QA","response_instructions_1","response_instructions_2","response_keyboard_response","response_time","response_time_block_activation","response_time_block_exit","response_time_block_info_QA","response_time_instructions_1","response_time_instructions_2","response_time_keyboard_response","round_decimals","sampler_backend","sound_buf_size","sound_channels","sound_freq","sound_sample_size","start","stimulus","subject_age","subject_birth","subject_education","subject_gender","subject_handedness","subject_language_native","subject_language_other","subject_nr","subject_parity","subject_residence","time_block_activation","time_block_exit","time_block_info_QA","time_e_block_loop","time_e_block_sequence","time_end_of_experiment","time_experiment","time_experimental_loop","time_form_consent","time_info_forms","time_instructions_1","time_instructions_2","time_keyboard_response","time_listen_message","time_logger","time_p_block_loop","time_p_block_sequence","time_p_feedback","time_personal_details_form_1","time_personal_details_form_2","time_post_loop_blank","time_practice_loop","time_pre_e_block_message","time_pre_p_block_message","time_reset_feedback","time_stimulus_image","time_stimulus_sound","time_timeout_message","time_timeout_sound","time_trial_sequence","title","total_correct","total_response_time","total_responses","uniform_coordinates","width"
"100","yes","100","1049","1049","white","no","xpyriment","I have read and understood the information shown above","legacy","legacy","0","uniform","1","0","NA","undefined","undefined","1","f","0","0","NA","NA","NA","NA","0","0","0","0","0","0","0","0","0","0","0","NA","0","0","0","0","NA","0","0","0","0","0","0","0","Wed Jun 28 14:54:38 2017","Forced-choice identification task with a practice and an experimental phase","yes","NAP-FC_GER_AA_ver-1.osexp","/Users/aviadalbert/Documents/Academisch/UoC/Dissertation/Experiment/OpenSesame/NAP-FC/NAP-FC_GER_AA/GER_AA_ver-1","yes","no","sans","no","20","no","black","no","Next","yes","768","legacy","0","0","0","/Users/aviadalbert/Documents/Academisch/UoC/Dissertation/Experiment/OpenSesame/NAP-FC/NAP-FC_GER_AA/GER_AA_ver-1/subject-2.csv","xpyriment","Jazzy James","3.1.6","yes","yes","59504085b83f69022b47a751","595041f76c613b022ae3ecdb","yes","no","0","f","f","NA","NA","return","return","f","1049","4101","NA","NA","18040","24450","1049","2","legacy","1024","1","44100","-16","experiment","flal","30","Konstanz, Germany","1","0","1","german","english","2","even","Cologne, Germany","1420765","NA","NA","NA","NA","NA","1222535","NA","1222537","1222537","1377987","1396032","1426595","1425087","1427645","1424867","1420760","NA","1262737","1362859","NA","1420543","NA","1420765","NA","1426595","1426595","NA","NA","1425082","NAP perception","1","1049","1","yes","1024"
"100","yes","100","979.5","979.5","white","no","xpyriment","I have read and understood the information shown above","legacy","legacy","0","uniform","1","0","NA","undefined","undefined","1","j","0","0","NA","NA","NA","NA","0","0","0","0","0","0","1","1","1","0","0","NA","0","0","0","0","NA","0","0","1","1","1","1","1","Wed Jun 28 14:54:38 2017","Forced-choice identification task with a practice and an experimental phase","yes","NAP-FC_GER_AA_ver-1.osexp","/Users/aviadalbert/Documents/Academisch/UoC/Dissertation/Experiment/OpenSesame/NAP-FC/NAP-FC_GER_AA/GER_AA_ver-1","yes","no","sans","no","20","no","black","no","Next","yes","768","legacy","1","1","0","/Users/aviadalbert/Documents/Academisch/UoC/Dissertation/Experiment/OpenSesame/NAP-FC/NAP-FC_GER_AA/GER_AA_ver-1/subject-2.csv","xpyriment","Jazzy James","3.1.6","yes","yes","59504085b83f69022b47a751","595041f76c613b022ae3ecdb","yes","no","0","j","f","NA","NA","return","return","j","910","4101","NA","NA","18040","24450","910","2","legacy","1024","1","44100","-16","experiment","lepal","30","Konstanz, Germany","1","0","1","german","english","2","even","Cologne, Germany","1420765","NA","NA","NA","NA","NA","1222535","NA","1222537","1222537","1377987","1396032","1429435","1427929","1430346","1424867","1420760","NA","1262737","1362859","NA","1420543","NA","1420765","NA","1429434","1429435","NA","NA","1427923","NAP perception","2","1959","2","yes","1024"
"100","yes","100","933","933","white","no","xpyriment","I have read and understood the information shown above","legacy","legacy","0","uniform","1","0","NA","undefined","undefined","1","j","0","0","NA","NA","NA","NA","0","0","0","0","0","0","2","2","2","0","0","NA","0","0","0","0","NA","0","0","2","2","2","2","2","Wed Jun 28 14:54:38 2017","Forced-choice identification task with a practice and an experimental phase","yes","NAP-FC_GER_AA_ver-1.osexp","/Users/aviadalbert/Documents/Academisch/UoC/Dissertation/Experiment/OpenSesame/NAP-FC/NAP-FC_GER_AA/GER_AA_ver-1","yes","no","sans","no","20","no","black","no","Next","yes","768","legacy","2","2","0","/Users/aviadalbert/Documents/Academisch/UoC/Dissertation/Experiment/OpenSesame/NAP-FC/NAP-FC_GER_AA/GER_AA_ver-1/subject-2.csv","xpyriment","Jazzy James","3.1.6","yes","yes","59504085b83f69022b47a751","595041f76c613b022ae3ecdb","yes","no","0","j","f","NA","NA","return","return","j","840","4101","NA","NA","18040","24450","840","2","legacy","1024","1","44100","-16","experiment","emtal","30","Konstanz, Germany","1","0","1","german","english","2","even","Cologne, Germany","1420765","NA","NA","NA","NA","NA","1222535","NA","1222537","1222537","1377987","1396032","1432128","1430619","1432969","1424867","1420760","NA","1262737","1362859","NA","1420543","NA","1420765","NA","1432128","1432128","NA","NA","1430613","NAP perception","3","2799","3","yes","1024"
"100","yes","100","927.5","927.5","white","no","xpyriment","I have read and understood the information shown above","legacy","legacy","0","uniform","1","0","NA","undefined","undefined","1","f","0","0","NA","NA","NA","NA","0","0","0","0","0","0","3","3","3","0","0","NA","0","0","0","0","NA","0","0","3","3","3","3","3","Wed Jun 28 14:54:38 2017","Forced-choice identification task with a practice and an experimental phase","yes","NAP-FC_GER_AA_ver-1.osexp","/Users/aviadalbert/Documents/Academisch/UoC/Dissertation/Experiment/OpenSesame/NAP-FC/NAP-FC_GER_AA/GER_AA_ver-1","yes","no","sans","no","20","no","black","no","Next","yes","768","legacy","3","3","0","/Users/aviadalbert/Documents/Academisch/UoC/Dissertation/Experiment/OpenSesame/NAP-FC/NAP-FC_GER_AA/GER_AA_ver-1/subject-2.csv","xpyriment","Jazzy James","3.1.6","yes","yes","59504085b83f69022b47a751","595041f76c613b022ae3ecdb","yes","no","0","f","f","NA","NA","return","return","f","911","4101","NA","NA","18040","24450","911","2","legacy","1024","1","44100","-16","experiment","ʃpal","30","Konstanz, Germany","1","0","1","german","english","2","even","Cologne, Germany","1420765","NA","NA","NA","NA","NA","1222535","NA","1222537","1222537","1377987","1396032","1434755","1433246","1435667","1424867","1420760","NA","1262737","1362859","NA","1420543","NA","1420765","NA","1434754","1434754","NA","NA","1433240","NAP perception","4","3710","4","yes","1024"
"100","yes","100","892.2","892.2","white","no","xpyriment","I have read and understood the information shown above","legacy","legacy","0","uniform","1","0","NA","undefined","undefined","1","j","0","0","NA","NA","NA","NA","0","0","0","0","0","0","4","4","4","0","0","NA","0","0","0","0","NA","0","0","4","4","4","4","4","Wed Jun 28 14:54:38 2017","Forced-choice identification task with a practice and an experimental phase","yes","NAP-FC_GER_AA_ver-1.osexp","/Users/aviadalbert/Documents/Academisch/UoC/Dissertation/Experiment/OpenSesame/NAP-FC/NAP-FC_GER_AA/GER_AA_ver-1","yes","no","sans","no","20","no","black","no","Next","yes","768","legacy","4","4","0","/Users/aviadalbert/Documents/Academisch/UoC/Dissertation/Experiment/OpenSesame/NAP-FC/NAP-FC_GER_AA/GER_AA_ver-1/subject-2.csv","xpyriment","Jazzy James","3.1.6","yes","yes","59504085b83f69022b47a751","595041f76c613b022ae3ecdb","yes","no","0","j","f","NA","NA","return","return","j","751","4101","NA","NA","18040","24450","751","2","legacy","1024","1","44100","-16","experiment","nefal","30","Konstanz, Germany","1","0","1","german","english","2","even","Cologne, Germany","1420765","NA","NA","NA","NA","NA","1222535","NA","1222537","1222537","1377987","1396032","1437447","1435941","1438199","1424867","1420760","NA","1262737","1362859","NA","1420543","NA","1420765","NA","1437447","1437447","NA","NA","1435935","NAP perception","5","4461","5","yes","1024"
"100","yes","100","971","971","white","no","xpyriment","I have read and understood the information shown above","legacy","legacy","0","uniform","1","0","NA","undefined","undefined","1","f","0","0","NA","NA","NA","NA","0","0","0","0","0","0","5","5","5","0","0","NA","0","0","0","0","NA","0","0","5","5","5","5","5","Wed Jun 28 14:54:38 2017","Forced-choice identification task with a practice and an experimental phase","yes","NAP-FC_GER_AA_ver-1.osexp","/Users/aviadalbert/Documents/Academisch/UoC/Dissertation/Experiment/OpenSesame/NAP-FC/NAP-FC_GER_AA/GER_AA_ver-1","yes","no","sans","no","20","no","black","no","Next","yes","768","legacy","5","5","0","/Users/aviadalbert/Documents/Academisch/UoC/Dissertation/Experiment/OpenSesame/NAP-FC/NAP-FC_GER_AA/GER_AA_ver-1/subject-2.csv","xpyriment","Jazzy James","3.1.6","yes","yes","59504085b83f69022b47a751","595041f76c613b022ae3ecdb","yes","no","0","f","f","NA","NA","return","return","f","1365","4101","NA","NA","18040","24450","1365","2","legacy","1024","1","44100","-16","experiment","sfal","30","Konstanz, Germany","1","0","1","german","english","2","even","Cologne, Germany","1420765","NA","NA","NA","NA","NA","1222535","NA","1222537","1222537","1377987","1396032","1439985","1438477","1441353","1424867","1420760","NA","1262737","1362859","NA","1420543","NA","1420765","NA","1439983","1439983","NA","NA","1438471","NAP perception","6","5826","6","yes","1024"
"85.7142857143","yes","85.7142857143","953.428571429","953.428571429","white","no","xpyriment","I have read and understood the information shown above","legacy","legacy","0","uniform","0","0","NA","undefined","undefined","0","f","0","0","NA","NA","NA","NA","0","0","0","0","0","0","6","6","6","0","0","NA","0","0","0","0","NA","0","0","6","6","6","6","6","Wed Jun 28 14:54:38 2017","Forced-choice identification task with a practice and an experimental phase","yes","NAP-FC_GER_AA_ver-1.osexp","/Users/aviadalbert/Documents/Academisch/UoC/Dissertation/Experiment/OpenSesame/NAP-FC/NAP-FC_GER_AA/GER_AA_ver-1","yes","no","sans","no","20","no","black","no","Next","yes","768","legacy","6","6","0","/Users/aviadalbert/Documents/Academisch/UoC/Dissertation/Experiment/OpenSesame/NAP-FC/NAP-FC_GER_AA/GER_AA_ver-1/subject-2.csv","xpyriment","Jazzy James","3.1.6","yes","yes","59504085b83f69022b47a751","595041f76c613b022ae3ecdb","yes","no","0","j","f","NA","NA","return","return","j","848","4101","NA","NA","18040","24450","848","2","legacy","1024","1","44100","-16","experiment","zmal","30","Konstanz, Germany","1","0","1","german","english","2","even","Cologne, Germany","1420765","NA","NA","NA","NA","NA","1222535","NA","1222537","1222537","1377987","1396032","1443146","1441637","1443995","1424867","1420760","NA","1262737","1362859","NA","1420543","NA","1420765","NA","1443146","1443146","NA","NA","1441631","NAP perception","6","6674","7","yes","1024"
"87.5","yes","87.5","920.5","920.5","white","no","xpyriment","I have read and understood the information shown above","legacy","legacy","0","uniform","1","0","NA","undefined","undefined","1","j","0","0","NA","NA","NA","NA","0","0","0","0","0","0","7","7","7","0","0","NA","0","0","0","0","NA","0","0","7","7","7","7","7","Wed Jun 28 14:54:38 2017","Forced-choice identification task with a practice and an experimental phase","yes","NAP-FC_GER_AA_ver-1.osexp","/Users/aviadalbert/Documents/Academisch/UoC/Dissertation/Experiment/OpenSesame/NAP-FC/NAP-FC_GER_AA/GER_AA_ver-1","yes","no","sans","no","20","no","black","no","Next","yes","768","legacy","7","7","0","/Users/aviadalbert/Documents/Academisch/UoC/Dissertation/Experiment/OpenSesame/NAP-FC/NAP-FC_GER_AA/GER_AA_ver-1/subject-2.csv","xpyriment","Jazzy James","3.1.6","yes","yes","59504085b83f69022b47a751","595041f76c613b022ae3ecdb","yes","no","0","j","f","NA","NA","return","return","j","690","4101","NA","NA","18040","24450","690","2","legacy","1024","1","44100","-16","experiment","jeval","30","Konstanz, Germany","1","0","1","german","english","2","even","Cologne, Germany","1420765","NA","NA","NA","NA","NA","1222535","NA","1222537","1222537","1377987","1396032","1445777","1444271","1446468","1424867","1420760","NA","1262737","1362859","NA","1420543","NA","1420765","NA","1445777","1445777","NA","NA","1444264","NAP perception","7","7364","8","yes","1024"
"88.8888888889","yes","88.8888888889","902.111111111","902.111111111","white","no","xpyriment","I have read and understood the information shown above","legacy","legacy","0","uniform","1","0","NA","undefined","undefined","1","j","0","0","NA","NA","NA","NA","0","0","0","0","0","0","8","8","8","0","0","NA","0","0","0","0","NA","0","0","8","8","8","8","8","Wed Jun 28 14:54:38 2017","Forced-choice identification task with a practice and an experimental phase","yes","NAP-FC_GER_AA_ver-1.osexp","/Users/aviadalbert/Documents/Academisch/UoC/Dissertation/Experiment/OpenSesame/NAP-FC/NAP-FC_GER_AA/GER_AA_ver-1","yes","no","sans","no","20","no","black","no","Next","yes","768","legacy","8","8","0","/Users/aviadalbert/Documents/Academisch/UoC/Dissertation/Experiment/OpenSesame/NAP-FC/NAP-FC_GER_AA/GER_AA_ver-1/subject-2.csv","xpyriment","Jazzy James","3.1.6","yes","yes","59504085b83f69022b47a751","595041f76c613b022ae3ecdb","yes","no","0","j","f","NA","NA","return","return","j","755","4101","NA","NA","18040","24450","755","2","legacy","1024","1","44100","-16","experiment","enval","30","Konstanz, Germany","1","0","1","german","english","2","even","Cologne, Germany","1420765","NA","NA","NA","NA","NA","1222535","NA","1222537","1222537","1377987","1396032","1448245","1446736","1449000","1424867","1420760","NA","1262737","1362859","NA","1420543","NA","1420765","NA","1448243","1448243","NA","NA","1446729","NAP perception","8","8119","9","yes","1024"
"90","yes","90","907.3","907.3","white","no","xpyriment","I have read and understood the information shown above","legacy","legacy","0","uniform","1","0","NA","undefined","undefined","1","f","0","0","NA","NA","NA","NA","0","0","0","0","0","0","9","9","9","0","0","NA","0","0","0","0","NA","0","0","9","9","9","9","9","Wed Jun 28 14:54:38 2017","Forced-choice identification task with a practice and an experimental phase","yes","NAP-FC_GER_AA_ver-1.osexp","/Users/aviadalbert/Documents/Academisch/UoC/Dissertation/Experiment/OpenSesame/NAP-FC/NAP-FC_GER_AA/GER_AA_ver-1","yes","no","sans","no","20","no","black","no","Next","yes","768","legacy","9","9","0","/Users/aviadalbert/Documents/Academisch/UoC/Dissertation/Experiment/OpenSesame/NAP-FC/NAP-FC_GER_AA/GER_AA_ver-1/subject-2.csv","xpyriment","Jazzy James","3.1.6","yes","yes","59504085b83f69022b47a751","595041f76c613b022ae3ecdb","yes","no","0","f","f","NA","NA","return","return","f","954","4101","NA","NA","18040","24450","954","2","legacy","1024","1","44100","-16","experiment","vlal","30","Konstanz, Germany","1","0","1","german","english","2","even","Cologne, Germany","1420765","NA","NA","NA","NA","NA","1222535","NA","1222537","1222537","1377987","1396032","1450787","1449281","1451743","1424867","1420760","NA","1262737","1362859","NA","1420543","NA","1420765","NA","1450786","1450786","NA","NA","1449276","NAP perception","9","9073","10","yes","1024"
"100","yes","100","771","771","white","no","xpyriment","I have read and understood the information shown above","legacy","legacy","0","uniform","1","0","0","undefined","undefined","1","f","1","0","NA","0","0","0","0","0","0","0","0","0","10","10","10","0","0","0","0","0","1","0","0","0","1","10","10","10","10","10","Wed Jun 28 14:54:38 2017","Forced-choice identification task with a practice and an experimental phase","yes","NAP-FC_GER_AA_ver-1.osexp","/Users/aviadalbert/Documents/Academisch/UoC/Dissertation/Experiment/OpenSesame/NAP-FC/NAP-FC_GER_AA/GER_AA_ver-1","yes","no","sans","no","20","no","black","no","Next","yes","768","legacy","0","9","0","/Users/aviadalbert/Documents/Academisch/UoC/Dissertation/Experiment/OpenSesame/NAP-FC/NAP-FC_GER_AA/GER_AA_ver-1/subject-2.csv","xpyriment","Jazzy James","3.1.6","yes","yes","59504085b83f69022b47a751","595041f76c613b022ae3ecdb","no","no","0","f","f","space","NA","return","return","f","771","2531","16949","NA","18040","24450","771","2","legacy","1024","1","44100","-16","experiment","mlal","30","Konstanz, Germany","1","0","1","german","english","2","even","Cologne, Germany","1470734","1453485","NA","1473266","1470726","NA","1222535","1470496","1222537","1222537","1377987","1396032","1474986","1473477","1475758","1424867","1420760","1453483","1262737","1362859","1451810","1420543","1470731","1420765","NA","1474983","1474983","NA","NA","1473471","NAP perception","1","771","1","yes","1024"
"100","yes","100","817","817","white","no","xpyriment","I have read and understood the information shown above","legacy","legacy","0","uniform","1","0","0","undefined","undefined","1","j","1","0","NA","0","0","0","0","0","0","0","0","0","11","11","11","0","0","0","0","0","1","0","0","0","1","11","11","11","11","11","Wed Jun 28 14:54:38 2017","Forced-choice identification task with a practice and an experimental phase","yes","NAP-FC_GER_AA_ver-1.osexp","/Users/aviadalbert/Documents/Academisch/UoC/Dissertation/Experiment/OpenSesame/NAP-FC/NAP-FC_GER_AA/GER_AA_ver-1","yes","no","sans","no","20","no","black","no","Next","yes","768","legacy","1","9","0","/Users/aviadalbert/Documents/Academisch/UoC/Dissertation/Experiment/OpenSesame/NAP-FC/NAP-FC_GER_AA/GER_AA_ver-1/subject-2.csv","xpyriment","Jazzy James","3.1.6","yes","yes","59504085b83f69022b47a751","595041f76c613b022ae3ecdb","no","no","0","j","f","space","NA","return","return","j","863","2531","16949","NA","18040","24450","863","2","legacy","1024","1","44100","-16","experiment","emtal","30","Konstanz, Germany","1","0","1","german","english","2","even","Cologne, Germany","1470734","1453485","NA","1473266","1470726","NA","1222535","1470496","1222537","1222537","1377987","1396032","1477533","1476024","1478397","1424867","1420760","1453483","1262737","1362859","1451810","1420543","1470731","1420765","NA","1477530","1477530","NA","NA","1476017","NAP perception","2","1634","2","yes","1024"
"66.6666666667","yes","66.6666666667","1405.66666667","1405.66666667","white","no","xpyriment","I have read and understood the information shown above","legacy","legacy","0","uniform","0","0","0","undefined","undefined","0","f","1","0","NA","0","0","0","0","0","0","0","0","0","12","12","12","0","0","0","0","0","1","0","0","0","1","12","12","12","12","12","Wed Jun 28 14:54:38 2017","Forced-choice identification task with a practice and an experimental phase","yes","NAP-FC_GER_AA_ver-1.osexp","/Users/aviadalbert/Documents/Academisch/UoC/Dissertation/Experiment/OpenSesame/NAP-FC/NAP-FC_GER_AA/GER_AA_ver-1","yes","no","sans","no","20","no","black","no","Next","yes","768","legacy","2","9","0","/Users/aviadalbert/Documents/Academisch/UoC/Dissertation/Experiment/OpenSesame/NAP-FC/NAP-FC_GER_AA/GER_AA_ver-1/subject-2.csv","xpyriment","Jazzy James","3.1.6","yes","yes","59504085b83f69022b47a751","595041f76c613b022ae3ecdb","no","no","0","j","f","space","NA","return","return","j","2583","2531","16949","NA","18040","24450","2583","2","legacy","1024","1","44100","-16","experiment","mzal","30","Konstanz, Germany","1","0","1","german","english","2","even","Cologne, Germany","1470734","1453485","NA","1473266","1470726","NA","1222535","1470496","1222537","1222537","1377987","1396032","1480177","1478667","1482763","1424867","1420760","1453483","1262737","1362859","1451810","1420543","1470731","1420765","NA","1480174","1480174","NA","NA","1478662","NAP perception","2","4217","3","yes","1024"
"50","yes","50","1519","1519","white","no","xpyriment","I have read and understood the information shown above","legacy","legacy","0","uniform","0","0","0","undefined","undefined","0","f","1","0","NA","0","0","0","0","0","0","0","0","0","13","13","13","0","0","0","0","0","1","0","0","0","1","13","13","13","13","13","Wed Jun 28 14:54:38 2017","Forced-choice identification task with a practice and an experimental phase","yes","NAP-FC_GER_AA_ver-1.osexp","/Users/aviadalbert/Documents/Academisch/UoC/Dissertation/Experiment/OpenSesame/NAP-FC/NAP-FC_GER_AA/GER_AA_ver-1","yes","no","sans","no","20","no","black","no","Next","yes","768","legacy","3","9","0","/Users/aviadalbert/Documents/Academisch/UoC/Dissertation/Experiment/OpenSesame/NAP-FC/NAP-FC_GER_AA/GER_AA_ver-1/subject-2.csv","xpyriment","Jazzy James","3.1.6","yes","yes","59504085b83f69022b47a751","595041f76c613b022ae3ecdb","no","no","0","j","f","space","NA","return","return","j","1859","2531","16949","NA","18040","24450","1859","2","legacy","1024","1","44100","-16","experiment","wzal","30","Konstanz, Germany","1","0","1","german","english","2","even","Cologne, Germany","1470734","1453485","NA","1473266","1470726","NA","1222535","1470496","1222537","1222537","1377987","1396032","1484539","1483032","1486400","1424867","1420760","1453483","1262737","1362859","1451810","1420543","1470731","1420765","NA","1484538","1484539","NA","NA","1483026","NAP perception","2","6076","4","yes","1024"
"60","yes","60","1388.8","1388.8","white","no","xpyriment","I have read and understood the information shown above","legacy","legacy","0","uniform","1","0","0","undefined","undefined","1","j","1","0","NA","0","0","0","0","0","0","0","0","0","14","14","14","0","0","0","0","0","1","0","0","0","1","14","14","14","14","14","Wed Jun 28 14:54:38 2017","Forced-choice identification task with a practice and an experimental phase","yes","NAP-FC_GER_AA_ver-1.osexp","/Users/aviadalbert/Documents/Academisch/UoC/Dissertation/Experiment/OpenSesame/NAP-FC/NAP-FC_GER_AA/GER_AA_ver-1","yes","no","sans","no","20","no","black","no","Next","yes","768","legacy","4","9","0","/Users/aviadalbert/Documents/Academisch/UoC/Dissertation/Experiment/OpenSesame/NAP-FC/NAP-FC_GER_AA/GER_AA_ver-1/subject-2.csv","xpyriment","Jazzy James","3.1.6","yes","yes","59504085b83f69022b47a751","595041f76c613b022ae3ecdb","no","no","0","j","f","space","NA","return","return","j","868","2531","16949","NA","18040","24450","868","2","legacy","1024","1","44100","-16","experiment","jemal","30","Konstanz, Germany","1","0","1","german","english","2","even","Cologne, Germany","1470734","1453485","NA","1473266","1470726","NA","1222535","1470496","1222537","1222537","1377987","1396032","1488184","1486673","1489054","1424867","1420760","1453483","1262737","1362859","1451810","1420543","1470731","1420765","NA","1488182","1488182","NA","NA","1486667","NAP perception","3","6944","5","yes","1024"
"66.6666666667","yes","66.6666666667","1441.33333333","1441.33333333","white","no","xpyriment","I have read and understood the information shown above","legacy","legacy","0","uniform","1","0","0","undefined","undefined","1","f","1","0","NA","0","0","0","0","0","0","0","0","0","15","15","15","0","0","0","0","0","1","0","0","0","1","15","15","15","15","15","Wed Jun 28 14:54:38 2017","Forced-choice identification task with a practice and an experimental phase","yes","NAP-FC_GER_AA_ver-1.osexp","/Users/aviadalbert/Documents/Academisch/UoC/Dissertation/Experiment/OpenSesame/NAP-FC/NAP-FC_GER_AA/GER_AA_ver-1","yes","no","sans","no","20","no","black","no","Next","yes","768","legacy","5","9","0","/Users/aviadalbert/Documents/Academisch/UoC/Dissertation/Experiment/OpenSesame/NAP-FC/NAP-FC_GER_AA/GER_AA_ver-1/subject-2.csv","xpyriment","Jazzy James","3.1.6","yes","yes","59504085b83f69022b47a751","595041f76c613b022ae3ecdb","no","no","0","f","f","space","NA","return","return","f","1704","2531","16949","NA","18040","24450","1704","2","legacy","1024","1","44100","-16","experiment","lval","30","Konstanz, Germany","1","0","1","german","english","2","even","Cologne, Germany","1470734","1453485","NA","1473266","1470726","NA","1222535","1470496","1222537","1222537","1377987","1396032","1490829","1489320","1492534","1424867","1420760","1453483","1262737","1362859","1451810","1420543","1470731","1420765","NA","1490829","1490829","NA","NA","1489314","NAP perception","4","8648","6","yes","1024"
"71.4285714286","yes","71.4285714286","1396","1396","white","no","xpyriment","I have read and understood the information shown above","legacy","legacy","0","uniform","1","0","0","undefined","undefined","1","j","1","0","NA","0","0","0","0","0","0","0","0","0","16","16","16","0","0","0","0","0","1","0","0","0","1","16","16","16","16","16","Wed Jun 28 14:54:38 2017","Forced-choice identification task with a practice and an experimental phase","yes","NAP-FC_GER_AA_ver-1.osexp","/Users/aviadalbert/Documents/Academisch/UoC/Dissertation/Experiment/OpenSesame/NAP-FC/NAP-FC_GER_AA/GER_AA_ver-1","yes","no","sans","no","20","no","black","no","Next","yes","768","legacy","6","9","0","/Users/aviadalbert/Documents/Academisch/UoC/Dissertation/Experiment/OpenSesame/NAP-FC/NAP-FC_GER_AA/GER_AA_ver-1/subject-2.csv","xpyriment","Jazzy James","3.1.6","yes","yes","59504085b83f69022b47a751","595041f76c613b022ae3ecdb","no","no","0","j","f","space","NA","return","return","j","1124","2531","16949","NA","18040","24450","1124","2","legacy","1024","1","44100","-16","experiment","vezal","30","Konstanz, Germany","1","0","1","german","english","2","even","Cologne, Germany","1470734","1453485","NA","1473266","1470726","NA","1222535","1470496","1222537","1222537","1377987","1396032","1494322","1492810","1495447","1424867","1420760","1453483","1262737","1362859","1451810","1420543","1470731","1420765","NA","1494319","1494319","NA","NA","1492804","NAP perception","5","9772","7","yes","1024"
"62.5","yes","62.5","1596.5","1596.5","white","no","xpyriment","I have read and understood the information shown above","legacy","legacy","0","uniform","0","0","0","undefined","undefined","0","f","1","0","NA","0","0","0","0","0","0","0","0","0","17","17","17","0","0","0","0","0","1","0","0","0","1","17","17","17","17","17","Wed Jun 28 14:54:38 2017","Forced-choice identification task with a practice and an experimental phase","yes","NAP-FC_GER_AA_ver-1.osexp","/Users/aviadalbert/Documents/Academisch/UoC/Dissertation/Experiment/OpenSesame/NAP-FC/NAP-FC_GER_AA/GER_AA_ver-1","yes","no","sans","no","20","no","black","no","Next","yes","768","legacy","7","9","0","/Users/aviadalbert/Documents/Academisch/UoC/Dissertation/Experiment/OpenSesame/NAP-FC/NAP-FC_GER_AA/GER_AA_ver-1/subject-2.csv","xpyriment","Jazzy James","3.1.6","yes","yes","59504085b83f69022b47a751","595041f76c613b022ae3ecdb","no","no","0","None","f","space","NA","return","return","None","3000","2531","16949","NA","18040","24450","3000","2","legacy","1024","1","44100","-16","experiment","mnal","30","Konstanz, Germany","1","0","1","german","english","2","even","Cologne, Germany","1470734","1453485","NA","1473266","1470726","NA","1222535","1470496","1222537","1222537","1377987","1396032","1497245","1495736","1501249","1424867","1420760","1453483","1262737","1362859","1451810","1420543","1470731","1420765","NA","1497242","1497242","1500248","1500245","1495730","NAP perception","5","12772","8","yes","1024"
"55.5555555556","yes","55.5555555556","1508.66666667","1508.66666667","white","no","xpyriment","I have read and understood the information shown above","legacy","legacy","0","uniform","0","0","0","undefined","undefined","0","f","1","0","NA","0","0","0","0","0","0","0","0","0","18","18","18","0","0","0","0","0","1","0","0","0","1","18","18","18","18","18","Wed Jun 28 14:54:38 2017","Forced-choice identification task with a practice and an experimental phase","yes","NAP-FC_GER_AA_ver-1.osexp","/Users/aviadalbert/Documents/Academisch/UoC/Dissertation/Experiment/OpenSesame/NAP-FC/NAP-FC_GER_AA/GER_AA_ver-1","yes","no","sans","no","20","no","black","no","Next","yes","768","legacy","8","9","0","/Users/aviadalbert/Documents/Academisch/UoC/Dissertation/Experiment/OpenSesame/NAP-FC/NAP-FC_GER_AA/GER_AA_ver-1/subject-2.csv","xpyriment","Jazzy James","3.1.6","yes","yes","59504085b83f69022b47a751","595041f76c613b022ae3ecdb","no","no","0","j","f","space","NA","return","return","j","806","2531","16949","NA","18040","24450","806","2","legacy","1024","1","44100","-16","experiment","lfal","30","Konstanz, Germany","1","0","1","german","english","2","even","Cologne, Germany","1470734","1453485","NA","1473266","1470726","NA","1222535","1470496","1222537","1222537","1377987","1396032","1503023","1501515","1503830","1424867","1420760","1453483","1262737","1362859","1451810","1420543","1470731","1420765","NA","1503020","1503021","1500248","1500245","1501509","NAP perception","5","13578","9","yes","1024"
"50","yes","50","1425.9","1425.9","white","no","xpyriment","I have read and understood the information shown above","legacy","legacy","0","uniform","0","0","0","undefined","undefined","0","f","1","0","NA","0","0","0","0","0","0","0","0","0","19","19","19","0","0","0","0","0","1","0","0","0","1","19","19","19","19","19","Wed Jun 28 14:54:38 2017","Forced-choice identification task with a practice and an experimental phase","yes","NAP-FC_GER_AA_ver-1.osexp","/Users/aviadalbert/Documents/Academisch/UoC/Dissertation/Experiment/OpenSesame/NAP-FC/NAP-FC_GER_AA/GER_AA_ver-1","yes","no","sans","no","20","no","black","no","Next","yes","768","legacy","9","9","0","/Users/aviadalbert/Documents/Academisch/UoC/Dissertation/Experiment/OpenSesame/NAP-FC/NAP-FC_GER_AA/GER_AA_ver-1/subject-2.csv","xpyriment","Jazzy James","3.1.6","yes","yes","59504085b83f69022b47a751","595041f76c613b022ae3ecdb","no","no","0","j","f","space","NA","return","return","j","681","2531","16949","NA","18040","24450","681","2","legacy","1024","1","44100","-16","experiment","npal","30","Konstanz, Germany","1","0","1","german","english","2","even","Cologne, Germany","1470734","1453485","NA","1473266","1470726","NA","1222535","1470496","1222537","1222537","1377987","1396032","1505612","1504100","1506294","1424867","1420760","1453483","1262737","1362859","1451810","1420543","1470731","1420765","NA","1505609","1505609","1500248","1500245","1504094","NAP perception","5","14259","10","yes","1024"
"54.5454545455","yes","54.5454545455","1366.63636364","1366.63636364","white","no","xpyriment","I have read and understood the information shown above","legacy","legacy","0","uniform","1","0","0","undefined","undefined","1","j","1","0","NA","0","0","0","0","0","0","0","0","0","20","20","20","0","0","0","0","0","1","0","0","0","1","20","20","20","20","20","Wed Jun 28 14:54:38 2017","Forced-choice identification task with a practice and an experimental phase","yes","NAP-FC_GER_AA_ver-1.osexp","/Users/aviadalbert/Documents/Academisch/UoC/Dissertation/Experiment/OpenSesame/NAP-FC/NAP-FC_GER_AA/GER_AA_ver-1","yes","no","sans","no","20","no","black","no","Next","yes","768","legacy","10","9","0","/Users/aviadalbert/Documents/Academisch/UoC/Dissertation/Experiment/OpenSesame/NAP-FC/NAP-FC_GER_AA/GER_AA_ver-1/subject-2.csv","xpyriment","Jazzy James","3.1.6","yes","yes","59504085b83f69022b47a751","595041f76c613b022ae3ecdb","no","no","0","j","f","space","NA","return","return","j","774","2531","16949","NA","18040","24450","774","2","legacy","1024","1","44100","-16","experiment","ʃefal","30","Konstanz, Germany","1","0","1","german","english","2","even","Cologne, Germany","1470734","1453485","NA","1473266","1470726","NA","1222535","1470496","1222537","1222537","1377987","1396032","1508081","1506574","1508856","1424867","1420760","1453483","1262737","1362859","1451810","1420543","1470731","1420765","NA","1508079","1508079","1500248","1500245","1506568","NAP perception","6","15033","11","yes","1024"
"58.3333333333","yes","58.3333333333","1328.91666667","1328.91666667","white","no","xpyriment","I have read and understood the information shown above","legacy","legacy","0","uniform","1","0","0","undefined","undefined","1","j","1","0","NA","0","0","0","0","0","0","0","0","0","21","21","21","0","0","0","0","0","1","0","0","0","1","21","21","21","21","21","Wed Jun 28 14:54:38 2017","Forced-choice identification task with a practice and an experimental phase","yes","NAP-FC_GER_AA_ver-1.osexp","/Users/aviadalbert/Documents/Academisch/UoC/Dissertation/Experiment/OpenSesame/NAP-FC/NAP-FC_GER_AA/GER_AA_ver-1","yes","no","sans","no","20","no","black","no","Next","yes","768","legacy","11","9","0","/Users/aviadalbert/Documents/Academisch/UoC/Dissertation/Experiment/OpenSesame/NAP-FC/NAP-FC_GER_AA/GER_AA_ver-1/subject-2.csv","xpyriment","Jazzy James","3.1.6","yes","yes","59504085b83f69022b47a751","595041f76c613b022ae3ecdb","no","no","0","j","f","space","NA","return","return","j","914","2531","16949","NA","18040","24450","914","2","legacy","1024","1","44100","-16","experiment","neval","30","Konstanz, Germany","1","0","1","german","english","2","even","Cologne, Germany","1470734","1453485","NA","1473266","1470726","NA","1222535","1470496","1222537","1222537","1377987","1396032","1510637","1509129","1511552","1424867","1420760","1453483","1262737","1362859","1451810","1420543","1470731","1420765","NA","1510637","1510637","1500248","1500245","1509124","NAP perception","7","15947","12","yes","1024"
"61.5384615385","yes","61.5384615385","1304.23076923","1304.23076923","white","no","xpyriment","I have read and understood the information shown above","legacy","legacy","0","uniform","1","0","0","undefined","undefined","1","j","1","0","NA","0","0","0","0","0","0","0","0","0","22","22","22","0","0","0","0","0","1","0","0","0","1","22","22","22","22","22","Wed Jun 28 14:54:38 2017","Forced-choice identification task with a practice and an experimental phase","yes","NAP-FC_GER_AA_ver-1.osexp","/Users/aviadalbert/Documents/Academisch/UoC/Dissertation/Experiment/OpenSesame/NAP-FC/NAP-FC_GER_AA/GER_AA_ver-1","yes","no","sans","no","20","no","black","no","Next","yes","768","legacy","12","9","0","/Users/aviadalbert/Documents/Academisch/UoC/Dissertation/Experiment/OpenSesame/NAP-FC/NAP-FC_GER_AA/GER_AA_ver-1/subject-2.csv","xpyriment","Jazzy James","3.1.6","yes","yes","59504085b83f69022b47a751","595041f76c613b022ae3ecdb","no","no","0","j","f","space","NA","return","return","j","1008","2531","16949","NA","18040","24450","1008","2","legacy","1024","1","44100","-16","experiment","emlal","30","Konstanz, Germany","1","0","1","german","english","2","even","Cologne, Germany","1470734","1453485","NA","1473266","1470726","NA","1222535","1470496","1222537","1222537","1377987","1396032","1513335","1511826","1514344","1424867","1420760","1453483","1262737","1362859","1451810","1420543","1470731","1420765","NA","1513332","1513332","1500248","1500245","1511820","NAP perception","8","16955","13","yes","1024"
"64.2857142857","yes","64.2857142857","1273","1273","white","no","xpyriment","I have read and understood the information shown above","legacy","legacy","0","uniform","1","0","0","undefined","undefined","1","j","1","0","NA","0","0","0","0","0","0","0","0","0","23","23","23","0","0","0","0","0","1","0","0","0","1","23","23","23","23","23","Wed Jun 28 14:54:38 2017","Forced-choice identification task with a practice and an experimental phase","yes","NAP-FC_GER_AA_ver-1.osexp","/Users/aviadalbert/Documents/Academisch/UoC/Dissertation/Experiment/OpenSesame/NAP-FC/NAP-FC_GER_AA/GER_AA_ver-1","yes","no","sans","no","20","no","black","no","Next","yes","768","legacy","13","9","0","/Users/aviadalbert/Documents/Academisch/UoC/Dissertation/Experiment/OpenSesame/NAP-FC/NAP-FC_GER_AA/GER_AA_ver-1/subject-2.csv","xpyriment","Jazzy James","3.1.6","yes","yes","59504085b83f69022b47a751","595041f76c613b022ae3ecdb","no","no","0","j","f","space","NA","return","return","j","867","2531","16949","NA","18040","24450","867","2","legacy","1024","1","44100","-16","experiment","lepal","30","Konstanz, Germany","1","0","1","german","english","2","even","Cologne, Germany","1470734","1453485","NA","1473266","1470726","NA","1222535","1470496","1222537","1222537","1377987","1396032","1516145","1514637","1517014","1424867","1420760","1453483","1262737","1362859","1451810","1420543","1470731","1420765","NA","1516142","1516143","1500248","1500245","1514632","NAP perception","9","17822","14","yes","1024"
"66.6666666667","yes","66.6666666667","1251.8","1251.8","white","no","xpyriment","I have read and understood the information shown above","legacy","legacy","0","uniform","1","0","0","undefined","undefined","1","j","1","0","NA","0","0","0","0","0","0","0","0","0","24","24","24","0","0","0","0","0","1","0","0","0","1","24","24","24","24","24","Wed Jun 28 14:54:38 2017","Forced-choice identification task with a practice and an experimental phase","yes","NAP-FC_GER_AA_ver-1.osexp","/Users/aviadalbert/Documents/Academisch/UoC/Dissertation/Experiment/OpenSesame/NAP-FC/NAP-FC_GER_AA/GER_AA_ver-1","yes","no","sans","no","20","no","black","no","Next","yes","768","legacy","14","9","0","/Users/aviadalbert/Documents/Academisch/UoC/Dissertation/Experiment/OpenSesame/NAP-FC/NAP-FC_GER_AA/GER_AA_ver-1/subject-2.csv","xpyriment","Jazzy James","3.1.6","yes","yes","59504085b83f69022b47a751","595041f76c613b022ae3ecdb","no","no","0","j","f","space","NA","return","return","j","955","2531","16949","NA","18040","24450","955","2","legacy","1024","1","44100","-16","experiment","mesal","30","Konstanz, Germany","1","0","1","german","english","2","even","Cologne, Germany","1470734","1453485","NA","1473266","1470726","NA","1222535","1470496","1222537","1222537","1377987","1396032","1518799","1517292","1519755","1424867","1420760","1453483","1262737","1362859","1451810","1420543","1470731","1420765","NA","1518799","1518799","1500248","1500245","1517286","NAP perception","10","18777","15","yes","1024"
"68.75","yes","68.75","1234.5625","1234.5625","white","no","xpyriment","I have read and understood the information shown above","legacy","legacy","0","uniform","1","0","0","undefined","undefined","1","j","1","0","NA","0","0","0","0","0","0","0","0","0","25","25","25","0","0","0","0","0","1","0","0","0","1","25","25","25","25","25","Wed Jun 28 14:54:38 2017","Forced-choice identification task with a practice and an experimental phase","yes","NAP-FC_GER_AA_ver-1.osexp","/Users/aviadalbert/Documents/Academisch/UoC/Dissertation/Experiment/OpenSesame/NAP-FC/NAP-FC_GER_AA/GER_AA_ver-1","yes","no","sans","no","20","no","black","no","Next","yes","768","legacy","15","9","0","/Users/aviadalbert/Documents/Academisch/UoC/Dissertation/Experiment/OpenSesame/NAP-FC/NAP-FC_GER_AA/GER_AA_ver-1/subject-2.csv","xpyriment","Jazzy James","3.1.6","yes","yes","59504085b83f69022b47a751","595041f76c613b022ae3ecdb","no","no","0","j","f","space","NA","return","return","j","976","2531","16949","NA","18040","24450","976","2","legacy","1024","1","44100","-16","experiment","enmal","30","Konstanz, Germany","1","0","1","german","english","2","even","Cologne, Germany","1470734","1453485","NA","1473266","1470726","NA","1222535","1470496","1222537","1222537","1377987","1396032","1521529","1520023","1522506","1424867","1420760","1453483","1262737","1362859","1451810","1420543","1470731","1420765","NA","1521529","1521529","1500248","1500245","1520016","NAP perception","11","19753","16","yes","1024"
"70.5882352941","yes","70.5882352941","1222.82352941","1222.82352941","white","no","xpyriment","I have read and understood the information shown above","legacy","legacy","0","uniform","1","0","0","undefined","undefined","1","j","1","0","NA","0","0","0","0","0","0","0","0","0","26","26","26","0","0","0","0","0","1","0","0","0","1","26","26","26","26","26","Wed Jun 28 14:54:38 2017","Forced-choice identification task with a practice and an experimental phase","yes","NAP-FC_GER_AA_ver-1.osexp","/Users/aviadalbert/Documents/Academisch/UoC/Dissertation/Experiment/OpenSesame/NAP-FC/NAP-FC_GER_AA/GER_AA_ver-1","yes","no","sans","no","20","no","black","no","Next","yes","768","legacy","16","9","0","/Users/aviadalbert/Documents/Academisch/UoC/Dissertation/Experiment/OpenSesame/NAP-FC/NAP-FC_GER_AA/GER_AA_ver-1/subject-2.csv","xpyriment","Jazzy James","3.1.6","yes","yes","59504085b83f69022b47a751","595041f76c613b022ae3ecdb","no","no","0","j","f","space","NA","return","return","j","1035","2531","16949","NA","18040","24450","1035","2","legacy","1024","1","44100","-16","experiment","welal","30","Konstanz, Germany","1","0","1","german","english","2","even","Cologne, Germany","1470734","1453485","NA","1473266","1470726","NA","1222535","1470496","1222537","1222537","1377987","1396032","1524279","1522769","1525315","1424867","1420760","1453483","1262737","1362859","1451810","1420543","1470731","1420765","NA","1524278","1524278","1500248","1500245","1522764","NAP perception","12","20788","17","yes","1024"
"72.2222222222","yes","72.2222222222","1195.83333333","1195.83333333","white","no","xpyriment","I have read and understood the information shown above","legacy","legacy","0","uniform","1","0","0","undefined","undefined","1","f","1","0","NA","0","0","0","0","0","0","0","0","0","27","27","27","0","0","0","0","0","1","0","0","0","1","27","27","27","27","27","Wed Jun 28 14:54:38 2017","Forced-choice identification task with a practice and an experimental phase","yes","NAP-FC_GER_AA_ver-1.osexp","/Users/aviadalbert/Documents/Academisch/UoC/Dissertation/Experiment/OpenSesame/NAP-FC/NAP-FC_GER_AA/GER_AA_ver-1","yes","no","sans","no","20","no","black","no","Next","yes","768","legacy","17","9","0","/Users/aviadalbert/Documents/Academisch/UoC/Dissertation/Experiment/OpenSesame/NAP-FC/NAP-FC_GER_AA/GER_AA_ver-1/subject-2.csv","xpyriment","Jazzy James","3.1.6","yes","yes","59504085b83f69022b47a751","595041f76c613b022ae3ecdb","no","no","0","f","f","space","NA","return","return","f","737","2531","16949","NA","18040","24450","737","2","legacy","1024","1","44100","-16","experiment","sfal","30","Konstanz, Germany","1","0","1","german","english","2","even","Cologne, Germany","1470734","1453485","NA","1473266","1470726","NA","1222535","1470496","1222537","1222537","1377987","1396032","1527092","1525584","1527831","1424867","1420760","1453483","1262737","1362859","1451810","1420543","1470731","1420765","NA","1527090","1527090","1500248","1500245","1525578","NAP perception","13","21525","18","yes","1024"
"73.6842105263","yes","73.6842105263","1173.68421053","1173.68421053","white","no","xpyriment","I have read and understood the information shown above","legacy","legacy","0","uniform","1","0","0","undefined","undefined","1","j","1","0","NA","0","0","0","0","0","0","0","0","0","28","28","28","0","0","0","0","0","1","0","0","0","1","28","28","28","28","28","Wed Jun 28 14:54:38 2017","Forced-choice identification task with a practice and an experimental phase","yes","NAP-FC_GER_AA_ver-1.osexp","/Users/aviadalbert/Documents/Academisch/UoC/Dissertation/Experiment/OpenSesame/NAP-FC/NAP-FC_GER_AA/GER_AA_ver-1","yes","no","sans","no","20","no","black","no","Next","yes","768","legacy","18","9","0","/Users/aviadalbert/Documents/Academisch/UoC/Dissertation/Experiment/OpenSesame/NAP-FC/NAP-FC_GER_AA/GER_AA_ver-1/subject-2.csv","xpyriment","Jazzy James","3.1.6","yes","yes","59504085b83f69022b47a751","595041f76c613b022ae3ecdb","no","no","0","j","f","space","NA","return","return","j","775","2531","16949","NA","18040","24450","775","2","legacy","1024","1","44100","-16","experiment","esfal","30","Konstanz, Germany","1","0","1","german","english","2","even","Cologne, Germany","1470734","1453485","NA","1473266","1470726","NA","1222535","1470496","1222537","1222537","1377987","1396032","1529597","1528087","1530373","1424867","1420760","1453483","1262737","1362859","1451810","1420543","1470731","1420765","NA","1529596","1529597","1500248","1500245","1528081","NAP perception","14","22300","19","yes","1024"
"70","yes","70","1160.95","1160.95","white","no","xpyriment","I have read and understood the information shown above","legacy","legacy","0","uniform","0","0","0","undefined","undefined","0","f","1","0","NA","0","0","0","0","0","0","0","0","0","29","29","29","0","0","0","0","0","1","0","0","0","1","29","29","29","29","29","Wed Jun 28 14:54:38 2017","Forced-choice identification task with a practice and an experimental phase","yes","NAP-FC_GER_AA_ver-1.osexp","/Users/aviadalbert/Documents/Academisch/UoC/Dissertation/Experiment/OpenSesame/NAP-FC/NAP-FC_GER_AA/GER_AA_ver-1","yes","no","sans","no","20","no","black","no","Next","yes","768","legacy","19","9","0","/Users/aviadalbert/Documents/Academisch/UoC/Dissertation/Experiment/OpenSesame/NAP-FC/NAP-FC_GER_AA/GER_AA_ver-1/subject-2.csv","xpyriment","Jazzy James","3.1.6","yes","yes","59504085b83f69022b47a751","595041f76c613b022ae3ecdb","no","no","0","j","f","space","NA","return","return","j","919","2531","16949","NA","18040","24450","919","2","legacy","1024","1","44100","-16","experiment","jval","30","Konstanz, Germany","1","0","1","german","english","2","even","Cologne, Germany","1470734","1453485","NA","1473266","1470726","NA","1222535","1470496","1222537","1222537","1377987","1396032","1532156","1530650","1533077","1424867","1420760","1453483","1262737","1362859","1451810","1420543","1470731","1420765","NA","1532155","1532156","1500248","1500245","1530644","NAP perception","14","23219","20","yes","1024"
"71.4285714286","yes","71.4285714286","1146.57142857","1146.57142857","white","no","xpyriment","I have read and understood the information shown above","legacy","legacy","0","uniform","1","0","0","undefined","undefined","1","j","1","0","NA","0","0","0","0","0","0","0","0","0","30","30","30","0","0","0","0","0","1","0","0","0","1","30","30","30","30","30","Wed Jun 28 14:54:38 2017","Forced-choice identification task with a practice and an experimental phase","yes","NAP-FC_GER_AA_ver-1.osexp","/Users/aviadalbert/Documents/Academisch/UoC/Dissertation/Experiment/OpenSesame/NAP-FC/NAP-FC_GER_AA/GER_AA_ver-1","yes","no","sans","no","20","no","black","no","Next","yes","768","legacy","20","9","0","/Users/aviadalbert/Documents/Academisch/UoC/Dissertation/Experiment/OpenSesame/NAP-FC/NAP-FC_GER_AA/GER_AA_ver-1/subject-2.csv","xpyriment","Jazzy James","3.1.6","yes","yes","59504085b83f69022b47a751","595041f76c613b022ae3ecdb","no","no","0","j","f","space","NA","return","return","j","859","2531","16949","NA","18040","24450","859","2","legacy","1024","1","44100","-16","experiment","velal","30","Konstanz, Germany","1","0","1","german","english","2","even","Cologne, Germany","1470734","1453485","NA","1473266","1470726","NA","1222535","1470496","1222537","1222537","1377987","1396032","1534858","1533352","1535718","1424867","1420760","1453483","1262737","1362859","1451810","1420543","1470731","1420765","NA","1534857","1534857","1500248","1500245","1533345","NAP perception","15","24078","21","yes","1024"
"72.7272727273","yes","72.7272727273","1135.27272727","1135.27272727","white","no","xpyriment","I have read and understood the information shown above","legacy","legacy","0","uniform","1","0","0","undefined","undefined","1","f","1","0","NA","0","0","0","0","0","0","0","0","0","31","31","31","0","0","0","0","0","1","0","0","0","1","31","31","31","31","31","Wed Jun 28 14:54:38 2017","Forced-choice identification task with a practice and an experimental phase","yes","NAP-FC_GER_AA_ver-1.osexp","/Users/aviadalbert/Documents/Academisch/UoC/Dissertation/Experiment/OpenSesame/NAP-FC/NAP-FC_GER_AA/GER_AA_ver-1","yes","no","sans","no","20","no","black","no","Next","yes","768","legacy","21","9","0","/Users/aviadalbert/Documents/Academisch/UoC/Dissertation/Experiment/OpenSesame/NAP-FC/NAP-FC_GER_AA/GER_AA_ver-1/subject-2.csv","xpyriment","Jazzy James","3.1.6","yes","yes","59504085b83f69022b47a751","595041f76c613b022ae3ecdb","no","no","0","f","f","space","NA","return","return","f","898","2531","16949","NA","18040","24450","898","2","legacy","1024","1","44100","-16","experiment","nfal","30","Konstanz, Germany","1","0","1","german","english","2","even","Cologne, Germany","1470734","1453485","NA","1473266","1470726","NA","1222535","1470496","1222537","1222537","1377987","1396032","1537506","1535998","1538406","1424867","1420760","1453483","1262737","1362859","1451810","1420543","1470731","1420765","NA","1537503","1537504","1500248","1500245","1535992","NAP perception","16","24976","22","yes","1024"
"73.9130434783","yes","73.9130434783","1116.2173913","1116.2173913","white","no","xpyriment","I have read and understood the information shown above","legacy","legacy","0","uniform","1","0","0","undefined","undefined","1","f","1","0","NA","0","0","0","0","0","0","0","0","0","32","32","32","0","0","0","0","0","1","0","0","0","1","32","32","32","32","32","Wed Jun 28 14:54:38 2017","Forced-choice identification task with a practice and an experimental phase","yes","NAP-FC_GER_AA_ver-1.osexp","/Users/aviadalbert/Documents/Academisch/UoC/Dissertation/Experiment/OpenSesame/NAP-FC/NAP-FC_GER_AA/GER_AA_ver-1","yes","no","sans","no","20","no","black","no","Next","yes","768","legacy","22","9","0","/Users/aviadalbert/Documents/Academisch/UoC/Dissertation/Experiment/OpenSesame/NAP-FC/NAP-FC_GER_AA/GER_AA_ver-1/subject-2.csv","xpyriment","Jazzy James","3.1.6","yes","yes","59504085b83f69022b47a751","595041f76c613b022ae3ecdb","no","no","0","f","f","space","NA","return","return","f","697","2531","16949","NA","18040","24450","697","2","legacy","1024","1","44100","-16","experiment","ʃfal","30","Konstanz, Germany","1","0","1","german","english","2","even","Cologne, Germany","1470734","1453485","NA","1473266","1470726","NA","1222535","1470496","1222537","1222537","1377987","1396032","1540197","1538691","1540895","1424867","1420760","1453483","1262737","1362859","1451810","1420543","1470731","1420765","NA","1540197","1540197","1500248","1500245","1538686","NAP perception","17","25673","23","yes","1024"
"75","yes","75","1098.95833333","1098.95833333","white","no","xpyriment","I have read and understood the information shown above","legacy","legacy","0","uniform","1","0","0","undefined","undefined","1","f","1","0","NA","0","0","0","0","0","0","0","0","0","33","33","33","0","0","0","0","0","1","0","0","0","1","33","33","33","33","33","Wed Jun 28 14:54:38 2017","Forced-choice identification task with a practice and an experimental phase","yes","NAP-FC_GER_AA_ver-1.osexp","/Users/aviadalbert/Documents/Academisch/UoC/Dissertation/Experiment/OpenSesame/NAP-FC/NAP-FC_GER_AA/GER_AA_ver-1","yes","no","sans","no","20","no","black","no","Next","yes","768","legacy","23","9","0","/Users/aviadalbert/Documents/Academisch/UoC/Dissertation/Experiment/OpenSesame/NAP-FC/NAP-FC_GER_AA/GER_AA_ver-1/subject-2.csv","xpyriment","Jazzy James","3.1.6","yes","yes","59504085b83f69022b47a751","595041f76c613b022ae3ecdb","no","no","0","f","f","space","NA","return","return","f","702","2531","16949","NA","18040","24450","702","2","legacy","1024","1","44100","-16","experiment","smal","30","Konstanz, Germany","1","0","1","german","english","2","even","Cologne, Germany","1470734","1453485","NA","1473266","1470726","NA","1222535","1470496","1222537","1222537","1377987","1396032","1542668","1541160","1543371","1424867","1420760","1453483","1262737","1362859","1451810","1420543","1470731","1420765","NA","1542668","1542668","1500248","1500245","1541154","NAP perception","18","26375","24","yes","1024"
"76","yes","76","1092.32","1092.32","white","no","xpyriment","I have read and understood the information shown above","legacy","legacy","0","uniform","1","0","0","undefined","undefined","1","j","1","0","NA","0","0","0","0","0","0","0","0","0","34","34","34","0","0","0","0","0","1","0","0","0","1","34","34","34","34","34","Wed Jun 28 14:54:38 2017","Forced-choice identification task with a practice and an experimental phase","yes","NAP-FC_GER_AA_ver-1.osexp","/Users/aviadalbert/Documents/Academisch/UoC/Dissertation/Experiment/OpenSesame/NAP-FC/NAP-FC_GER_AA/GER_AA_ver-1","yes","no","sans","no","20","no","black","no","Next","yes","768","legacy","24","9","0","/Users/aviadalbert/Documents/Academisch/UoC/Dissertation/Experiment/OpenSesame/NAP-FC/NAP-FC_GER_AA/GER_AA_ver-1/subject-2.csv","xpyriment","Jazzy James","3.1.6","yes","yes","59504085b83f69022b47a751","595041f76c613b022ae3ecdb","no","no","0","j","f","space","NA","return","return","j","933","2531","16949","NA","18040","24450","933","2","legacy","1024","1","44100","-16","experiment","efnal","30","Konstanz, Germany","1","0","1","german","english","2","even","Cologne, Germany","1470734","1453485","NA","1473266","1470726","NA","1222535","1470496","1222537","1222537","1377987","1396032","1545167","1543659","1546103","1424867","1420760","1453483","1262737","1362859","1451810","1420543","1470731","1420765","NA","1545165","1545165","1500248","1500245","1543653","NAP perception","19","27308","25","yes","1024"
"76.9230769231","yes","76.9230769231","1081.03846154","1081.03846154","white","no","xpyriment","I have read and understood the information shown above","legacy","legacy","0","uniform","1","0","0","undefined","undefined","1","j","1","0","NA","0","0","0","0","0","0","0","0","0","35","35","35","0","0","0","0","0","1","0","0","0","1","35","35","35","35","35","Wed Jun 28 14:54:38 2017","Forced-choice identification task with a practice and an experimental phase","yes","NAP-FC_GER_AA_ver-1.osexp","/Users/aviadalbert/Documents/Academisch/UoC/Dissertation/Experiment/OpenSesame/NAP-FC/NAP-FC_GER_AA/GER_AA_ver-1","yes","no","sans","no","20","no","black","no","Next","yes","768","legacy","25","9","0","/Users/aviadalbert/Documents/Academisch/UoC/Dissertation/Experiment/OpenSesame/NAP-FC/NAP-FC_GER_AA/GER_AA_ver-1/subject-2.csv","xpyriment","Jazzy James","3.1.6","yes","yes","59504085b83f69022b47a751","595041f76c613b022ae3ecdb","no","no","0","j","f","space","NA","return","return","j","799","2531","16949","NA","18040","24450","799","2","legacy","1024","1","44100","-16","experiment","nepal","30","Konstanz, Germany","1","0","1","german","english","2","even","Cologne, Germany","1470734","1453485","NA","1473266","1470726","NA","1222535","1470496","1222537","1222537","1377987","1396032","1547878","1546369","1548679","1424867","1420760","1453483","1262737","1362859","1451810","1420543","1470731","1420765","NA","1547875","1547875","1500248","1500245","1546364","NAP perception","20","28107","26","yes","1024"
"77.7777777778","yes","77.7777777778","1077.7037037","1077.7037037","white","no","xpyriment","I have read and understood the information shown above","legacy","legacy","0","uniform","1","0","0","undefined","undefined","1","j","1","0","NA","0","0","0","0","0","0","0","0","0","36","36","36","0","0","0","0","0","1","0","0","0","1","36","36","36","36","36","Wed Jun 28 14:54:38 2017","Forced-choice identification task with a practice and an experimental phase","yes","NAP-FC_GER_AA_ver-1.osexp","/Users/aviadalbert/Documents/Academisch/UoC/Dissertation/Experiment/OpenSesame/NAP-FC/NAP-FC_GER_AA/GER_AA_ver-1","yes","no","sans","no","20","no","black","no","Next","yes","768","legacy","26","9","0","/Users/aviadalbert/Documents/Academisch/UoC/Dissertation/Experiment/OpenSesame/NAP-FC/NAP-FC_GER_AA/GER_AA_ver-1/subject-2.csv","xpyriment","Jazzy James","3.1.6","yes","yes","59504085b83f69022b47a751","595041f76c613b022ae3ecdb","no","no","0","j","f","space","NA","return","return","j","991","2531","16949","NA","18040","24450","991","2","legacy","1024","1","44100","-16","experiment","fesal","30","Konstanz, Germany","1","0","1","german","english","2","even","Cologne, Germany","1470734","1453485","NA","1473266","1470726","NA","1222535","1470496","1222537","1222537","1377987","1396032","1550459","1548952","1551453","1424867","1420760","1453483","1262737","1362859","1451810","1420543","1470731","1420765","NA","1550459","1550459","1500248","1500245","1548947","NAP perception","21","29098","27","yes","1024"
"78.5714285714","yes","78.5714285714","1072.07142857","1072.07142857","white","no","xpyriment","I have read and understood the information shown above","legacy","legacy","0","uniform","1","0","0","undefined","undefined","1","j","1","0","NA","0","0","0","0","0","0","0","0","0","37","37","37","0","0","0","0","0","1","0","0","0","1","37","37","37","37","37","Wed Jun 28 14:54:38 2017","Forced-choice identification task with a practice and an experimental phase","yes","NAP-FC_GER_AA_ver-1.osexp","/Users/aviadalbert/Documents/Academisch/UoC/Dissertation/Experiment/OpenSesame/NAP-FC/NAP-FC_GER_AA/GER_AA_ver-1","yes","no","sans","no","20","no","black","no","Next","yes","768","legacy","27","9","0","/Users/aviadalbert/Documents/Academisch/UoC/Dissertation/Experiment/OpenSesame/NAP-FC/NAP-FC_GER_AA/GER_AA_ver-1/subject-2.csv","xpyriment","Jazzy James","3.1.6","yes","yes","59504085b83f69022b47a751","595041f76c613b022ae3ecdb","no","no","0","j","f","space","NA","return","return","j","920","2531","16949","NA","18040","24450","920","2","legacy","1024","1","44100","-16","experiment","wenal","30","Konstanz, Germany","1","0","1","german","english","2","even","Cologne, Germany","1470734","1453485","NA","1473266","1470726","NA","1222535","1470496","1222537","1222537","1377987","1396032","1553228","1551720","1554149","1424867","1420760","1453483","1262737","1362859","1451810","1420543","1470731","1420765","NA","1553225","1553226","1500248","1500245","1551714","NAP perception","22","30018","28","yes","1024"
"75.8620689655","yes","75.8620689655","1063.55172414","1063.55172414","white","no","xpyriment","I have read and understood the information shown above","legacy","legacy","0","uniform","0","0","0","undefined","undefined","0","f","1","0","NA","0","0","0","0","0","0","0","0","0","38","38","38","0","0","0","0","0","1","0","0","0","1","38","38","38","38","38","Wed Jun 28 14:54:38 2017","Forced-choice identification task with a practice and an experimental phase","yes","NAP-FC_GER_AA_ver-1.osexp","/Users/aviadalbert/Documents/Academisch/UoC/Dissertation/Experiment/OpenSesame/NAP-FC/NAP-FC_GER_AA/GER_AA_ver-1","yes","no","sans","no","20","no","black","no","Next","yes","768","legacy","28","9","0","/Users/aviadalbert/Documents/Academisch/UoC/Dissertation/Experiment/OpenSesame/NAP-FC/NAP-FC_GER_AA/GER_AA_ver-1/subject-2.csv","xpyriment","Jazzy James","3.1.6","yes","yes","59504085b83f69022b47a751","595041f76c613b022ae3ecdb","no","no","0","j","f","space","NA","return","return","j","825","2531","16949","NA","18040","24450","825","2","legacy","1024","1","44100","-16","experiment","lpal","30","Konstanz, Germany","1","0","1","german","english","2","even","Cologne, Germany","1470734","1453485","NA","1473266","1470726","NA","1222535","1470496","1222537","1222537","1377987","1396032","1555940","1554432","1556767","1424867","1420760","1453483","1262737","1362859","1451810","1420543","1470731","1420765","NA","1555939","1555939","1500248","1500245","1554426","NAP perception","22","30843","29","yes","1024"
"76.6666666667","yes","76.6666666667","1059.63333333","1059.63333333","white","no","xpyriment","I have read and understood the information shown above","legacy","legacy","0","uniform","1","0","0","undefined","undefined","1","j","1","0","NA","0","0","0","0","0","0","0","0","0","39","39","39","0","0","0","0","0","1","0","0","0","1","39","39","39","39","39","Wed Jun 28 14:54:38 2017","Forced-choice identification task with a practice and an experimental phase","yes","NAP-FC_GER_AA_ver-1.osexp","/Users/aviadalbert/Documents/Academisch/UoC/Dissertation/Experiment/OpenSesame/NAP-FC/NAP-FC_GER_AA/GER_AA_ver-1","yes","no","sans","no","20","no","black","no","Next","yes","768","legacy","29","9","0","/Users/aviadalbert/Documents/Academisch/UoC/Dissertation/Experiment/OpenSesame/NAP-FC/NAP-FC_GER_AA/GER_AA_ver-1/subject-2.csv","xpyriment","Jazzy James","3.1.6","yes","yes","59504085b83f69022b47a751","595041f76c613b022ae3ecdb","no","no","0","j","f","space","NA","return","return","j","946","2531","16949","NA","18040","24450","946","2","legacy","1024","1","44100","-16","experiment","enfal","30","Konstanz, Germany","1","0","1","german","english","2","even","Cologne, Germany","1470734","1453485","NA","1473266","1470726","NA","1222535","1470496","1222537","1222537","1377987","1396032","1558557","1557048","1559504","1424867","1420760","1453483","1262737","1362859","1451810","1420543","1470731","1420765","NA","1558555","1558555","1500248","1500245","1557042","NAP perception","23","31789","30","yes","1024"
"74.1935483871","yes","74.1935483871","1048","1048","white","no","xpyriment","I have read and understood the information shown above","legacy","legacy","0","uniform","0","0","0","undefined","undefined","0","f","1","0","NA","0","0","0","0","0","0","0","0","0","40","40","40","0","0","0","0","0","1","0","0","0","1","40","40","40","40","40","Wed Jun 28 14:54:38 2017","Forced-choice identification task with a practice and an experimental phase","yes","NAP-FC_GER_AA_ver-1.osexp","/Users/aviadalbert/Documents/Academisch/UoC/Dissertation/Experiment/OpenSesame/NAP-FC/NAP-FC_GER_AA/GER_AA_ver-1","yes","no","sans","no","20","no","black","no","Next","yes","768","legacy","30","9","0","/Users/aviadalbert/Documents/Academisch/UoC/Dissertation/Experiment/OpenSesame/NAP-FC/NAP-FC_GER_AA/GER_AA_ver-1/subject-2.csv","xpyriment","Jazzy James","3.1.6","yes","yes","59504085b83f69022b47a751","595041f76c613b022ae3ecdb","no","no","0","j","f","space","NA","return","return","j","699","2531","16949","NA","18040","24450","699","2","legacy","1024","1","44100","-16","experiment","wsal","30","Konstanz, Germany","1","0","1","german","english","2","even","Cologne, Germany","1470734","1453485","NA","1473266","1470726","NA","1222535","1470496","1222537","1222537","1377987","1396032","1561294","1559783","1561995","1424867","1420760","1453483","1262737","1362859","1451810","1420543","1470731","1420765","NA","1561292","1561292","1500248","1500245","1559777","NAP perception","23","32488","31","yes","1024"
"75","yes","75","1038.75","1038.75","white","no","xpyriment","I have read and understood the information shown above","legacy","legacy","0","uniform","1","0","0","undefined","undefined","1","f","1","0","NA","0","0","0","0","0","0","0","0","0","41","41","41","0","0","0","0","0","1","0","0","0","1","41","41","41","41","41","Wed Jun 28 14:54:38 2017","Forced-choice identification task with a practice and an experimental phase","yes","NAP-FC_GER_AA_ver-1.osexp","/Users/aviadalbert/Documents/Academisch/UoC/Dissertation/Experiment/OpenSesame/NAP-FC/NAP-FC_GER_AA/GER_AA_ver-1","yes","no","sans","no","20","no","black","no","Next","yes","768","legacy","31","9","0","/Users/aviadalbert/Documents/Academisch/UoC/Dissertation/Experiment/OpenSesame/NAP-FC/NAP-FC_GER_AA/GER_AA_ver-1/subject-2.csv","xpyriment","Jazzy James","3.1.6","yes","yes","59504085b83f69022b47a751","595041f76c613b022ae3ecdb","no","no","0","f","f","space","NA","return","return","f","752","2531","16949","NA","18040","24450","752","2","legacy","1024","1","44100","-16","experiment","zval","30","Konstanz, Germany","1","0","1","german","english","2","even","Cologne, Germany","1470734","1453485","NA","1473266","1470726","NA","1222535","1470496","1222537","1222537","1377987","1396032","1563787","1562278","1564541","1424867","1420760","1453483","1262737","1362859","1451810","1420543","1470731","1420765","NA","1563787","1563787","1500248","1500245","1562272","NAP perception","24","33240","32","yes","1024"
"75.7575757576","yes","75.7575757576","1030.36363636","1030.36363636","white","no","xpyriment","I have read and understood the information shown above","legacy","legacy","0","uniform","1","0","0","undefined","undefined","1","f","1","0","NA","0","0","0","0","0","0","0","0","0","42","42","42","0","0","0","0","0","1","0","0","0","1","42","42","42","42","42","Wed Jun 28 14:54:38 2017","Forced-choice identification task with a practice and an experimental phase","yes","NAP-FC_GER_AA_ver-1.osexp","/Users/aviadalbert/Documents/Academisch/UoC/Dissertation/Experiment/OpenSesame/NAP-FC/NAP-FC_GER_AA/GER_AA_ver-1","yes","no","sans","no","20","no","black","no","Next","yes","768","legacy","32","9","0","/Users/aviadalbert/Documents/Academisch/UoC/Dissertation/Experiment/OpenSesame/NAP-FC/NAP-FC_GER_AA/GER_AA_ver-1/subject-2.csv","xpyriment","Jazzy James","3.1.6","yes","yes","59504085b83f69022b47a751","595041f76c613b022ae3ecdb","no","no","0","f","f","space","NA","return","return","f","762","2531","16949","NA","18040","24450","762","2","legacy","1024","1","44100","-16","experiment","ftal","30","Konstanz, Germany","1","0","1","german","english","2","even","Cologne, Germany","1470734","1453485","NA","1473266","1470726","NA","1222535","1470496","1222537","1222537","1377987","1396032","1566345","1564837","1567110","1424867","1420760","1453483","1262737","1362859","1451810","1420543","1470731","1420765","NA","1566343","1566343","1500248","1500245","1564832","NAP perception","25","34002","33","yes","1024"
"76.4705882353","yes","76.4705882353","1024.94117647","1024.94117647","white","no","xpyriment","I have read and understood the information shown above","legacy","legacy","0","uniform","1","0","0","undefined","undefined","1","j","1","0","NA","0","0","0","0","0","0","0","0","0","43","43","43","0","0","0","0","0","1","0","0","0","1","43","43","43","43","43","Wed Jun 28 14:54:38 2017","Forced-choice identification task with a practice and an experimental phase","yes","NAP-FC_GER_AA_ver-1.osexp","/Users/aviadalbert/Documents/Academisch/UoC/Dissertation/Experiment/OpenSesame/NAP-FC/NAP-FC_GER_AA/GER_AA_ver-1","yes","no","sans","no","20","no","black","no","Next","yes","768","legacy","33","9","0","/Users/aviadalbert/Documents/Academisch/UoC/Dissertation/Experiment/OpenSesame/NAP-FC/NAP-FC_GER_AA/GER_AA_ver-1/subject-2.csv","xpyriment","Jazzy James","3.1.6","yes","yes","59504085b83f69022b47a751","595041f76c613b022ae3ecdb","no","no","0","j","f","space","NA","return","return","j","846","2531","16949","NA","18040","24450","846","2","legacy","1024","1","44100","-16","experiment","emzal","30","Konstanz, Germany","1","0","1","german","english","2","even","Cologne, Germany","1470734","1453485","NA","1473266","1470726","NA","1222535","1470496","1222537","1222537","1377987","1396032","1568917","1567406","1569765","1424867","1420760","1453483","1262737","1362859","1451810","1420543","1470731","1420765","NA","1568914","1568914","1500248","1500245","1567400","NAP perception","26","34848","34","yes","1024"
"74.2857142857","yes","74.2857142857","1019.6","1019.6","white","no","xpyriment","I have read and understood the information shown above","legacy","legacy","0","uniform","0","0","0","undefined","undefined","0","f","1","0","NA","0","0","0","0","0","0","0","0","0","44","44","44","0","0","0","0","0","1","0","0","0","1","44","44","44","44","44","Wed Jun 28 14:54:38 2017","Forced-choice identification task with a practice and an experimental phase","yes","NAP-FC_GER_AA_ver-1.osexp","/Users/aviadalbert/Documents/Academisch/UoC/Dissertation/Experiment/OpenSesame/NAP-FC/NAP-FC_GER_AA/GER_AA_ver-1","yes","no","sans","no","20","no","black","no","Next","yes","768","legacy","34","9","0","/Users/aviadalbert/Documents/Academisch/UoC/Dissertation/Experiment/OpenSesame/NAP-FC/NAP-FC_GER_AA/GER_AA_ver-1/subject-2.csv","xpyriment","Jazzy James","3.1.6","yes","yes","59504085b83f69022b47a751","595041f76c613b022ae3ecdb","no","no","0","j","f","space","NA","return","return","j","838","2531","16949","NA","18040","24450","838","2","legacy","1024","1","44100","-16","experiment","wlal","30","Konstanz, Germany","1","0","1","german","english","2","even","Cologne, Germany","1470734","1453485","NA","1473266","1470726","NA","1222535","1470496","1222537","1222537","1377987","1396032","1571535","1570027","1572374","1424867","1420760","1453483","1262737","1362859","1451810","1420543","1470731","1420765","NA","1571532","1571532","1500248","1500245","1570021","NAP perception","26","35686","35","yes","1024"
"75","yes","75","1015.86111111","1015.86111111","white","no","xpyriment","I have read and understood the information shown above","legacy","legacy","0","uniform","1","0","0","undefined","undefined","1","j","1","0","NA","0","0","0","0","0","0","0","0","0","45","45","45","0","0","0","0","0","1","0","0","0","1","45","45","45","45","45","Wed Jun 28 14:54:38 2017","Forced-choice identification task with a practice and an experimental phase","yes","NAP-FC_GER_AA_ver-1.osexp","/Users/aviadalbert/Documents/Academisch/UoC/Dissertation/Experiment/OpenSesame/NAP-FC/NAP-FC_GER_AA/GER_AA_ver-1","yes","no","sans","no","20","no","black","no","Next","yes","768","legacy","35","9","0","/Users/aviadalbert/Documents/Academisch/UoC/Dissertation/Experiment/OpenSesame/NAP-FC/NAP-FC_GER_AA/GER_AA_ver-1/subject-2.csv","xpyriment","Jazzy James","3.1.6","yes","yes","59504085b83f69022b47a751","595041f76c613b022ae3ecdb","no","no","0","j","f","space","NA","return","return","j","885","2531","16949","NA","18040","24450","885","2","legacy","1024","1","44100","-16","experiment","zemal","30","Konstanz, Germany","1","0","1","german","english","2","even","Cologne, Germany","1470734","1453485","NA","1473266","1470726","NA","1222535","1470496","1222537","1222537","1377987","1396032","1574158","1572652","1575045","1424867","1420760","1453483","1262737","1362859","1451810","1420543","1470731","1420765","NA","1574158","1574158","1500248","1500245","1572646","NAP perception","27","36571","36","yes","1024"
"75.6756756757","yes","75.6756756757","1012.72972973","1012.72972973","white","no","xpyriment","I have read and understood the information shown above","legacy","legacy","0","uniform","1","0","0","undefined","undefined","1","f","1","0","NA","0","0","0","0","0","0","0","0","0","46","46","46","0","0","0","0","0","1","0","0","0","1","46","46","46","46","46","Wed Jun 28 14:54:38 2017","Forced-choice identification task with a practice and an experimental phase","yes","NAP-FC_GER_AA_ver-1.osexp","/Users/aviadalbert/Documents/Academisch/UoC/Dissertation/Experiment/OpenSesame/NAP-FC/NAP-FC_GER_AA/GER_AA_ver-1","yes","no","sans","no","20","no","black","no","Next","yes","768","legacy","36","9","0","/Users/aviadalbert/Documents/Academisch/UoC/Dissertation/Experiment/OpenSesame/NAP-FC/NAP-FC_GER_AA/GER_AA_ver-1/subject-2.csv","xpyriment","Jazzy James","3.1.6","yes","yes","59504085b83f69022b47a751","595041f76c613b022ae3ecdb","no","no","0","f","f","space","NA","return","return","f","900","2531","16949","NA","18040","24450","900","2","legacy","1024","1","44100","-16","experiment","vzal","30","Konstanz, Germany","1","0","1","german","english","2","even","Cologne, Germany","1470734","1453485","NA","1473266","1470726","NA","1222535","1470496","1222537","1222537","1377987","1396032","1576825","1575313","1577726","1424867","1420760","1453483","1262737","1362859","1451810","1420543","1470731","1420765","NA","1576822","1576823","1500248","1500245","1575308","NAP perception","28","37471","37","yes","1024"
"76.3157894737","yes","76.3157894737","1009.86842105","1009.86842105","white","no","xpyriment","I have read and understood the information shown above","legacy","legacy","0","uniform","1","0","0","undefined","undefined","1","j","1","0","NA","0","0","0","0","0","0","0","0","0","47","47","47","0","0","0","0","0","1","0","0","0","1","47","47","47","47","47","Wed Jun 28 14:54:38 2017","Forced-choice identification task with a practice and an experimental phase","yes","NAP-FC_GER_AA_ver-1.osexp","/Users/aviadalbert/Documents/Academisch/UoC/Dissertation/Experiment/OpenSesame/NAP-FC/NAP-FC_GER_AA/GER_AA_ver-1","yes","no","sans","no","20","no","black","no","Next","yes","768","legacy","37","9","0","/Users/aviadalbert/Documents/Academisch/UoC/Dissertation/Experiment/OpenSesame/NAP-FC/NAP-FC_GER_AA/GER_AA_ver-1/subject-2.csv","xpyriment","Jazzy James","3.1.6","yes","yes","59504085b83f69022b47a751","595041f76c613b022ae3ecdb","no","no","0","j","f","space","NA","return","return","j","904","2531","16949","NA","18040","24450","904","2","legacy","1024","1","44100","-16","experiment","elkal","30","Konstanz, Germany","1","0","1","german","english","2","even","Cologne, Germany","1470734","1453485","NA","1473266","1470726","NA","1222535","1470496","1222537","1222537","1377987","1396032","1579507","1578001","1580414","1424867","1420760","1453483","1262737","1362859","1451810","1420543","1470731","1420765","NA","1579507","1579507","1500248","1500245","1577996","NAP perception","29","38375","38","yes","1024"
"76.9230769231","yes","76.9230769231","1004.28205128","1004.28205128","white","no","xpyriment","I have read and understood the information shown above","legacy","legacy","0","uniform","1","0","0","undefined","undefined","1","j","1","0","NA","0","0","0","0","0","0","0","0","0","48","48","48","0","0","0","0","0","1","0","0","0","1","48","48","48","48","48","Wed Jun 28 14:54:38 2017","Forced-choice identification task with a practice and an experimental phase","yes","NAP-FC_GER_AA_ver-1.osexp","/Users/aviadalbert/Documents/Academisch/UoC/Dissertation/Experiment/OpenSesame/NAP-FC/NAP-FC_GER_AA/GER_AA_ver-1","yes","no","sans","no","20","no","black","no","Next","yes","768","legacy","38","9","0","/Users/aviadalbert/Documents/Academisch/UoC/Dissertation/Experiment/OpenSesame/NAP-FC/NAP-FC_GER_AA/GER_AA_ver-1/subject-2.csv","xpyriment","Jazzy James","3.1.6","yes","yes","59504085b83f69022b47a751","595041f76c613b022ae3ecdb","no","no","0","j","f","space","NA","return","return","j","792","2531","16949","NA","18040","24450","792","2","legacy","1024","1","44100","-16","experiment","sepal","30","Konstanz, Germany","1","0","1","german","english","2","even","Cologne, Germany","1470734","1453485","NA","1473266","1470726","NA","1222535","1470496","1222537","1222537","1377987","1396032","1582216","1580703","1583009","1424867","1420760","1453483","1262737","1362859","1451810","1420543","1470731","1420765","NA","1582213","1582213","1500248","1500245","1580698","NAP perception","30","39167","39","yes","1024"
"77.5","yes","77.5","1002.675","1002.675","white","no","xpyriment","I have read and understood the information shown above","legacy","legacy","0","uniform","1","0","0","undefined","undefined","1","f","1","0","NA","0","0","0","0","0","0","0","0","0","49","49","49","0","0","0","0","0","1","0","0","0","1","49","49","49","49","49","Wed Jun 28 14:54:38 2017","Forced-choice identification task with a practice and an experimental phase","yes","NAP-FC_GER_AA_ver-1.osexp","/Users/aviadalbert/Documents/Academisch/UoC/Dissertation/Experiment/OpenSesame/NAP-FC/NAP-FC_GER_AA/GER_AA_ver-1","yes","no","sans","no","20","no","black","no","Next","yes","768","legacy","39","9","0","/Users/aviadalbert/Documents/Academisch/UoC/Dissertation/Experiment/OpenSesame/NAP-FC/NAP-FC_GER_AA/GER_AA_ver-1/subject-2.csv","xpyriment","Jazzy James","3.1.6","yes","yes","59504085b83f69022b47a751","595041f76c613b022ae3ecdb","no","no","0","f","f","space","NA","return","return","f","940","2531","16949","NA","18040","24450","940","2","legacy","1024","1","44100","-16","experiment","jfal","30","Konstanz, Germany","1","0","1","german","english","2","even","Cologne, Germany","1470734","1453485","NA","1473266","1470726","NA","1222535","1470496","1222537","1222537","1377987","1396032","1584785","1583277","1585726","1424867","1420760","1453483","1262737","1362859","1451810","1420543","1470731","1420765","NA","1584782","1584783","1500248","1500245","1583271","NAP perception","31","40107","40","yes","1024"
"78.0487804878","yes","78.0487804878","1002.17073171","1002.17073171","white","no","xpyriment","I have read and understood the information shown above","legacy","legacy","0","uniform","1","0","0","undefined","undefined","1","j","1","0","NA","0","0","0","0","0","0","0","0","0","50","50","50","0","0","0","0","0","1","0","0","0","1","50","50","50","50","50","Wed Jun 28 14:54:38 2017","Forced-choice identification task with a practice and an experimental phase","yes","NAP-FC_GER_AA_ver-1.osexp","/Users/aviadalbert/Documents/Academisch/UoC/Dissertation/Experiment/OpenSesame/NAP-FC/NAP-FC_GER_AA/GER_AA_ver-1","yes","no","sans","no","20","no","black","no","Next","yes","768","legacy","40","9","0","/Users/aviadalbert/Documents/Academisch/UoC/Dissertation/Experiment/OpenSesame/NAP-FC/NAP-FC_GER_AA/GER_AA_ver-1/subject-2.csv","xpyriment","Jazzy James","3.1.6","yes","yes","59504085b83f69022b47a751","595041f76c613b022ae3ecdb","no","no","0","j","f","space","NA","return","return","j","982","2531","16949","NA","18040","24450","982","2","legacy","1024","1","44100","-16","experiment","wetal","30","Konstanz, Germany","1","0","1","german","english","2","even","Cologne, Germany","1470734","1453485","NA","1473266","1470726","NA","1222535","1470496","1222537","1222537","1377987","1396032","1587505","1585997","1588489","1424867","1420760","1453483","1262737","1362859","1451810","1420543","1470731","1420765","NA","1587500","1587500","1500248","1500245","1585991","NAP perception","32","41089","41","yes","1024"
"78.5714285714","yes","78.5714285714","1004.38095238","1004.38095238","white","no","xpyriment","I have read and understood the information shown above","legacy","legacy","0","uniform","1","0","0","undefined","undefined","1","f","1","0","NA","0","0","0","0","0","0","0","0","0","51","51","51","0","0","0","0","0","1","0","0","0","1","51","51","51","51","51","Wed Jun 28 14:54:38 2017","Forced-choice identification task with a practice and an experimental phase","yes","NAP-FC_GER_AA_ver-1.osexp","/Users/aviadalbert/Documents/Academisch/UoC/Dissertation/Experiment/OpenSesame/NAP-FC/NAP-FC_GER_AA/GER_AA_ver-1","yes","no","sans","no","20","no","black","no","Next","yes","768","legacy","41","9","0","/Users/aviadalbert/Documents/Academisch/UoC/Dissertation/Experiment/OpenSesame/NAP-FC/NAP-FC_GER_AA/GER_AA_ver-1/subject-2.csv","xpyriment","Jazzy James","3.1.6","yes","yes","59504085b83f69022b47a751","595041f76c613b022ae3ecdb","no","no","0","f","f","space","NA","return","return","f","1095","2531","16949","NA","18040","24450","1095","2","legacy","1024","1","44100","-16","experiment","flal","30","Konstanz, Germany","1","0","1","german","english","2","even","Cologne, Germany","1470734","1453485","NA","1473266","1470726","NA","1222535","1470496","1222537","1222537","1377987","1396032","1590277","1588771","1591373","1424867","1420760","1453483","1262737","1362859","1451810","1420543","1470731","1420765","NA","1590276","1590277","1500248","1500245","1588765","NAP perception","33","42184","42","yes","1024"
"79.0697674419","yes","79.0697674419","1001.09302326","1001.09302326","white","no","xpyriment","I have read and understood the information shown above","legacy","legacy","0","uniform","1","0","0","undefined","undefined","1","j","1","0","NA","0","0","0","0","0","0","0","0","0","52","52","52","0","0","0","0","0","1","0","0","0","1","52","52","52","52","52","Wed Jun 28 14:54:38 2017","Forced-choice identification task with a practice and an experimental phase","yes","NAP-FC_GER_AA_ver-1.osexp","/Users/aviadalbert/Documents/Academisch/UoC/Dissertation/Experiment/OpenSesame/NAP-FC/NAP-FC_GER_AA/GER_AA_ver-1","yes","no","sans","no","20","no","black","no","Next","yes","768","legacy","42","9","0","/Users/aviadalbert/Documents/Academisch/UoC/Dissertation/Experiment/OpenSesame/NAP-FC/NAP-FC_GER_AA/GER_AA_ver-1/subject-2.csv","xpyriment","Jazzy James","3.1.6","yes","yes","59504085b83f69022b47a751","595041f76c613b022ae3ecdb","no","no","0","j","f","space","NA","return","return","j","863","2531","16949","NA","18040","24450","863","2","legacy","1024","1","44100","-16","experiment","evnal","30","Konstanz, Germany","1","0","1","german","english","2","even","Cologne, Germany","1470734","1453485","NA","1473266","1470726","NA","1222535","1470496","1222537","1222537","1377987","1396032","1593157","1591647","1594024","1424867","1420760","1453483","1262737","1362859","1451810","1420543","1470731","1420765","NA","1593154","1593154","1500248","1500245","1591642","NAP perception","34","43047","43","yes","1024"
"79.5454545455","yes","79.5454545455","1000.90909091","1000.90909091","white","no","xpyriment","I have read and understood the information shown above","legacy","legacy","0","uniform","1","0","0","undefined","undefined","1","j","1","0","NA","0","0","0","0","0","0","0","0","0","53","53","53","0","0","0","0","0","1","0","0","0","1","53","53","53","53","53","Wed Jun 28 14:54:38 2017","Forced-choice identification task with a practice and an experimental phase","yes","NAP-FC_GER_AA_ver-1.osexp","/Users/aviadalbert/Documents/Academisch/UoC/Dissertation/Experiment/OpenSesame/NAP-FC/NAP-FC_GER_AA/GER_AA_ver-1","yes","no","sans","no","20","no","black","no","Next","yes","768","legacy","43","9","0","/Users/aviadalbert/Documents/Academisch/UoC/Dissertation/Experiment/OpenSesame/NAP-FC/NAP-FC_GER_AA/GER_AA_ver-1/subject-2.csv","xpyriment","Jazzy James","3.1.6","yes","yes","59504085b83f69022b47a751","595041f76c613b022ae3ecdb","no","no","0","j","f","space","NA","return","return","j","993","2531","16949","NA","18040","24450","993","2","legacy","1024","1","44100","-16","experiment","ezval","30","Konstanz, Germany","1","0","1","german","english","2","even","Cologne, Germany","1470734","1453485","NA","1473266","1470726","NA","1222535","1470496","1222537","1222537","1377987","1396032","1595818","1594308","1596813","1424867","1420760","1453483","1262737","1362859","1451810","1420543","1470731","1420765","NA","1595817","1595817","1500248","1500245","1594302","NAP perception","35","44040","44","yes","1024"
"80","yes","80","997.244444444","997.244444444","white","no","xpyriment","I have read and understood the information shown above","legacy","legacy","0","uniform","1","0","0","undefined","undefined","1","f","1","0","NA","0","0","0","0","0","0","0","0","0","54","54","54","0","0","0","0","0","1","0","0","0","1","54","54","54","54","54","Wed Jun 28 14:54:38 2017","Forced-choice identification task with a practice and an experimental phase","yes","NAP-FC_GER_AA_ver-1.osexp","/Users/aviadalbert/Documents/Academisch/UoC/Dissertation/Experiment/OpenSesame/NAP-FC/NAP-FC_GER_AA/GER_AA_ver-1","yes","no","sans","no","20","no","black","no","Next","yes","768","legacy","44","9","0","/Users/aviadalbert/Documents/Academisch/UoC/Dissertation/Experiment/OpenSesame/NAP-FC/NAP-FC_GER_AA/GER_AA_ver-1/subject-2.csv","xpyriment","Jazzy James","3.1.6","yes","yes","59504085b83f69022b47a751","595041f76c613b022ae3ecdb","no","no","0","f","f","space","NA","return","return","f","836","2531","16949","NA","18040","24450","836","2","legacy","1024","1","44100","-16","experiment","msal","30","Konstanz, Germany","1","0","1","german","english","2","even","Cologne, Germany","1470734","1453485","NA","1473266","1470726","NA","1222535","1470496","1222537","1222537","1377987","1396032","1598608","1597098","1599446","1424867","1420760","1453483","1262737","1362859","1451810","1420543","1470731","1420765","NA","1598608","1598608","1500248","1500245","1597092","NAP perception","36","44876","45","yes","1024"
"80.4347826087","yes","80.4347826087","994.065217391","994.065217391","white","no","xpyriment","I have read and understood the information shown above","legacy","legacy","0","uniform","1","0","0","undefined","undefined","1","f","1","0","NA","0","0","0","0","0","0","0","0","0","55","55","55","0","0","0","0","0","1","0","0","0","1","55","55","55","55","55","Wed Jun 28 14:54:38 2017","Forced-choice identification task with a practice and an experimental phase","yes","NAP-FC_GER_AA_ver-1.osexp","/Users/aviadalbert/Documents/Academisch/UoC/Dissertation/Experiment/OpenSesame/NAP-FC/NAP-FC_GER_AA/GER_AA_ver-1","yes","no","sans","no","20","no","black","no","Next","yes","768","legacy","45","9","0","/Users/aviadalbert/Documents/Academisch/UoC/Dissertation/Experiment/OpenSesame/NAP-FC/NAP-FC_GER_AA/GER_AA_ver-1/subject-2.csv","xpyriment","Jazzy James","3.1.6","yes","yes","59504085b83f69022b47a751","595041f76c613b022ae3ecdb","no","no","0","f","f","space","NA","return","return","f","851","2531","16949","NA","18040","24450","851","2","legacy","1024","1","44100","-16","experiment","lmal","30","Konstanz, Germany","1","0","1","german","english","2","even","Cologne, Germany","1470734","1453485","NA","1473266","1470726","NA","1222535","1470496","1222537","1222537","1377987","1396032","1601237","1599725","1602089","1424867","1420760","1453483","1262737","1362859","1451810","1420543","1470731","1420765","NA","1601234","1601234","1500248","1500245","1599719","NAP perception","37","45727","46","yes","1024"
"80.8510638298","yes","80.8510638298","992.042553191","992.042553191","white","no","xpyriment","I have read and understood the information shown above","legacy","legacy","0","uniform","1","0","0","undefined","undefined","1","f","1","0","NA","0","0","0","0","0","0","0","0","0","56","56","56","0","0","0","0","0","1","0","0","0","1","56","56","56","56","56","Wed Jun 28 14:54:38 2017","Forced-choice identification task with a practice and an experimental phase","yes","NAP-FC_GER_AA_ver-1.osexp","/Users/aviadalbert/Documents/Academisch/UoC/Dissertation/Experiment/OpenSesame/NAP-FC/NAP-FC_GER_AA/GER_AA_ver-1","yes","no","sans","no","20","no","black","no","Next","yes","768","legacy","46","9","0","/Users/aviadalbert/Documents/Academisch/UoC/Dissertation/Experiment/OpenSesame/NAP-FC/NAP-FC_GER_AA/GER_AA_ver-1/subject-2.csv","xpyriment","Jazzy James","3.1.6","yes","yes","59504085b83f69022b47a751","595041f76c613b022ae3ecdb","no","no","0","f","f","space","NA","return","return","f","899","2531","16949","NA","18040","24450","899","2","legacy","1024","1","44100","-16","experiment","vlal","30","Konstanz, Germany","1","0","1","german","english","2","even","Cologne, Germany","1470734","1453485","NA","1473266","1470726","NA","1222535","1470496","1222537","1222537","1377987","1396032","1603877","1602366","1604778","1424867","1420760","1453483","1262737","1362859","1451810","1420543","1470731","1420765","NA","1603874","1603874","1500248","1500245","1602361","NAP perception","38","46626","47","yes","1024"
"81.25","yes","81.25","988.166666667","988.166666667","white","no","xpyriment","I have read and understood the information shown above","legacy","legacy","0","uniform","1","0","0","undefined","undefined","1","f","1","0","NA","0","0","0","0","0","0","0","0","0","57","57","57","0","0","0","0","0","1","0","0","0","1","57","57","57","57","57","Wed Jun 28 14:54:38 2017","Forced-choice identification task with a practice and an experimental phase","yes","NAP-FC_GER_AA_ver-1.osexp","/Users/aviadalbert/Documents/Academisch/UoC/Dissertation/Experiment/OpenSesame/NAP-FC/NAP-FC_GER_AA/GER_AA_ver-1","yes","no","sans","no","20","no","black","no","Next","yes","768","legacy","47","9","0","/Users/aviadalbert/Documents/Academisch/UoC/Dissertation/Experiment/OpenSesame/NAP-FC/NAP-FC_GER_AA/GER_AA_ver-1/subject-2.csv","xpyriment","Jazzy James","3.1.6","yes","yes","59504085b83f69022b47a751","595041f76c613b022ae3ecdb","no","no","0","f","f","space","NA","return","return","f","806","2531","16949","NA","18040","24450","806","2","legacy","1024","1","44100","-16","experiment","fnal","30","Konstanz, Germany","1","0","1","german","english","2","even","Cologne, Germany","1470734","1453485","NA","1473266","1470726","NA","1222535","1470496","1222537","1222537","1377987","1396032","1606565","1605057","1607372","1424867","1420760","1453483","1262737","1362859","1451810","1420543","1470731","1420765","NA","1606562","1606563","1500248","1500245","1605051","NAP perception","39","47432","48","yes","1024"
"79.5918367347","yes","79.5918367347","987.897959184","987.897959184","white","no","xpyriment","I have read and understood the information shown above","legacy","legacy","0","uniform","0","0","0","undefined","undefined","0","f","1","0","NA","0","0","0","0","0","0","0","0","0","58","58","58","0","0","0","0","0","1","0","0","0","1","58","58","58","58","58","Wed Jun 28 14:54:38 2017","Forced-choice identification task with a practice and an experimental phase","yes","NAP-FC_GER_AA_ver-1.osexp","/Users/aviadalbert/Documents/Academisch/UoC/Dissertation/Experiment/OpenSesame/NAP-FC/NAP-FC_GER_AA/GER_AA_ver-1","yes","no","sans","no","20","no","black","no","Next","yes","768","legacy","48","9","0","/Users/aviadalbert/Documents/Academisch/UoC/Dissertation/Experiment/OpenSesame/NAP-FC/NAP-FC_GER_AA/GER_AA_ver-1/subject-2.csv","xpyriment","Jazzy James","3.1.6","yes","yes","59504085b83f69022b47a751","595041f76c613b022ae3ecdb","no","no","0","j","f","space","NA","return","return","j","975","2531","16949","NA","18040","24450","975","2","legacy","1024","1","44100","-16","experiment","nmal","30","Konstanz, Germany","1","0","1","german","english","2","even","Cologne, Germany","1470734","1453485","NA","1473266","1470726","NA","1222535","1470496","1222537","1222537","1377987","1396032","1609158","1607649","1610137","1424867","1420760","1453483","1262737","1362859","1451810","1420543","1470731","1420765","NA","1609155","1609155","1500248","1500245","1607643","NAP perception","39","48407","49","yes","1024"
"80","yes","80","990.48","990.48","white","no","xpyriment","I have read and understood the information shown above","legacy","legacy","0","uniform","1","0","0","undefined","undefined","1","f","1","0","NA","0","0","0","0","0","0","0","0","0","59","59","59","0","0","0","0","0","1","0","0","0","1","59","59","59","59","59","Wed Jun 28 14:54:38 2017","Forced-choice identification task with a practice and an experimental phase","yes","NAP-FC_GER_AA_ver-1.osexp","/Users/aviadalbert/Documents/Academisch/UoC/Dissertation/Experiment/OpenSesame/NAP-FC/NAP-FC_GER_AA/GER_AA_ver-1","yes","no","sans","no","20","no","black","no","Next","yes","768","legacy","49","9","0","/Users/aviadalbert/Documents/Academisch/UoC/Dissertation/Experiment/OpenSesame/NAP-FC/NAP-FC_GER_AA/GER_AA_ver-1/subject-2.csv","xpyriment","Jazzy James","3.1.6","yes","yes","59504085b83f69022b47a751","595041f76c613b022ae3ecdb","no","no","0","f","f","space","NA","return","return","f","1117","2531","16949","NA","18040","24450","1117","2","legacy","1024","1","44100","-16","experiment","mtal","30","Konstanz, Germany","1","0","1","german","english","2","even","Cologne, Germany","1470734","1453485","NA","1473266","1470726","NA","1222535","1470496","1222537","1222537","1377987","1396032","1611914","1610402","1613034","1424867","1420760","1453483","1262737","1362859","1451810","1420543","1470731","1420765","NA","1611911","1611912","1500248","1500245","1610397","NAP perception","40","49524","50","yes","1024"
"80.3921568627","yes","80.3921568627","988.843137255","988.843137255","white","no","xpyriment","I have read and understood the information shown above","legacy","legacy","0","uniform","1","0","0","undefined","undefined","1","j","1","0","NA","0","0","0","0","0","0","0","0","0","60","60","60","0","0","0","0","0","1","0","0","0","1","60","60","60","60","60","Wed Jun 28 14:54:38 2017","Forced-choice identification task with a practice and an experimental phase","yes","NAP-FC_GER_AA_ver-1.osexp","/Users/aviadalbert/Documents/Academisch/UoC/Dissertation/Experiment/OpenSesame/NAP-FC/NAP-FC_GER_AA/GER_AA_ver-1","yes","no","sans","no","20","no","black","no","Next","yes","768","legacy","50","9","0","/Users/aviadalbert/Documents/Academisch/UoC/Dissertation/Experiment/OpenSesame/NAP-FC/NAP-FC_GER_AA/GER_AA_ver-1/subject-2.csv","xpyriment","Jazzy James","3.1.6","yes","yes","59504085b83f69022b47a751","595041f76c613b022ae3ecdb","no","no","0","j","f","space","NA","return","return","j","907","2531","16949","NA","18040","24450","907","2","legacy","1024","1","44100","-16","experiment","elval","30","Konstanz, Germany","1","0","1","german","english","2","even","Cologne, Germany","1470734","1453485","NA","1473266","1470726","NA","1222535","1470496","1222537","1222537","1377987","1396032","1614818","1613312","1615727","1424867","1420760","1453483","1262737","1362859","1451810","1420543","1470731","1420765","NA","1614818","1614818","1500248","1500245","1613307","NAP perception","41","50431","51","yes","1024"
"80.7692307692","yes","80.7692307692","986.884615385","986.884615385","white","no","xpyriment","I have read and understood the information shown above","legacy","legacy","0","uniform","1","0","0","undefined","undefined","1","j","1","0","NA","0","0","0","0","0","0","0","0","0","61","61","61","0","0","0","0","0","1","0","0","0","1","61","61","61","61","61","Wed Jun 28 14:54:38 2017","Forced-choice identification task with a practice and an experimental phase","yes","NAP-FC_GER_AA_ver-1.osexp","/Users/aviadalbert/Documents/Academisch/UoC/Dissertation/Experiment/OpenSesame/NAP-FC/NAP-FC_GER_AA/GER_AA_ver-1","yes","no","sans","no","20","no","black","no","Next","yes","768","legacy","51","9","0","/Users/aviadalbert/Documents/Academisch/UoC/Dissertation/Experiment/OpenSesame/NAP-FC/NAP-FC_GER_AA/GER_AA_ver-1/subject-2.csv","xpyriment","Jazzy James","3.1.6","yes","yes","59504085b83f69022b47a751","595041f76c613b022ae3ecdb","no","no","0","j","f","space","NA","return","return","j","887","2531","16949","NA","18040","24450","887","2","legacy","1024","1","44100","-16","experiment","eʃmal","30","Konstanz, Germany","1","0","1","german","english","2","even","Cologne, Germany","1470734","1453485","NA","1473266","1470726","NA","1222535","1470496","1222537","1222537","1377987","1396032","1617511","1616003","1618400","1424867","1420760","1453483","1262737","1362859","1451810","1420543","1470731","1420765","NA","1617510","1617511","1500248","1500245","1615998","NAP perception","42","51318","52","yes","1024"
"81.1320754717","yes","81.1320754717","985.433962264","985.433962264","white","no","xpyriment","I have read and understood the information shown above","legacy","legacy","0","uniform","1","0","0","undefined","undefined","1","j","1","0","NA","0","0","0","0","0","0","0","0","0","62","62","62","0","0","0","0","0","1","0","0","0","1","62","62","62","62","62","Wed Jun 28 14:54:38 2017","Forced-choice identification task with a practice and an experimental phase","yes","NAP-FC_GER_AA_ver-1.osexp","/Users/aviadalbert/Documents/Academisch/UoC/Dissertation/Experiment/OpenSesame/NAP-FC/NAP-FC_GER_AA/GER_AA_ver-1","yes","no","sans","no","20","no","black","no","Next","yes","768","legacy","52","9","0","/Users/aviadalbert/Documents/Academisch/UoC/Dissertation/Experiment/OpenSesame/NAP-FC/NAP-FC_GER_AA/GER_AA_ver-1/subject-2.csv","xpyriment","Jazzy James","3.1.6","yes","yes","59504085b83f69022b47a751","595041f76c613b022ae3ecdb","no","no","0","j","f","space","NA","return","return","j","910","2531","16949","NA","18040","24450","910","2","legacy","1024","1","44100","-16","experiment","menal","30","Konstanz, Germany","1","0","1","german","english","2","even","Cologne, Germany","1470734","1453485","NA","1473266","1470726","NA","1222535","1470496","1222537","1222537","1377987","1396032","1620200","1618691","1621112","1424867","1420760","1453483","1262737","1362859","1451810","1420543","1470731","1420765","NA","1620200","1620200","1500248","1500245","1618685","NAP perception","43","52228","53","yes","1024"
"81.4814814815","yes","81.4814814815","983","983","white","no","xpyriment","I have read and understood the information shown above","legacy","legacy","0","uniform","1","0","0","undefined","undefined","1","j","1","0","NA","0","0","0","0","0","0","0","0","0","63","63","63","0","0","0","0","0","1","0","0","0","1","63","63","63","63","63","Wed Jun 28 14:54:38 2017","Forced-choice identification task with a practice and an experimental phase","yes","NAP-FC_GER_AA_ver-1.osexp","/Users/aviadalbert/Documents/Academisch/UoC/Dissertation/Experiment/OpenSesame/NAP-FC/NAP-FC_GER_AA/GER_AA_ver-1","yes","no","sans","no","20","no","black","no","Next","yes","768","legacy","53","9","0","/Users/aviadalbert/Documents/Academisch/UoC/Dissertation/Experiment/OpenSesame/NAP-FC/NAP-FC_GER_AA/GER_AA_ver-1/subject-2.csv","xpyriment","Jazzy James","3.1.6","yes","yes","59504085b83f69022b47a751","595041f76c613b022ae3ecdb","no","no","0","j","f","space","NA","return","return","j","854","2531","16949","NA","18040","24450","854","2","legacy","1024","1","44100","-16","experiment","lemal","30","Konstanz, Germany","1","0","1","german","english","2","even","Cologne, Germany","1470734","1453485","NA","1473266","1470726","NA","1222535","1470496","1222537","1222537","1377987","1396032","1622900","1621393","1623756","1424867","1420760","1453483","1262737","1362859","1451810","1420543","1470731","1420765","NA","1622900","1622900","1500248","1500245","1621387","NAP perception","44","53082","54","yes","1024"
"81.8181818182","yes","81.8181818182","978.181818182","978.181818182","white","no","xpyriment","I have read and understood the information shown above","legacy","legacy","0","uniform","1","0","0","undefined","undefined","1","f","1","0","NA","0","0","0","0","0","0","0","0","0","64","64","64","0","0","0","0","0","1","0","0","0","1","64","64","64","64","64","Wed Jun 28 14:54:38 2017","Forced-choice identification task with a practice and an experimental phase","yes","NAP-FC_GER_AA_ver-1.osexp","/Users/aviadalbert/Documents/Academisch/UoC/Dissertation/Experiment/OpenSesame/NAP-FC/NAP-FC_GER_AA/GER_AA_ver-1","yes","no","sans","no","20","no","black","no","Next","yes","768","legacy","54","9","0","/Users/aviadalbert/Documents/Academisch/UoC/Dissertation/Experiment/OpenSesame/NAP-FC/NAP-FC_GER_AA/GER_AA_ver-1/subject-2.csv","xpyriment","Jazzy James","3.1.6","yes","yes","59504085b83f69022b47a751","595041f76c613b022ae3ecdb","no","no","0","f","f","space","NA","return","return","f","718","2531","16949","NA","18040","24450","718","2","legacy","1024","1","44100","-16","experiment","ʃpal","30","Konstanz, Germany","1","0","1","german","english","2","even","Cologne, Germany","1470734","1453485","NA","1473266","1470726","NA","1222535","1470496","1222537","1222537","1377987","1396032","1625531","1624022","1626252","1424867","1420760","1453483","1262737","1362859","1451810","1420543","1470731","1420765","NA","1625531","1625531","1500248","1500245","1624016","NAP perception","45","53800","55","yes","1024"
