"acc","accept_status","accuracy","average_response_time","avg_rt","background","bidi","canvas_backend","checkbox_status","clock_backend","color_backend","compensation","coordinates","correct","correct_block_activation","correct_block_exit","correct_instructions_1","correct_instructions_2","correct_keyboard_response","correct_response","count_block_activation","count_block_exit","count_block_info_QA","count_e_block_loop","count_e_block_sequence","count_end_of_experiment","count_experiment","count_experimental_loop","count_form_consent","count_info_forms","count_instructions_1","count_instructions_2","count_keyboard_response","count_listen_message","count_logger","count_p_block_loop","count_p_block_sequence","count_p_feedback","count_personal_details_form_1","count_personal_details_form_2","count_post_loop_blank","count_practice_loop","count_pre_e_block_message","count_pre_p_block_message","count_reset_feedback","count_stimulus_image","count_stimulus_sound","count_timeout_message","count_timeout_sound","count_trial_sequence","datetime","description","disable_garbage_collection","experiment_file","experiment_path","expyriment_opengl","font_bold","font_family","font_italic","font_size","font_underline","foreground","form_clicks","form_response","fullscreen","height","keyboard_backend","live_row","live_row_p_block_loop","live_row_practice_loop","logfile","mouse_backend","opensesame_codename","opensesame_version","osf_always_upload_data","osf_always_upload_experiment","osf_datanode_id","osf_id","practice","pygame_doublebuf","repeat_cycle","response","response_block_activation","response_block_exit","response_block_info_QA","response_instructions_1","response_instructions_2","response_keyboard_response","response_time","response_time_block_activation","response_time_block_exit","response_time_block_info_QA","response_time_instructions_1","response_time_instructions_2","response_time_keyboard_response","round_decimals","sampler_backend","sound_buf_size","sound_channels","sound_freq","sound_sample_size","start","stimulus","subject_age","subject_birth","subject_education","subject_gender","subject_handedness","subject_language_native","subject_language_other","subject_nr","subject_parity","subject_residence","time_block_activation","time_block_exit","time_block_info_QA","time_e_block_loop","time_e_block_sequence","time_end_of_experiment","time_experiment","time_experimental_loop","time_form_consent","time_info_forms","time_instructions_1","time_instructions_2","time_keyboard_response","time_listen_message","time_logger","time_p_block_loop","time_p_block_sequence","time_p_feedback","time_personal_details_form_1","time_personal_details_form_2","time_post_loop_blank","time_practice_loop","time_pre_e_block_message","time_pre_p_block_message","time_reset_feedback","time_stimulus_image","time_stimulus_sound","time_timeout_message","time_timeout_sound","time_trial_sequence","title","total_correct","total_response_time","total_responses","uniform_coordinates","width"
"0","yes","0","1439","1439","white","no","xpyriment","I have read and understood the information shown above","legacy","legacy","0","uniform","0","0","NA","undefined","undefined","0","f","0","0","NA","NA","NA","NA","0","0","0","0","0","0","0","0","0","0","0","NA","0","0","0","0","NA","0","0","0","0","0","0","0","Wed Jun 28 15:06:53 2017","Forced-choice identification task with a practice and an experimental phase","yes","NAP-FC_GER_AA_ver-2.osexp","/Users/aviadalbert/Documents/Academisch/UoC/Dissertation/Experiment/OpenSesame/NAP-FC/NAP-FC_GER_AA/GER_AA_ver-2","yes","no","sans","no","20","no","black","no","Next","yes","768","legacy","0","0","0","/Users/aviadalbert/Documents/Academisch/UoC/Dissertation/Experiment/OpenSesame/NAP-FC/NAP-FC_GER_AA/GER_AA_ver-2/subject-2.csv","xpyriment","Jazzy James","3.1.6","yes","yes","5950408a6c613b0229e3e810","59504237594d9002288b1720","yes","no","0","j","f","NA","NA","space","space","j","1439","22303","NA","NA","19749","10590","1439","2","legacy","1024","1","44100","-16","experiment","flal","24","Regensburg","1","0","1","German","English, Spanish Italian, French","2","even","Cologne, Munich","191131","NA","NA","NA","NA","NA","1474","NA","1475","1475","160510","180264","215149","213642","216589","213435","191127","NA","29540","134802","NA","190917","NA","191131","NA","215149","215149","NA","NA","213639","NAP perception","0","1439","1","yes","1024"
"50","yes","50","1140.5","1140.5","white","no","xpyriment","I have read and understood the information shown above","legacy","legacy","0","uniform","1","0","NA","undefined","undefined","1","j","0","0","NA","NA","NA","NA","0","0","0","0","0","0","1","1","1","0","0","NA","0","0","0","0","NA","0","0","1","1","1","1","1","Wed Jun 28 15:06:53 2017","Forced-choice identification task with a practice and an experimental phase","yes","NAP-FC_GER_AA_ver-2.osexp","/Users/aviadalbert/Documents/Academisch/UoC/Dissertation/Experiment/OpenSesame/NAP-FC/NAP-FC_GER_AA/GER_AA_ver-2","yes","no","sans","no","20","no","black","no","Next","yes","768","legacy","1","1","0","/Users/aviadalbert/Documents/Academisch/UoC/Dissertation/Experiment/OpenSesame/NAP-FC/NAP-FC_GER_AA/GER_AA_ver-2/subject-2.csv","xpyriment","Jazzy James","3.1.6","yes","yes","5950408a6c613b0229e3e810","59504237594d9002288b1720","yes","no","0","j","f","NA","NA","space","space","j","842","22303","NA","NA","19749","10590","842","2","legacy","1024","1","44100","-16","experiment","lepal","24","Regensburg","1","0","1","German","English, Spanish Italian, French","2","even","Cologne, Munich","191131","NA","NA","NA","NA","NA","1474","NA","1475","1475","160510","180264","218357","216853","219200","213435","191127","NA","29540","134802","NA","190917","NA","191131","NA","218357","218357","NA","NA","216849","NAP perception","1","2281","2","yes","1024"
"66.6666666667","yes","66.6666666667","1049.33333333","1049.33333333","white","no","xpyriment","I have read and understood the information shown above","legacy","legacy","0","uniform","1","0","NA","undefined","undefined","1","j","0","0","NA","NA","NA","NA","0","0","0","0","0","0","2","2","2","0","0","NA","0","0","0","0","NA","0","0","2","2","2","2","2","Wed Jun 28 15:06:53 2017","Forced-choice identification task with a practice and an experimental phase","yes","NAP-FC_GER_AA_ver-2.osexp","/Users/aviadalbert/Documents/Academisch/UoC/Dissertation/Experiment/OpenSesame/NAP-FC/NAP-FC_GER_AA/GER_AA_ver-2","yes","no","sans","no","20","no","black","no","Next","yes","768","legacy","2","2","0","/Users/aviadalbert/Documents/Academisch/UoC/Dissertation/Experiment/OpenSesame/NAP-FC/NAP-FC_GER_AA/GER_AA_ver-2/subject-2.csv","xpyriment","Jazzy James","3.1.6","yes","yes","5950408a6c613b0229e3e810","59504237594d9002288b1720","yes","no","0","j","f","NA","NA","space","space","j","867","22303","NA","NA","19749","10590","867","2","legacy","1024","1","44100","-16","experiment","emtal","24","Regensburg","1","0","1","German","English, Spanish Italian, French","2","even","Cologne, Munich","191131","NA","NA","NA","NA","NA","1474","NA","1475","1475","160510","180264","220979","219471","221847","213435","191127","NA","29540","134802","NA","190917","NA","191131","NA","220979","220979","NA","NA","219467","NAP perception","2","3148","3","yes","1024"
"75","yes","75","952","952","white","no","xpyriment","I have read and understood the information shown above","legacy","legacy","0","uniform","1","0","NA","undefined","undefined","1","f","0","0","NA","NA","NA","NA","0","0","0","0","0","0","3","3","3","0","0","NA","0","0","0","0","NA","0","0","3","3","3","3","3","Wed Jun 28 15:06:53 2017","Forced-choice identification task with a practice and an experimental phase","yes","NAP-FC_GER_AA_ver-2.osexp","/Users/aviadalbert/Documents/Academisch/UoC/Dissertation/Experiment/OpenSesame/NAP-FC/NAP-FC_GER_AA/GER_AA_ver-2","yes","no","sans","no","20","no","black","no","Next","yes","768","legacy","3","3","0","/Users/aviadalbert/Documents/Academisch/UoC/Dissertation/Experiment/OpenSesame/NAP-FC/NAP-FC_GER_AA/GER_AA_ver-2/subject-2.csv","xpyriment","Jazzy James","3.1.6","yes","yes","5950408a6c613b0229e3e810","59504237594d9002288b1720","yes","no","0","f","f","NA","NA","space","space","f","660","22303","NA","NA","19749","10590","660","2","legacy","1024","1","44100","-16","experiment","ﾊパal","24","Regensburg","1","0","1","German","English, Spanish Italian, French","2","even","Cologne, Munich","191131","NA","NA","NA","NA","NA","1474","NA","1475","1475","160510","180264","223626","222119","224287","213435","191127","NA","29540","134802","NA","190917","NA","191131","NA","223625","223625","NA","NA","222115","NAP perception","3","3808","4","yes","1024"
"80","yes","80","886.6","886.6","white","no","xpyriment","I have read and understood the information shown above","legacy","legacy","0","uniform","1","0","NA","undefined","undefined","1","j","0","0","NA","NA","NA","NA","0","0","0","0","0","0","4","4","4","0","0","NA","0","0","0","0","NA","0","0","4","4","4","4","4","Wed Jun 28 15:06:53 2017","Forced-choice identification task with a practice and an experimental phase","yes","NAP-FC_GER_AA_ver-2.osexp","/Users/aviadalbert/Documents/Academisch/UoC/Dissertation/Experiment/OpenSesame/NAP-FC/NAP-FC_GER_AA/GER_AA_ver-2","yes","no","sans","no","20","no","black","no","Next","yes","768","legacy","4","4","0","/Users/aviadalbert/Documents/Academisch/UoC/Dissertation/Experiment/OpenSesame/NAP-FC/NAP-FC_GER_AA/GER_AA_ver-2/subject-2.csv","xpyriment","Jazzy James","3.1.6","yes","yes","5950408a6c613b0229e3e810","59504237594d9002288b1720","yes","no","0","j","f","NA","NA","space","space","j","625","22303","NA","NA","19749","10590","625","2","legacy","1024","1","44100","-16","experiment","nefal","24","Regensburg","1","0","1","German","English, Spanish Italian, French","2","even","Cologne, Munich","191131","NA","NA","NA","NA","NA","1474","NA","1475","1475","160510","180264","226066","224562","226692","213435","191127","NA","29540","134802","NA","190917","NA","191131","NA","226066","226066","NA","NA","224558","NAP perception","4","4433","5","yes","1024"
"83.3333333333","yes","83.3333333333","852.666666667","852.666666667","white","no","xpyriment","I have read and understood the information shown above","legacy","legacy","0","uniform","1","0","NA","undefined","undefined","1","f","0","0","NA","NA","NA","NA","0","0","0","0","0","0","5","5","5","0","0","NA","0","0","0","0","NA","0","0","5","5","5","5","5","Wed Jun 28 15:06:53 2017","Forced-choice identification task with a practice and an experimental phase","yes","NAP-FC_GER_AA_ver-2.osexp","/Users/aviadalbert/Documents/Academisch/UoC/Dissertation/Experiment/OpenSesame/NAP-FC/NAP-FC_GER_AA/GER_AA_ver-2","yes","no","sans","no","20","no","black","no","Next","yes","768","legacy","5","5","0","/Users/aviadalbert/Documents/Academisch/UoC/Dissertation/Experiment/OpenSesame/NAP-FC/NAP-FC_GER_AA/GER_AA_ver-2/subject-2.csv","xpyriment","Jazzy James","3.1.6","yes","yes","5950408a6c613b0229e3e810","59504237594d9002288b1720","yes","no","0","f","f","NA","NA","space","space","f","683","22303","NA","NA","19749","10590","683","2","legacy","1024","1","44100","-16","experiment","sfal","24","Regensburg","1","0","1","German","English, Spanish Italian, French","2","even","Cologne, Munich","191131","NA","NA","NA","NA","NA","1474","NA","1475","1475","160510","180264","228468","226964","229153","213435","191127","NA","29540","134802","NA","190917","NA","191131","NA","228468","228468","NA","NA","226960","NAP perception","5","5116","6","yes","1024"
"71.4285714286","yes","71.4285714286","820.142857143","820.142857143","white","no","xpyriment","I have read and understood the information shown above","legacy","legacy","0","uniform","0","0","NA","undefined","undefined","0","f","0","0","NA","NA","NA","NA","0","0","0","0","0","0","6","6","6","0","0","NA","0","0","0","0","NA","0","0","6","6","6","6","6","Wed Jun 28 15:06:53 2017","Forced-choice identification task with a practice and an experimental phase","yes","NAP-FC_GER_AA_ver-2.osexp","/Users/aviadalbert/Documents/Academisch/UoC/Dissertation/Experiment/OpenSesame/NAP-FC/NAP-FC_GER_AA/GER_AA_ver-2","yes","no","sans","no","20","no","black","no","Next","yes","768","legacy","6","6","0","/Users/aviadalbert/Documents/Academisch/UoC/Dissertation/Experiment/OpenSesame/NAP-FC/NAP-FC_GER_AA/GER_AA_ver-2/subject-2.csv","xpyriment","Jazzy James","3.1.6","yes","yes","5950408a6c613b0229e3e810","59504237594d9002288b1720","yes","no","0","j","f","NA","NA","space","space","j","625","22303","NA","NA","19749","10590","625","2","legacy","1024","1","44100","-16","experiment","zmal","24","Regensburg","1","0","1","German","English, Spanish Italian, French","2","even","Cologne, Munich","191131","NA","NA","NA","NA","NA","1474","NA","1475","1475","160510","180264","230934","229430","231561","213435","191127","NA","29540","134802","NA","190917","NA","191131","NA","230933","230934","NA","NA","229426","NAP perception","5","5741","7","yes","1024"
"75","yes","75","861.625","861.625","white","no","xpyriment","I have read and understood the information shown above","legacy","legacy","0","uniform","1","0","NA","undefined","undefined","1","j","0","0","NA","NA","NA","NA","0","0","0","0","0","0","7","7","7","0","0","NA","0","0","0","0","NA","0","0","7","7","7","7","7","Wed Jun 28 15:06:53 2017","Forced-choice identification task with a practice and an experimental phase","yes","NAP-FC_GER_AA_ver-2.osexp","/Users/aviadalbert/Documents/Academisch/UoC/Dissertation/Experiment/OpenSesame/NAP-FC/NAP-FC_GER_AA/GER_AA_ver-2","yes","no","sans","no","20","no","black","no","Next","yes","768","legacy","7","7","0","/Users/aviadalbert/Documents/Academisch/UoC/Dissertation/Experiment/OpenSesame/NAP-FC/NAP-FC_GER_AA/GER_AA_ver-2/subject-2.csv","xpyriment","Jazzy James","3.1.6","yes","yes","5950408a6c613b0229e3e810","59504237594d9002288b1720","yes","no","0","j","f","NA","NA","space","space","j","1152","22303","NA","NA","19749","10590","1152","2","legacy","1024","1","44100","-16","experiment","jeval","24","Regensburg","1","0","1","German","English, Spanish Italian, French","2","even","Cologne, Munich","191131","NA","NA","NA","NA","NA","1474","NA","1475","1475","160510","180264","233335","231832","234488","213435","191127","NA","29540","134802","NA","190917","NA","191131","NA","233335","233335","NA","NA","231828","NAP perception","6","6893","8","yes","1024"
"66.6666666667","yes","66.6666666667","860.666666667","860.666666667","white","no","xpyriment","I have read and understood the information shown above","legacy","legacy","0","uniform","0","0","NA","undefined","undefined","0","j","0","0","NA","NA","NA","NA","0","0","0","0","0","0","8","8","8","0","0","NA","0","0","0","0","NA","0","0","8","8","8","8","8","Wed Jun 28 15:06:53 2017","Forced-choice identification task with a practice and an experimental phase","yes","NAP-FC_GER_AA_ver-2.osexp","/Users/aviadalbert/Documents/Academisch/UoC/Dissertation/Experiment/OpenSesame/NAP-FC/NAP-FC_GER_AA/GER_AA_ver-2","yes","no","sans","no","20","no","black","no","Next","yes","768","legacy","8","8","0","/Users/aviadalbert/Documents/Academisch/UoC/Dissertation/Experiment/OpenSesame/NAP-FC/NAP-FC_GER_AA/GER_AA_ver-2/subject-2.csv","xpyriment","Jazzy James","3.1.6","yes","yes","5950408a6c613b0229e3e810","59504237594d9002288b1720","yes","no","0","f","f","NA","NA","space","space","f","853","22303","NA","NA","19749","10590","853","2","legacy","1024","1","44100","-16","experiment","enval","24","Regensburg","1","0","1","German","English, Spanish Italian, French","2","even","Cologne, Munich","191131","NA","NA","NA","NA","NA","1474","NA","1475","1475","160510","180264","236246","234742","237101","213435","191127","NA","29540","134802","NA","190917","NA","191131","NA","236245","236245","NA","NA","234738","NAP perception","6","7746","9","yes","1024"
"70","yes","70","845.7","845.7","white","no","xpyriment","I have read and understood the information shown above","legacy","legacy","0","uniform","1","0","NA","undefined","undefined","1","f","0","0","NA","NA","NA","NA","0","0","0","0","0","0","9","9","9","0","0","NA","0","0","0","0","NA","0","0","9","9","9","9","9","Wed Jun 28 15:06:53 2017","Forced-choice identification task with a practice and an experimental phase","yes","NAP-FC_GER_AA_ver-2.osexp","/Users/aviadalbert/Documents/Academisch/UoC/Dissertation/Experiment/OpenSesame/NAP-FC/NAP-FC_GER_AA/GER_AA_ver-2","yes","no","sans","no","20","no","black","no","Next","yes","768","legacy","9","9","0","/Users/aviadalbert/Documents/Academisch/UoC/Dissertation/Experiment/OpenSesame/NAP-FC/NAP-FC_GER_AA/GER_AA_ver-2/subject-2.csv","xpyriment","Jazzy James","3.1.6","yes","yes","5950408a6c613b0229e3e810","59504237594d9002288b1720","yes","no","0","f","f","NA","NA","space","space","f","711","22303","NA","NA","19749","10590","711","2","legacy","1024","1","44100","-16","experiment","vlal","24","Regensburg","1","0","1","German","English, Spanish Italian, French","2","even","Cologne, Munich","191131","NA","NA","NA","NA","NA","1474","NA","1475","1475","160510","180264","238883","237374","239595","213435","191127","NA","29540","134802","NA","190917","NA","191131","NA","238882","238882","NA","NA","237370","NAP perception","7","8457","10","yes","1024"
"100","yes","100","806","806","white","no","xpyriment","I have read and understood the information shown above","legacy","legacy","0","uniform","1","0","0","undefined","undefined","1","j","1","0","NA","0","0","0","0","0","0","0","0","0","10","10","10","0","0","0","0","0","1","0","0","0","1","10","10","10","10","10","Wed Jun 28 15:06:53 2017","Forced-choice identification task with a practice and an experimental phase","yes","NAP-FC_GER_AA_ver-2.osexp","/Users/aviadalbert/Documents/Academisch/UoC/Dissertation/Experiment/OpenSesame/NAP-FC/NAP-FC_GER_AA/GER_AA_ver-2","yes","no","sans","no","20","no","black","no","Next","yes","768","legacy","0","9","0","/Users/aviadalbert/Documents/Academisch/UoC/Dissertation/Experiment/OpenSesame/NAP-FC/NAP-FC_GER_AA/GER_AA_ver-2/subject-2.csv","xpyriment","Jazzy James","3.1.6","yes","yes","5950408a6c613b0229e3e810","59504237594d9002288b1720","no","no","0","j","f","space","NA","space","space","j","806","2512","9674","NA","19749","10590","806","2","legacy","1024","1","44100","-16","experiment","wezal","24","Regensburg","1","0","1","German","English, Spanish Italian, French","2","even","Cologne, Munich","251292","241332","NA","253805","251288","NA","1474","251062","1475","1475","160510","180264","255523","254020","256331","213435","191127","241331","29540","134802","239658","190917","251291","191131","NA","255523","255523","NA","NA","254016","NAP perception","1","806","1","yes","1024"
"100","yes","100","1164.5","1164.5","white","no","xpyriment","I have read and understood the information shown above","legacy","legacy","0","uniform","1","0","0","undefined","undefined","1","f","1","0","NA","0","0","0","0","0","0","0","0","0","11","11","11","0","0","0","0","0","1","0","0","0","1","11","11","11","11","11","Wed Jun 28 15:06:53 2017","Forced-choice identification task with a practice and an experimental phase","yes","NAP-FC_GER_AA_ver-2.osexp","/Users/aviadalbert/Documents/Academisch/UoC/Dissertation/Experiment/OpenSesame/NAP-FC/NAP-FC_GER_AA/GER_AA_ver-2","yes","no","sans","no","20","no","black","no","Next","yes","768","legacy","1","9","0","/Users/aviadalbert/Documents/Academisch/UoC/Dissertation/Experiment/OpenSesame/NAP-FC/NAP-FC_GER_AA/GER_AA_ver-2/subject-2.csv","xpyriment","Jazzy James","3.1.6","yes","yes","5950408a6c613b0229e3e810","59504237594d9002288b1720","no","no","0","f","f","space","NA","space","space","f","1523","2512","9674","NA","19749","10590","1523","2","legacy","1024","1","44100","-16","experiment","jpal","24","Regensburg","1","0","1","German","English, Spanish Italian, French","2","even","Cologne, Munich","251292","241332","NA","253805","251288","NA","1474","251062","1475","1475","160510","180264","258100","256596","259624","213435","191127","241331","29540","134802","239658","190917","251291","191131","NA","258099","258099","NA","NA","256592","NAP perception","2","2329","2","yes","1024"
"100","yes","100","1024.33333333","1024.33333333","white","no","xpyriment","I have read and understood the information shown above","legacy","legacy","0","uniform","1","0","0","undefined","undefined","1","f","1","0","NA","0","0","0","0","0","0","0","0","0","12","12","12","0","0","0","0","0","1","0","0","0","1","12","12","12","12","12","Wed Jun 28 15:06:53 2017","Forced-choice identification task with a practice and an experimental phase","yes","NAP-FC_GER_AA_ver-2.osexp","/Users/aviadalbert/Documents/Academisch/UoC/Dissertation/Experiment/OpenSesame/NAP-FC/NAP-FC_GER_AA/GER_AA_ver-2","yes","no","sans","no","20","no","black","no","Next","yes","768","legacy","2","9","0","/Users/aviadalbert/Documents/Academisch/UoC/Dissertation/Experiment/OpenSesame/NAP-FC/NAP-FC_GER_AA/GER_AA_ver-2/subject-2.csv","xpyriment","Jazzy James","3.1.6","yes","yes","5950408a6c613b0229e3e810","59504237594d9002288b1720","no","no","0","f","f","space","NA","space","space","f","744","2512","9674","NA","19749","10590","744","2","legacy","1024","1","44100","-16","experiment","flal","24","Regensburg","1","0","1","German","English, Spanish Italian, French","2","even","Cologne, Munich","251292","241332","NA","253805","251288","NA","1474","251062","1475","1475","160510","180264","261405","259899","262150","213435","191127","241331","29540","134802","239658","190917","251291","191131","NA","261405","261405","NA","NA","259895","NAP perception","3","3073","3","yes","1024"
"100","yes","100","1006","1006","white","no","xpyriment","I have read and understood the information shown above","legacy","legacy","0","uniform","1","0","0","undefined","undefined","1","f","1","0","NA","0","0","0","0","0","0","0","0","0","13","13","13","0","0","0","0","0","1","0","0","0","1","13","13","13","13","13","Wed Jun 28 15:06:53 2017","Forced-choice identification task with a practice and an experimental phase","yes","NAP-FC_GER_AA_ver-2.osexp","/Users/aviadalbert/Documents/Academisch/UoC/Dissertation/Experiment/OpenSesame/NAP-FC/NAP-FC_GER_AA/GER_AA_ver-2","yes","no","sans","no","20","no","black","no","Next","yes","768","legacy","3","9","0","/Users/aviadalbert/Documents/Academisch/UoC/Dissertation/Experiment/OpenSesame/NAP-FC/NAP-FC_GER_AA/GER_AA_ver-2/subject-2.csv","xpyriment","Jazzy James","3.1.6","yes","yes","5950408a6c613b0229e3e810","59504237594d9002288b1720","no","no","0","f","f","space","NA","space","space","f","951","2512","9674","NA","19749","10590","951","2","legacy","1024","1","44100","-16","experiment","mnal","24","Regensburg","1","0","1","German","English, Spanish Italian, French","2","even","Cologne, Munich","251292","241332","NA","253805","251288","NA","1474","251062","1475","1475","160510","180264","263918","262410","264870","213435","191127","241331","29540","134802","239658","190917","251291","191131","NA","263917","263917","NA","NA","262406","NAP perception","4","4024","4","yes","1024"
"100","yes","100","970.2","970.2","white","no","xpyriment","I have read and understood the information shown above","legacy","legacy","0","uniform","1","0","0","undefined","undefined","1","j","1","0","NA","0","0","0","0","0","0","0","0","0","14","14","14","0","0","0","0","0","1","0","0","0","1","14","14","14","14","14","Wed Jun 28 15:06:53 2017","Forced-choice identification task with a practice and an experimental phase","yes","NAP-FC_GER_AA_ver-2.osexp","/Users/aviadalbert/Documents/Academisch/UoC/Dissertation/Experiment/OpenSesame/NAP-FC/NAP-FC_GER_AA/GER_AA_ver-2","yes","no","sans","no","20","no","black","no","Next","yes","768","legacy","4","9","0","/Users/aviadalbert/Documents/Academisch/UoC/Dissertation/Experiment/OpenSesame/NAP-FC/NAP-FC_GER_AA/GER_AA_ver-2/subject-2.csv","xpyriment","Jazzy James","3.1.6","yes","yes","5950408a6c613b0229e3e810","59504237594d9002288b1720","no","no","0","j","f","space","NA","space","space","j","827","2512","9674","NA","19749","10590","827","2","legacy","1024","1","44100","-16","experiment","ﾊテpal","24","Regensburg","1","0","1","German","English, Spanish Italian, French","2","even","Cologne, Munich","251292","241332","NA","253805","251288","NA","1474","251062","1475","1475","160510","180264","266635","265132","267463","213435","191127","241331","29540","134802","239658","190917","251291","191131","NA","266635","266635","NA","NA","265128","NAP perception","5","4851","5","yes","1024"
"100","yes","100","944","944","white","no","xpyriment","I have read and understood the information shown above","legacy","legacy","0","uniform","1","0","0","undefined","undefined","1","j","1","0","NA","0","0","0","0","0","0","0","0","0","15","15","15","0","0","0","0","0","1","0","0","0","1","15","15","15","15","15","Wed Jun 28 15:06:53 2017","Forced-choice identification task with a practice and an experimental phase","yes","NAP-FC_GER_AA_ver-2.osexp","/Users/aviadalbert/Documents/Academisch/UoC/Dissertation/Experiment/OpenSesame/NAP-FC/NAP-FC_GER_AA/GER_AA_ver-2","yes","no","sans","no","20","no","black","no","Next","yes","768","legacy","5","9","0","/Users/aviadalbert/Documents/Academisch/UoC/Dissertation/Experiment/OpenSesame/NAP-FC/NAP-FC_GER_AA/GER_AA_ver-2/subject-2.csv","xpyriment","Jazzy James","3.1.6","yes","yes","5950408a6c613b0229e3e810","59504237594d9002288b1720","no","no","0","j","f","space","NA","space","space","j","813","2512","9674","NA","19749","10590","813","2","legacy","1024","1","44100","-16","experiment","esmal","24","Regensburg","1","0","1","German","English, Spanish Italian, French","2","even","Cologne, Munich","251292","241332","NA","253805","251288","NA","1474","251062","1475","1475","160510","180264","269246","267742","270060","213435","191127","241331","29540","134802","239658","190917","251291","191131","NA","269246","269246","NA","NA","267738","NAP perception","6","5664","6","yes","1024"
"100","yes","100","1004","1004","white","no","xpyriment","I have read and understood the information shown above","legacy","legacy","0","uniform","1","0","0","undefined","undefined","1","j","1","0","NA","0","0","0","0","0","0","0","0","0","16","16","16","0","0","0","0","0","1","0","0","0","1","16","16","16","16","16","Wed Jun 28 15:06:53 2017","Forced-choice identification task with a practice and an experimental phase","yes","NAP-FC_GER_AA_ver-2.osexp","/Users/aviadalbert/Documents/Academisch/UoC/Dissertation/Experiment/OpenSesame/NAP-FC/NAP-FC_GER_AA/GER_AA_ver-2","yes","no","sans","no","20","no","black","no","Next","yes","768","legacy","6","9","0","/Users/aviadalbert/Documents/Academisch/UoC/Dissertation/Experiment/OpenSesame/NAP-FC/NAP-FC_GER_AA/GER_AA_ver-2/subject-2.csv","xpyriment","Jazzy James","3.1.6","yes","yes","5950408a6c613b0229e3e810","59504237594d9002288b1720","no","no","0","j","f","space","NA","space","space","j","1364","2512","9674","NA","19749","10590","1364","2","legacy","1024","1","44100","-16","experiment","fenal","24","Regensburg","1","0","1","German","English, Spanish Italian, French","2","even","Cologne, Munich","251292","241332","NA","253805","251288","NA","1474","251062","1475","1475","160510","180264","271834","270326","273199","213435","191127","241331","29540","134802","239658","190917","251291","191131","NA","271833","271833","NA","NA","270322","NAP perception","7","7028","7","yes","1024"
"100","yes","100","985.75","985.75","white","no","xpyriment","I have read and understood the information shown above","legacy","legacy","0","uniform","1","0","0","undefined","undefined","1","j","1","0","NA","0","0","0","0","0","0","0","0","0","17","17","17","0","0","0","0","0","1","0","0","0","1","17","17","17","17","17","Wed Jun 28 15:06:53 2017","Forced-choice identification task with a practice and an experimental phase","yes","NAP-FC_GER_AA_ver-2.osexp","/Users/aviadalbert/Documents/Academisch/UoC/Dissertation/Experiment/OpenSesame/NAP-FC/NAP-FC_GER_AA/GER_AA_ver-2","yes","no","sans","no","20","no","black","no","Next","yes","768","legacy","7","9","0","/Users/aviadalbert/Documents/Academisch/UoC/Dissertation/Experiment/OpenSesame/NAP-FC/NAP-FC_GER_AA/GER_AA_ver-2/subject-2.csv","xpyriment","Jazzy James","3.1.6","yes","yes","5950408a6c613b0229e3e810","59504237594d9002288b1720","no","no","0","j","f","space","NA","space","space","j","858","2512","9674","NA","19749","10590","858","2","legacy","1024","1","44100","-16","experiment","jeval","24","Regensburg","1","0","1","German","English, Spanish Italian, French","2","even","Cologne, Munich","251292","241332","NA","253805","251288","NA","1474","251062","1475","1475","160510","180264","274983","273477","275842","213435","191127","241331","29540","134802","239658","190917","251291","191131","NA","274983","274983","NA","NA","273474","NAP perception","8","7886","8","yes","1024"
"88.8888888889","yes","88.8888888889","960","960","white","no","xpyriment","I have read and understood the information shown above","legacy","legacy","0","uniform","0","0","0","undefined","undefined","0","f","1","0","NA","0","0","0","0","0","0","0","0","0","18","18","18","0","0","0","0","0","1","0","0","0","1","18","18","18","18","18","Wed Jun 28 15:06:53 2017","Forced-choice identification task with a practice and an experimental phase","yes","NAP-FC_GER_AA_ver-2.osexp","/Users/aviadalbert/Documents/Academisch/UoC/Dissertation/Experiment/OpenSesame/NAP-FC/NAP-FC_GER_AA/GER_AA_ver-2","yes","no","sans","no","20","no","black","no","Next","yes","768","legacy","8","9","0","/Users/aviadalbert/Documents/Academisch/UoC/Dissertation/Experiment/OpenSesame/NAP-FC/NAP-FC_GER_AA/GER_AA_ver-2/subject-2.csv","xpyriment","Jazzy James","3.1.6","yes","yes","5950408a6c613b0229e3e810","59504237594d9002288b1720","no","no","0","j","f","space","NA","space","space","j","754","2512","9674","NA","19749","10590","754","2","legacy","1024","1","44100","-16","experiment","wsal","24","Regensburg","1","0","1","German","English, Spanish Italian, French","2","even","Cologne, Munich","251292","241332","NA","253805","251288","NA","1474","251062","1475","1475","160510","180264","277613","276106","278368","213435","191127","241331","29540","134802","239658","190917","251291","191131","NA","277612","277612","NA","NA","276102","NAP perception","8","8640","9","yes","1024"
"90","yes","90","965.9","965.9","white","no","xpyriment","I have read and understood the information shown above","legacy","legacy","0","uniform","1","0","0","undefined","undefined","1","j","1","0","NA","0","0","0","0","0","0","0","0","0","19","19","19","0","0","0","0","0","1","0","0","0","1","19","19","19","19","19","Wed Jun 28 15:06:53 2017","Forced-choice identification task with a practice and an experimental phase","yes","NAP-FC_GER_AA_ver-2.osexp","/Users/aviadalbert/Documents/Academisch/UoC/Dissertation/Experiment/OpenSesame/NAP-FC/NAP-FC_GER_AA/GER_AA_ver-2","yes","no","sans","no","20","no","black","no","Next","yes","768","legacy","9","9","0","/Users/aviadalbert/Documents/Academisch/UoC/Dissertation/Experiment/OpenSesame/NAP-FC/NAP-FC_GER_AA/GER_AA_ver-2/subject-2.csv","xpyriment","Jazzy James","3.1.6","yes","yes","5950408a6c613b0229e3e810","59504237594d9002288b1720","no","no","0","j","f","space","NA","space","space","j","1019","2512","9674","NA","19749","10590","1019","2","legacy","1024","1","44100","-16","experiment","nemal","24","Regensburg","1","0","1","German","English, Spanish Italian, French","2","even","Cologne, Munich","251292","241332","NA","253805","251288","NA","1474","251062","1475","1475","160510","180264","280133","278628","281153","213435","191127","241331","29540","134802","239658","190917","251291","191131","NA","280133","280133","NA","NA","278624","NAP perception","9","9659","10","yes","1024"
"90.9090909091","yes","90.9090909091","944.636363636","944.636363636","white","no","xpyriment","I have read and understood the information shown above","legacy","legacy","0","uniform","1","0","0","undefined","undefined","1","j","1","0","NA","0","0","0","0","0","0","0","0","0","20","20","20","0","0","0","0","0","1","0","0","0","1","20","20","20","20","20","Wed Jun 28 15:06:53 2017","Forced-choice identification task with a practice and an experimental phase","yes","NAP-FC_GER_AA_ver-2.osexp","/Users/aviadalbert/Documents/Academisch/UoC/Dissertation/Experiment/OpenSesame/NAP-FC/NAP-FC_GER_AA/GER_AA_ver-2","yes","no","sans","no","20","no","black","no","Next","yes","768","legacy","10","9","0","/Users/aviadalbert/Documents/Academisch/UoC/Dissertation/Experiment/OpenSesame/NAP-FC/NAP-FC_GER_AA/GER_AA_ver-2/subject-2.csv","xpyriment","Jazzy James","3.1.6","yes","yes","5950408a6c613b0229e3e810","59504237594d9002288b1720","no","no","0","j","f","space","NA","space","space","j","732","2512","9674","NA","19749","10590","732","2","legacy","1024","1","44100","-16","experiment","fetal","24","Regensburg","1","0","1","German","English, Spanish Italian, French","2","even","Cologne, Munich","251292","241332","NA","253805","251288","NA","1474","251062","1475","1475","160510","180264","282935","281432","283669","213435","191127","241331","29540","134802","239658","190917","251291","191131","NA","282935","282935","NA","NA","281428","NAP perception","10","10391","11","yes","1024"
"83.3333333333","yes","83.3333333333","923.75","923.75","white","no","xpyriment","I have read and understood the information shown above","legacy","legacy","0","uniform","0","0","0","undefined","undefined","0","f","1","0","NA","0","0","0","0","0","0","0","0","0","21","21","21","0","0","0","0","0","1","0","0","0","1","21","21","21","21","21","Wed Jun 28 15:06:53 2017","Forced-choice identification task with a practice and an experimental phase","yes","NAP-FC_GER_AA_ver-2.osexp","/Users/aviadalbert/Documents/Academisch/UoC/Dissertation/Experiment/OpenSesame/NAP-FC/NAP-FC_GER_AA/GER_AA_ver-2","yes","no","sans","no","20","no","black","no","Next","yes","768","legacy","11","9","0","/Users/aviadalbert/Documents/Academisch/UoC/Dissertation/Experiment/OpenSesame/NAP-FC/NAP-FC_GER_AA/GER_AA_ver-2/subject-2.csv","xpyriment","Jazzy James","3.1.6","yes","yes","5950408a6c613b0229e3e810","59504237594d9002288b1720","no","no","0","j","f","space","NA","space","space","j","694","2512","9674","NA","19749","10590","694","2","legacy","1024","1","44100","-16","experiment","wlal","24","Regensburg","1","0","1","German","English, Spanish Italian, French","2","even","Cologne, Munich","251292","241332","NA","253805","251288","NA","1474","251062","1475","1475","160510","180264","285453","283948","286148","213435","191127","241331","29540","134802","239658","190917","251291","191131","NA","285453","285453","NA","NA","283944","NAP perception","10","11085","12","yes","1024"
"84.6153846154","yes","84.6153846154","896.692307692","896.692307692","white","no","xpyriment","I have read and understood the information shown above","legacy","legacy","0","uniform","1","0","0","undefined","undefined","1","f","1","0","NA","0","0","0","0","0","0","0","0","0","22","22","22","0","0","0","0","0","1","0","0","0","1","22","22","22","22","22","Wed Jun 28 15:06:53 2017","Forced-choice identification task with a practice and an experimental phase","yes","NAP-FC_GER_AA_ver-2.osexp","/Users/aviadalbert/Documents/Academisch/UoC/Dissertation/Experiment/OpenSesame/NAP-FC/NAP-FC_GER_AA/GER_AA_ver-2","yes","no","sans","no","20","no","black","no","Next","yes","768","legacy","12","9","0","/Users/aviadalbert/Documents/Academisch/UoC/Dissertation/Experiment/OpenSesame/NAP-FC/NAP-FC_GER_AA/GER_AA_ver-2/subject-2.csv","xpyriment","Jazzy James","3.1.6","yes","yes","5950408a6c613b0229e3e810","59504237594d9002288b1720","no","no","0","f","f","space","NA","space","space","f","572","2512","9674","NA","19749","10590","572","2","legacy","1024","1","44100","-16","experiment","wnal","24","Regensburg","1","0","1","German","English, Spanish Italian, French","2","even","Cologne, Munich","251292","241332","NA","253805","251288","NA","1474","251062","1475","1475","160510","180264","287925","286421","288498","213435","191127","241331","29540","134802","239658","190917","251291","191131","NA","287924","287924","NA","NA","286417","NAP perception","11","11657","13","yes","1024"
"85.7142857143","yes","85.7142857143","870.642857143","870.642857143","white","no","xpyriment","I have read and understood the information shown above","legacy","legacy","0","uniform","1","0","0","undefined","undefined","1","f","1","0","NA","0","0","0","0","0","0","0","0","0","23","23","23","0","0","0","0","0","1","0","0","0","1","23","23","23","23","23","Wed Jun 28 15:06:53 2017","Forced-choice identification task with a practice and an experimental phase","yes","NAP-FC_GER_AA_ver-2.osexp","/Users/aviadalbert/Documents/Academisch/UoC/Dissertation/Experiment/OpenSesame/NAP-FC/NAP-FC_GER_AA/GER_AA_ver-2","yes","no","sans","no","20","no","black","no","Next","yes","768","legacy","13","9","0","/Users/aviadalbert/Documents/Academisch/UoC/Dissertation/Experiment/OpenSesame/NAP-FC/NAP-FC_GER_AA/GER_AA_ver-2/subject-2.csv","xpyriment","Jazzy James","3.1.6","yes","yes","5950408a6c613b0229e3e810","59504237594d9002288b1720","no","no","0","f","f","space","NA","space","space","f","532","2512","9674","NA","19749","10590","532","2","legacy","1024","1","44100","-16","experiment","nval","24","Regensburg","1","0","1","German","English, Spanish Italian, French","2","even","Cologne, Munich","251292","241332","NA","253805","251288","NA","1474","251062","1475","1475","160510","180264","290272","288769","290806","213435","191127","241331","29540","134802","239658","190917","251291","191131","NA","290272","290272","NA","NA","288765","NAP perception","12","12189","14","yes","1024"
"86.6666666667","yes","86.6666666667","871.266666667","871.266666667","white","no","xpyriment","I have read and understood the information shown above","legacy","legacy","0","uniform","1","0","0","undefined","undefined","1","j","1","0","NA","0","0","0","0","0","0","0","0","0","24","24","24","0","0","0","0","0","1","0","0","0","1","24","24","24","24","24","Wed Jun 28 15:06:53 2017","Forced-choice identification task with a practice and an experimental phase","yes","NAP-FC_GER_AA_ver-2.osexp","/Users/aviadalbert/Documents/Academisch/UoC/Dissertation/Experiment/OpenSesame/NAP-FC/NAP-FC_GER_AA/GER_AA_ver-2","yes","no","sans","no","20","no","black","no","Next","yes","768","legacy","14","9","0","/Users/aviadalbert/Documents/Academisch/UoC/Dissertation/Experiment/OpenSesame/NAP-FC/NAP-FC_GER_AA/GER_AA_ver-2/subject-2.csv","xpyriment","Jazzy James","3.1.6","yes","yes","5950408a6c613b0229e3e810","59504237594d9002288b1720","no","no","0","j","f","space","NA","space","space","j","880","2512","9674","NA","19749","10590","880","2","legacy","1024","1","44100","-16","experiment","melal","24","Regensburg","1","0","1","German","English, Spanish Italian, French","2","even","Cologne, Munich","251292","241332","NA","253805","251288","NA","1474","251062","1475","1475","160510","180264","292579","291074","293460","213435","191127","241331","29540","134802","239658","190917","251291","191131","NA","292579","292579","NA","NA","291070","NAP perception","13","13069","15","yes","1024"
"87.5","yes","87.5","858.8125","858.8125","white","no","xpyriment","I have read and understood the information shown above","legacy","legacy","0","uniform","1","0","0","undefined","undefined","1","f","1","0","NA","0","0","0","0","0","0","0","0","0","25","25","25","0","0","0","0","0","1","0","0","0","1","25","25","25","25","25","Wed Jun 28 15:06:53 2017","Forced-choice identification task with a practice and an experimental phase","yes","NAP-FC_GER_AA_ver-2.osexp","/Users/aviadalbert/Documents/Academisch/UoC/Dissertation/Experiment/OpenSesame/NAP-FC/NAP-FC_GER_AA/GER_AA_ver-2","yes","no","sans","no","20","no","black","no","Next","yes","768","legacy","15","9","0","/Users/aviadalbert/Documents/Academisch/UoC/Dissertation/Experiment/OpenSesame/NAP-FC/NAP-FC_GER_AA/GER_AA_ver-2/subject-2.csv","xpyriment","Jazzy James","3.1.6","yes","yes","5950408a6c613b0229e3e810","59504237594d9002288b1720","no","no","0","f","f","space","NA","space","space","f","672","2512","9674","NA","19749","10590","672","2","legacy","1024","1","44100","-16","experiment","ﾊデal","24","Regensburg","1","0","1","German","English, Spanish Italian, French","2","even","Cologne, Munich","251292","241332","NA","253805","251288","NA","1474","251062","1475","1475","160510","180264","295238","293735","295911","213435","191127","241331","29540","134802","239658","190917","251291","191131","NA","295238","295238","NA","NA","293731","NAP perception","14","13741","16","yes","1024"
"82.3529411765","yes","82.3529411765","851.588235294","851.588235294","white","no","xpyriment","I have read and understood the information shown above","legacy","legacy","0","uniform","0","0","0","undefined","undefined","0","j","1","0","NA","0","0","0","0","0","0","0","0","0","26","26","26","0","0","0","0","0","1","0","0","0","1","26","26","26","26","26","Wed Jun 28 15:06:53 2017","Forced-choice identification task with a practice and an experimental phase","yes","NAP-FC_GER_AA_ver-2.osexp","/Users/aviadalbert/Documents/Academisch/UoC/Dissertation/Experiment/OpenSesame/NAP-FC/NAP-FC_GER_AA/GER_AA_ver-2","yes","no","sans","no","20","no","black","no","Next","yes","768","legacy","16","9","0","/Users/aviadalbert/Documents/Academisch/UoC/Dissertation/Experiment/OpenSesame/NAP-FC/NAP-FC_GER_AA/GER_AA_ver-2/subject-2.csv","xpyriment","Jazzy James","3.1.6","yes","yes","5950408a6c613b0229e3e810","59504237594d9002288b1720","no","no","0","f","f","space","NA","space","space","f","736","2512","9674","NA","19749","10590","736","2","legacy","1024","1","44100","-16","experiment","emsal","24","Regensburg","1","0","1","German","English, Spanish Italian, French","2","even","Cologne, Munich","251292","241332","NA","253805","251288","NA","1474","251062","1475","1475","160510","180264","297695","296191","298432","213435","191127","241331","29540","134802","239658","190917","251291","191131","NA","297695","297695","NA","NA","296187","NAP perception","14","14477","17","yes","1024"
"83.3333333333","yes","83.3333333333","845.611111111","845.611111111","white","no","xpyriment","I have read and understood the information shown above","legacy","legacy","0","uniform","1","0","0","undefined","undefined","1","f","1","0","NA","0","0","0","0","0","0","0","0","0","27","27","27","0","0","0","0","0","1","0","0","0","1","27","27","27","27","27","Wed Jun 28 15:06:53 2017","Forced-choice identification task with a practice and an experimental phase","yes","NAP-FC_GER_AA_ver-2.osexp","/Users/aviadalbert/Documents/Academisch/UoC/Dissertation/Experiment/OpenSesame/NAP-FC/NAP-FC_GER_AA/GER_AA_ver-2","yes","no","sans","no","20","no","black","no","Next","yes","768","legacy","17","9","0","/Users/aviadalbert/Documents/Academisch/UoC/Dissertation/Experiment/OpenSesame/NAP-FC/NAP-FC_GER_AA/GER_AA_ver-2/subject-2.csv","xpyriment","Jazzy James","3.1.6","yes","yes","5950408a6c613b0229e3e810","59504237594d9002288b1720","no","no","0","f","f","space","NA","space","space","f","744","2512","9674","NA","19749","10590","744","2","legacy","1024","1","44100","-16","experiment","lval","24","Regensburg","1","0","1","German","English, Spanish Italian, French","2","even","Cologne, Munich","251292","241332","NA","253805","251288","NA","1474","251062","1475","1475","160510","180264","300194","298691","300939","213435","191127","241331","29540","134802","239658","190917","251291","191131","NA","300194","300194","NA","NA","298687","NAP perception","15","15221","18","yes","1024"
"84.2105263158","yes","84.2105263158","836.210526316","836.210526316","white","no","xpyriment","I have read and understood the information shown above","legacy","legacy","0","uniform","1","0","0","undefined","undefined","1","j","1","0","NA","0","0","0","0","0","0","0","0","0","28","28","28","0","0","0","0","0","1","0","0","0","1","28","28","28","28","28","Wed Jun 28 15:06:53 2017","Forced-choice identification task with a practice and an experimental phase","yes","NAP-FC_GER_AA_ver-2.osexp","/Users/aviadalbert/Documents/Academisch/UoC/Dissertation/Experiment/OpenSesame/NAP-FC/NAP-FC_GER_AA/GER_AA_ver-2","yes","no","sans","no","20","no","black","no","Next","yes","768","legacy","18","9","0","/Users/aviadalbert/Documents/Academisch/UoC/Dissertation/Experiment/OpenSesame/NAP-FC/NAP-FC_GER_AA/GER_AA_ver-2/subject-2.csv","xpyriment","Jazzy James","3.1.6","yes","yes","5950408a6c613b0229e3e810","59504237594d9002288b1720","no","no","0","j","f","space","NA","space","space","j","667","2512","9674","NA","19749","10590","667","2","legacy","1024","1","44100","-16","experiment","ﾊテmal","24","Regensburg","1","0","1","German","English, Spanish Italian, French","2","even","Cologne, Munich","251292","241332","NA","253805","251288","NA","1474","251062","1475","1475","160510","180264","302727","301220","303395","213435","191127","241331","29540","134802","239658","190917","251291","191131","NA","302727","302727","NA","NA","301216","NAP perception","16","15888","19","yes","1024"
"85","yes","85","830.2","830.2","white","no","xpyriment","I have read and understood the information shown above","legacy","legacy","0","uniform","1","0","0","undefined","undefined","1","f","1","0","NA","0","0","0","0","0","0","0","0","0","29","29","29","0","0","0","0","0","1","0","0","0","1","29","29","29","29","29","Wed Jun 28 15:06:53 2017","Forced-choice identification task with a practice and an experimental phase","yes","NAP-FC_GER_AA_ver-2.osexp","/Users/aviadalbert/Documents/Academisch/UoC/Dissertation/Experiment/OpenSesame/NAP-FC/NAP-FC_GER_AA/GER_AA_ver-2","yes","no","sans","no","20","no","black","no","Next","yes","768","legacy","19","9","0","/Users/aviadalbert/Documents/Academisch/UoC/Dissertation/Experiment/OpenSesame/NAP-FC/NAP-FC_GER_AA/GER_AA_ver-2/subject-2.csv","xpyriment","Jazzy James","3.1.6","yes","yes","5950408a6c613b0229e3e810","59504237594d9002288b1720","no","no","0","f","f","space","NA","space","space","f","716","2512","9674","NA","19749","10590","716","2","legacy","1024","1","44100","-16","experiment","lpal","24","Regensburg","1","0","1","German","English, Spanish Italian, French","2","even","Cologne, Munich","251292","241332","NA","253805","251288","NA","1474","251062","1475","1475","160510","180264","305164","303657","305881","213435","191127","241331","29540","134802","239658","190917","251291","191131","NA","305163","305163","NA","NA","303653","NAP perception","17","16604","20","yes","1024"
"85.7142857143","yes","85.7142857143","855.142857143","855.142857143","white","no","xpyriment","I have read and understood the information shown above","legacy","legacy","0","uniform","1","0","0","undefined","undefined","1","f","1","0","NA","0","0","0","0","0","0","0","0","0","30","30","30","0","0","0","0","0","1","0","0","0","1","30","30","30","30","30","Wed Jun 28 15:06:53 2017","Forced-choice identification task with a practice and an experimental phase","yes","NAP-FC_GER_AA_ver-2.osexp","/Users/aviadalbert/Documents/Academisch/UoC/Dissertation/Experiment/OpenSesame/NAP-FC/NAP-FC_GER_AA/GER_AA_ver-2","yes","no","sans","no","20","no","black","no","Next","yes","768","legacy","20","9","0","/Users/aviadalbert/Documents/Academisch/UoC/Dissertation/Experiment/OpenSesame/NAP-FC/NAP-FC_GER_AA/GER_AA_ver-2/subject-2.csv","xpyriment","Jazzy James","3.1.6","yes","yes","5950408a6c613b0229e3e810","59504237594d9002288b1720","no","no","0","f","f","space","NA","space","space","f","1354","2512","9674","NA","19749","10590","1354","2","legacy","1024","1","44100","-16","experiment","smal","24","Regensburg","1","0","1","German","English, Spanish Italian, French","2","even","Cologne, Munich","251292","241332","NA","253805","251288","NA","1474","251062","1475","1475","160510","180264","307661","306155","309016","213435","191127","241331","29540","134802","239658","190917","251291","191131","NA","307661","307661","NA","NA","306151","NAP perception","18","17958","21","yes","1024"
"86.3636363636","yes","86.3636363636","843.545454545","843.545454545","white","no","xpyriment","I have read and understood the information shown above","legacy","legacy","0","uniform","1","0","0","undefined","undefined","1","f","1","0","NA","0","0","0","0","0","0","0","0","0","31","31","31","0","0","0","0","0","1","0","0","0","1","31","31","31","31","31","Wed Jun 28 15:06:53 2017","Forced-choice identification task with a practice and an experimental phase","yes","NAP-FC_GER_AA_ver-2.osexp","/Users/aviadalbert/Documents/Academisch/UoC/Dissertation/Experiment/OpenSesame/NAP-FC/NAP-FC_GER_AA/GER_AA_ver-2","yes","no","sans","no","20","no","black","no","Next","yes","768","legacy","21","9","0","/Users/aviadalbert/Documents/Academisch/UoC/Dissertation/Experiment/OpenSesame/NAP-FC/NAP-FC_GER_AA/GER_AA_ver-2/subject-2.csv","xpyriment","Jazzy James","3.1.6","yes","yes","5950408a6c613b0229e3e810","59504237594d9002288b1720","no","no","0","f","f","space","NA","space","space","f","600","2512","9674","NA","19749","10590","600","2","legacy","1024","1","44100","-16","experiment","zmal","24","Regensburg","1","0","1","German","English, Spanish Italian, French","2","even","Cologne, Munich","251292","241332","NA","253805","251288","NA","1474","251062","1475","1475","160510","180264","310774","309270","311376","213435","191127","241331","29540","134802","239658","190917","251291","191131","NA","310774","310774","NA","NA","309266","NAP perception","19","18558","22","yes","1024"
"86.9565217391","yes","86.9565217391","892","892","white","no","xpyriment","I have read and understood the information shown above","legacy","legacy","0","uniform","1","0","0","undefined","undefined","1","j","1","0","NA","0","0","0","0","0","0","0","0","0","32","32","32","0","0","0","0","0","1","0","0","0","1","32","32","32","32","32","Wed Jun 28 15:06:53 2017","Forced-choice identification task with a practice and an experimental phase","yes","NAP-FC_GER_AA_ver-2.osexp","/Users/aviadalbert/Documents/Academisch/UoC/Dissertation/Experiment/OpenSesame/NAP-FC/NAP-FC_GER_AA/GER_AA_ver-2","yes","no","sans","no","20","no","black","no","Next","yes","768","legacy","22","9","0","/Users/aviadalbert/Documents/Academisch/UoC/Dissertation/Experiment/OpenSesame/NAP-FC/NAP-FC_GER_AA/GER_AA_ver-2/subject-2.csv","xpyriment","Jazzy James","3.1.6","yes","yes","5950408a6c613b0229e3e810","59504237594d9002288b1720","no","no","0","j","f","space","NA","space","space","j","1958","2512","9674","NA","19749","10590","1958","2","legacy","1024","1","44100","-16","experiment","elpal","24","Regensburg","1","0","1","German","English, Spanish Italian, French","2","even","Cologne, Munich","251292","241332","NA","253805","251288","NA","1474","251062","1475","1475","160510","180264","313163","311658","315122","213435","191127","241331","29540","134802","239658","190917","251291","191131","NA","313163","313163","NA","NA","311654","NAP perception","20","20516","23","yes","1024"
"87.5","yes","87.5","894.958333333","894.958333333","white","no","xpyriment","I have read and understood the information shown above","legacy","legacy","0","uniform","1","0","0","undefined","undefined","1","j","1","0","NA","0","0","0","0","0","0","0","0","0","33","33","33","0","0","0","0","0","1","0","0","0","1","33","33","33","33","33","Wed Jun 28 15:06:53 2017","Forced-choice identification task with a practice and an experimental phase","yes","NAP-FC_GER_AA_ver-2.osexp","/Users/aviadalbert/Documents/Academisch/UoC/Dissertation/Experiment/OpenSesame/NAP-FC/NAP-FC_GER_AA/GER_AA_ver-2","yes","no","sans","no","20","no","black","no","Next","yes","768","legacy","23","9","0","/Users/aviadalbert/Documents/Academisch/UoC/Dissertation/Experiment/OpenSesame/NAP-FC/NAP-FC_GER_AA/GER_AA_ver-2/subject-2.csv","xpyriment","Jazzy James","3.1.6","yes","yes","5950408a6c613b0229e3e810","59504237594d9002288b1720","no","no","0","j","f","space","NA","space","space","j","963","2512","9674","NA","19749","10590","963","2","legacy","1024","1","44100","-16","experiment","eﾊデal","24","Regensburg","1","0","1","German","English, Spanish Italian, French","2","even","Cologne, Munich","251292","241332","NA","253805","251288","NA","1474","251062","1475","1475","160510","180264","316897","315393","317861","213435","191127","241331","29540","134802","239658","190917","251291","191131","NA","316897","316897","NA","NA","315389","NAP perception","21","21479","24","yes","1024"
"88","yes","88","905.52","905.52","white","no","xpyriment","I have read and understood the information shown above","legacy","legacy","0","uniform","1","0","0","undefined","undefined","1","j","1","0","NA","0","0","0","0","0","0","0","0","0","34","34","34","0","0","0","0","0","1","0","0","0","1","34","34","34","34","34","Wed Jun 28 15:06:53 2017","Forced-choice identification task with a practice and an experimental phase","yes","NAP-FC_GER_AA_ver-2.osexp","/Users/aviadalbert/Documents/Academisch/UoC/Dissertation/Experiment/OpenSesame/NAP-FC/NAP-FC_GER_AA/GER_AA_ver-2","yes","no","sans","no","20","no","black","no","Next","yes","768","legacy","24","9","0","/Users/aviadalbert/Documents/Academisch/UoC/Dissertation/Experiment/OpenSesame/NAP-FC/NAP-FC_GER_AA/GER_AA_ver-2/subject-2.csv","xpyriment","Jazzy James","3.1.6","yes","yes","5950408a6c613b0229e3e810","59504237594d9002288b1720","no","no","0","j","f","space","NA","space","space","j","1159","2512","9674","NA","19749","10590","1159","2","legacy","1024","1","44100","-16","experiment","zeval","24","Regensburg","1","0","1","German","English, Spanish Italian, French","2","even","Cologne, Munich","251292","241332","NA","253805","251288","NA","1474","251062","1475","1475","160510","180264","319631","318125","320792","213435","191127","241331","29540","134802","239658","190917","251291","191131","NA","319631","319631","NA","NA","318122","NAP perception","22","22638","25","yes","1024"
"88.4615384615","yes","88.4615384615","899.576923077","899.576923077","white","no","xpyriment","I have read and understood the information shown above","legacy","legacy","0","uniform","1","0","0","undefined","undefined","1","j","1","0","NA","0","0","0","0","0","0","0","0","0","35","35","35","0","0","0","0","0","1","0","0","0","1","35","35","35","35","35","Wed Jun 28 15:06:53 2017","Forced-choice identification task with a practice and an experimental phase","yes","NAP-FC_GER_AA_ver-2.osexp","/Users/aviadalbert/Documents/Academisch/UoC/Dissertation/Experiment/OpenSesame/NAP-FC/NAP-FC_GER_AA/GER_AA_ver-2","yes","no","sans","no","20","no","black","no","Next","yes","768","legacy","25","9","0","/Users/aviadalbert/Documents/Academisch/UoC/Dissertation/Experiment/OpenSesame/NAP-FC/NAP-FC_GER_AA/GER_AA_ver-2/subject-2.csv","xpyriment","Jazzy James","3.1.6","yes","yes","5950408a6c613b0229e3e810","59504237594d9002288b1720","no","no","0","j","f","space","NA","space","space","j","751","2512","9674","NA","19749","10590","751","2","legacy","1024","1","44100","-16","experiment","mezal","24","Regensburg","1","0","1","German","English, Spanish Italian, French","2","even","Cologne, Munich","251292","241332","NA","253805","251288","NA","1474","251062","1475","1475","160510","180264","322563","321059","323316","213435","191127","241331","29540","134802","239658","190917","251291","191131","NA","322562","322563","NA","NA","321055","NAP perception","23","23389","26","yes","1024"
"85.1851851852","yes","85.1851851852","896.037037037","896.037037037","white","no","xpyriment","I have read and understood the information shown above","legacy","legacy","0","uniform","0","0","0","undefined","undefined","0","f","1","0","NA","0","0","0","0","0","0","0","0","0","36","36","36","0","0","0","0","0","1","0","0","0","1","36","36","36","36","36","Wed Jun 28 15:06:53 2017","Forced-choice identification task with a practice and an experimental phase","yes","NAP-FC_GER_AA_ver-2.osexp","/Users/aviadalbert/Documents/Academisch/UoC/Dissertation/Experiment/OpenSesame/NAP-FC/NAP-FC_GER_AA/GER_AA_ver-2","yes","no","sans","no","20","no","black","no","Next","yes","768","legacy","26","9","0","/Users/aviadalbert/Documents/Academisch/UoC/Dissertation/Experiment/OpenSesame/NAP-FC/NAP-FC_GER_AA/GER_AA_ver-2/subject-2.csv","xpyriment","Jazzy James","3.1.6","yes","yes","5950408a6c613b0229e3e810","59504237594d9002288b1720","no","no","0","j","f","space","NA","space","space","j","804","2512","9674","NA","19749","10590","804","2","legacy","1024","1","44100","-16","experiment","wtal","24","Regensburg","1","0","1","German","English, Spanish Italian, French","2","even","Cologne, Munich","251292","241332","NA","253805","251288","NA","1474","251062","1475","1475","160510","180264","325090","323587","325896","213435","191127","241331","29540","134802","239658","190917","251291","191131","NA","325090","325090","NA","NA","323583","NAP perception","23","24193","27","yes","1024"
"85.7142857143","yes","85.7142857143","887.964285714","887.964285714","white","no","xpyriment","I have read and understood the information shown above","legacy","legacy","0","uniform","1","0","0","undefined","undefined","1","f","1","0","NA","0","0","0","0","0","0","0","0","0","37","37","37","0","0","0","0","0","1","0","0","0","1","37","37","37","37","37","Wed Jun 28 15:06:53 2017","Forced-choice identification task with a practice and an experimental phase","yes","NAP-FC_GER_AA_ver-2.osexp","/Users/aviadalbert/Documents/Academisch/UoC/Dissertation/Experiment/OpenSesame/NAP-FC/NAP-FC_GER_AA/GER_AA_ver-2","yes","no","sans","no","20","no","black","no","Next","yes","768","legacy","27","9","0","/Users/aviadalbert/Documents/Academisch/UoC/Dissertation/Experiment/OpenSesame/NAP-FC/NAP-FC_GER_AA/GER_AA_ver-2/subject-2.csv","xpyriment","Jazzy James","3.1.6","yes","yes","5950408a6c613b0229e3e810","59504237594d9002288b1720","no","no","0","f","f","space","NA","space","space","f","670","2512","9674","NA","19749","10590","670","2","legacy","1024","1","44100","-16","experiment","mtal","24","Regensburg","1","0","1","German","English, Spanish Italian, French","2","even","Cologne, Munich","251292","241332","NA","253805","251288","NA","1474","251062","1475","1475","160510","180264","327667","326160","328339","213435","191127","241331","29540","134802","239658","190917","251291","191131","NA","327667","327667","NA","NA","326156","NAP perception","24","24863","28","yes","1024"
"86.2068965517","yes","86.2068965517","879.034482759","879.034482759","white","no","xpyriment","I have read and understood the information shown above","legacy","legacy","0","uniform","1","0","0","undefined","undefined","1","j","1","0","NA","0","0","0","0","0","0","0","0","0","38","38","38","0","0","0","0","0","1","0","0","0","1","38","38","38","38","38","Wed Jun 28 15:06:53 2017","Forced-choice identification task with a practice and an experimental phase","yes","NAP-FC_GER_AA_ver-2.osexp","/Users/aviadalbert/Documents/Academisch/UoC/Dissertation/Experiment/OpenSesame/NAP-FC/NAP-FC_GER_AA/GER_AA_ver-2","yes","no","sans","no","20","no","black","no","Next","yes","768","legacy","28","9","0","/Users/aviadalbert/Documents/Academisch/UoC/Dissertation/Experiment/OpenSesame/NAP-FC/NAP-FC_GER_AA/GER_AA_ver-2/subject-2.csv","xpyriment","Jazzy James","3.1.6","yes","yes","5950408a6c613b0229e3e810","59504237594d9002288b1720","no","no","0","j","f","space","NA","space","space","j","629","2512","9674","NA","19749","10590","629","2","legacy","1024","1","44100","-16","experiment","elmal","24","Regensburg","1","0","1","German","English, Spanish Italian, French","2","even","Cologne, Munich","251292","241332","NA","253805","251288","NA","1474","251062","1475","1475","160510","180264","330114","328607","330745","213435","191127","241331","29540","134802","239658","190917","251291","191131","NA","330114","330114","NA","NA","328603","NAP perception","25","25492","29","yes","1024"
"86.6666666667","yes","86.6666666667","869.466666667","869.466666667","white","no","xpyriment","I have read and understood the information shown above","legacy","legacy","0","uniform","1","0","0","undefined","undefined","1","f","1","0","NA","0","0","0","0","0","0","0","0","0","39","39","39","0","0","0","0","0","1","0","0","0","1","39","39","39","39","39","Wed Jun 28 15:06:53 2017","Forced-choice identification task with a practice and an experimental phase","yes","NAP-FC_GER_AA_ver-2.osexp","/Users/aviadalbert/Documents/Academisch/UoC/Dissertation/Experiment/OpenSesame/NAP-FC/NAP-FC_GER_AA/GER_AA_ver-2","yes","no","sans","no","20","no","black","no","Next","yes","768","legacy","29","9","0","/Users/aviadalbert/Documents/Academisch/UoC/Dissertation/Experiment/OpenSesame/NAP-FC/NAP-FC_GER_AA/GER_AA_ver-2/subject-2.csv","xpyriment","Jazzy James","3.1.6","yes","yes","5950408a6c613b0229e3e810","59504237594d9002288b1720","no","no","0","f","f","space","NA","space","space","f","592","2512","9674","NA","19749","10590","592","2","legacy","1024","1","44100","-16","experiment","ﾊパal","24","Regensburg","1","0","1","German","English, Spanish Italian, French","2","even","Cologne, Munich","251292","241332","NA","253805","251288","NA","1474","251062","1475","1475","160510","180264","332512","331009","333105","213435","191127","241331","29540","134802","239658","190917","251291","191131","NA","332512","332512","NA","NA","331005","NAP perception","26","26084","30","yes","1024"
"87.0967741935","yes","87.0967741935","877.290322581","877.290322581","white","no","xpyriment","I have read and understood the information shown above","legacy","legacy","0","uniform","1","0","0","undefined","undefined","1","j","1","0","NA","0","0","0","0","0","0","0","0","0","40","40","40","0","0","0","0","0","1","0","0","0","1","40","40","40","40","40","Wed Jun 28 15:06:53 2017","Forced-choice identification task with a practice and an experimental phase","yes","NAP-FC_GER_AA_ver-2.osexp","/Users/aviadalbert/Documents/Academisch/UoC/Dissertation/Experiment/OpenSesame/NAP-FC/NAP-FC_GER_AA/GER_AA_ver-2","yes","no","sans","no","20","no","black","no","Next","yes","768","legacy","30","9","0","/Users/aviadalbert/Documents/Academisch/UoC/Dissertation/Experiment/OpenSesame/NAP-FC/NAP-FC_GER_AA/GER_AA_ver-2/subject-2.csv","xpyriment","Jazzy James","3.1.6","yes","yes","5950408a6c613b0229e3e810","59504237594d9002288b1720","no","no","0","j","f","space","NA","space","space","j","1112","2512","9674","NA","19749","10590","1112","2","legacy","1024","1","44100","-16","experiment","wetal","24","Regensburg","1","0","1","German","English, Spanish Italian, French","2","even","Cologne, Munich","251292","241332","NA","253805","251288","NA","1474","251062","1475","1475","160510","180264","334869","333365","335982","213435","191127","241331","29540","134802","239658","190917","251291","191131","NA","334869","334869","NA","NA","333361","NAP perception","27","27196","31","yes","1024"
"87.5","yes","87.5","890.6875","890.6875","white","no","xpyriment","I have read and understood the information shown above","legacy","legacy","0","uniform","1","0","0","undefined","undefined","1","f","1","0","NA","0","0","0","0","0","0","0","0","0","41","41","41","0","0","0","0","0","1","0","0","0","1","41","41","41","41","41","Wed Jun 28 15:06:53 2017","Forced-choice identification task with a practice and an experimental phase","yes","NAP-FC_GER_AA_ver-2.osexp","/Users/aviadalbert/Documents/Academisch/UoC/Dissertation/Experiment/OpenSesame/NAP-FC/NAP-FC_GER_AA/GER_AA_ver-2","yes","no","sans","no","20","no","black","no","Next","yes","768","legacy","31","9","0","/Users/aviadalbert/Documents/Academisch/UoC/Dissertation/Experiment/OpenSesame/NAP-FC/NAP-FC_GER_AA/GER_AA_ver-2/subject-2.csv","xpyriment","Jazzy James","3.1.6","yes","yes","5950408a6c613b0229e3e810","59504237594d9002288b1720","no","no","0","f","f","space","NA","space","space","f","1306","2512","9674","NA","19749","10590","1306","2","legacy","1024","1","44100","-16","experiment","jfal","24","Regensburg","1","0","1","German","English, Spanish Italian, French","2","even","Cologne, Munich","251292","241332","NA","253805","251288","NA","1474","251062","1475","1475","160510","180264","337756","336252","339063","213435","191127","241331","29540","134802","239658","190917","251291","191131","NA","337756","337756","NA","NA","336248","NAP perception","28","28502","32","yes","1024"
"87.8787878788","yes","87.8787878788","885.454545455","885.454545455","white","no","xpyriment","I have read and understood the information shown above","legacy","legacy","0","uniform","1","0","0","undefined","undefined","1","f","1","0","NA","0","0","0","0","0","0","0","0","0","42","42","42","0","0","0","0","0","1","0","0","0","1","42","42","42","42","42","Wed Jun 28 15:06:53 2017","Forced-choice identification task with a practice and an experimental phase","yes","NAP-FC_GER_AA_ver-2.osexp","/Users/aviadalbert/Documents/Academisch/UoC/Dissertation/Experiment/OpenSesame/NAP-FC/NAP-FC_GER_AA/GER_AA_ver-2","yes","no","sans","no","20","no","black","no","Next","yes","768","legacy","32","9","0","/Users/aviadalbert/Documents/Academisch/UoC/Dissertation/Experiment/OpenSesame/NAP-FC/NAP-FC_GER_AA/GER_AA_ver-2/subject-2.csv","xpyriment","Jazzy James","3.1.6","yes","yes","5950408a6c613b0229e3e810","59504237594d9002288b1720","no","no","0","f","f","space","NA","space","space","f","718","2512","9674","NA","19749","10590","718","2","legacy","1024","1","44100","-16","experiment","vzal","24","Regensburg","1","0","1","German","English, Spanish Italian, French","2","even","Cologne, Munich","251292","241332","NA","253805","251288","NA","1474","251062","1475","1475","160510","180264","340834","339331","341553","213435","191127","241331","29540","134802","239658","190917","251291","191131","NA","340834","340834","NA","NA","339327","NAP perception","29","29220","33","yes","1024"
"85.2941176471","yes","85.2941176471","903.882352941","903.882352941","white","no","xpyriment","I have read and understood the information shown above","legacy","legacy","0","uniform","0","0","0","undefined","undefined","0","f","1","0","NA","0","0","0","0","0","0","0","0","0","43","43","43","0","0","0","0","0","1","0","0","0","1","43","43","43","43","43","Wed Jun 28 15:06:53 2017","Forced-choice identification task with a practice and an experimental phase","yes","NAP-FC_GER_AA_ver-2.osexp","/Users/aviadalbert/Documents/Academisch/UoC/Dissertation/Experiment/OpenSesame/NAP-FC/NAP-FC_GER_AA/GER_AA_ver-2","yes","no","sans","no","20","no","black","no","Next","yes","768","legacy","33","9","0","/Users/aviadalbert/Documents/Academisch/UoC/Dissertation/Experiment/OpenSesame/NAP-FC/NAP-FC_GER_AA/GER_AA_ver-2/subject-2.csv","xpyriment","Jazzy James","3.1.6","yes","yes","5950408a6c613b0229e3e810","59504237594d9002288b1720","no","no","0","j","f","space","NA","space","space","j","1512","2512","9674","NA","19749","10590","1512","2","legacy","1024","1","44100","-16","experiment","jval","24","Regensburg","1","0","1","German","English, Spanish Italian, French","2","even","Cologne, Munich","251292","241332","NA","253805","251288","NA","1474","251062","1475","1475","160510","180264","343322","341818","344835","213435","191127","241331","29540","134802","239658","190917","251291","191131","NA","343322","343322","NA","NA","341814","NAP perception","29","30732","34","yes","1024"
"82.8571428571","yes","82.8571428571","914.6","914.6","white","no","xpyriment","I have read and understood the information shown above","legacy","legacy","0","uniform","0","0","0","undefined","undefined","0","f","1","0","NA","0","0","0","0","0","0","0","0","0","44","44","44","0","0","0","0","0","1","0","0","0","1","44","44","44","44","44","Wed Jun 28 15:06:53 2017","Forced-choice identification task with a practice and an experimental phase","yes","NAP-FC_GER_AA_ver-2.osexp","/Users/aviadalbert/Documents/Academisch/UoC/Dissertation/Experiment/OpenSesame/NAP-FC/NAP-FC_GER_AA/GER_AA_ver-2","yes","no","sans","no","20","no","black","no","Next","yes","768","legacy","34","9","0","/Users/aviadalbert/Documents/Academisch/UoC/Dissertation/Experiment/OpenSesame/NAP-FC/NAP-FC_GER_AA/GER_AA_ver-2/subject-2.csv","xpyriment","Jazzy James","3.1.6","yes","yes","5950408a6c613b0229e3e810","59504237594d9002288b1720","no","no","0","j","f","space","NA","space","space","j","1279","2512","9674","NA","19749","10590","1279","2","legacy","1024","1","44100","-16","experiment","lmal","24","Regensburg","1","0","1","German","English, Spanish Italian, French","2","even","Cologne, Munich","251292","241332","NA","253805","251288","NA","1474","251062","1475","1475","160510","180264","346612","345106","347892","213435","191127","241331","29540","134802","239658","190917","251291","191131","NA","346612","346612","NA","NA","345102","NAP perception","29","32011","35","yes","1024"
"80.5555555556","yes","80.5555555556","913.25","913.25","white","no","xpyriment","I have read and understood the information shown above","legacy","legacy","0","uniform","0","0","0","undefined","undefined","0","j","1","0","NA","0","0","0","0","0","0","0","0","0","45","45","45","0","0","0","0","0","1","0","0","0","1","45","45","45","45","45","Wed Jun 28 15:06:53 2017","Forced-choice identification task with a practice and an experimental phase","yes","NAP-FC_GER_AA_ver-2.osexp","/Users/aviadalbert/Documents/Academisch/UoC/Dissertation/Experiment/OpenSesame/NAP-FC/NAP-FC_GER_AA/GER_AA_ver-2","yes","no","sans","no","20","no","black","no","Next","yes","768","legacy","35","9","0","/Users/aviadalbert/Documents/Academisch/UoC/Dissertation/Experiment/OpenSesame/NAP-FC/NAP-FC_GER_AA/GER_AA_ver-2/subject-2.csv","xpyriment","Jazzy James","3.1.6","yes","yes","5950408a6c613b0229e3e810","59504237594d9002288b1720","no","no","0","f","f","space","NA","space","space","f","866","2512","9674","NA","19749","10590","866","2","legacy","1024","1","44100","-16","experiment","eflal","24","Regensburg","1","0","1","German","English, Spanish Italian, French","2","even","Cologne, Munich","251292","241332","NA","253805","251288","NA","1474","251062","1475","1475","160510","180264","349667","348163","350535","213435","191127","241331","29540","134802","239658","190917","251291","191131","NA","349667","349667","NA","NA","348159","NAP perception","29","32877","36","yes","1024"
"81.0810810811","yes","81.0810810811","912.243243243","912.243243243","white","no","xpyriment","I have read and understood the information shown above","legacy","legacy","0","uniform","1","0","0","undefined","undefined","1","j","1","0","NA","0","0","0","0","0","0","0","0","0","46","46","46","0","0","0","0","0","1","0","0","0","1","46","46","46","46","46","Wed Jun 28 15:06:53 2017","Forced-choice identification task with a practice and an experimental phase","yes","NAP-FC_GER_AA_ver-2.osexp","/Users/aviadalbert/Documents/Academisch/UoC/Dissertation/Experiment/OpenSesame/NAP-FC/NAP-FC_GER_AA/GER_AA_ver-2","yes","no","sans","no","20","no","black","no","Next","yes","768","legacy","36","9","0","/Users/aviadalbert/Documents/Academisch/UoC/Dissertation/Experiment/OpenSesame/NAP-FC/NAP-FC_GER_AA/GER_AA_ver-2/subject-2.csv","xpyriment","Jazzy James","3.1.6","yes","yes","5950408a6c613b0229e3e810","59504237594d9002288b1720","no","no","0","j","f","space","NA","space","space","j","876","2512","9674","NA","19749","10590","876","2","legacy","1024","1","44100","-16","experiment","lekal","24","Regensburg","1","0","1","German","English, Spanish Italian, French","2","even","Cologne, Munich","251292","241332","NA","253805","251288","NA","1474","251062","1475","1475","160510","180264","352307","350804","353185","213435","191127","241331","29540","134802","239658","190917","251291","191131","NA","352307","352307","NA","NA","350800","NAP perception","30","33753","37","yes","1024"
"81.5789473684","yes","81.5789473684","909.921052632","909.921052632","white","no","xpyriment","I have read and understood the information shown above","legacy","legacy","0","uniform","1","0","0","undefined","undefined","1","j","1","0","NA","0","0","0","0","0","0","0","0","0","47","47","47","0","0","0","0","0","1","0","0","0","1","47","47","47","47","47","Wed Jun 28 15:06:53 2017","Forced-choice identification task with a practice and an experimental phase","yes","NAP-FC_GER_AA_ver-2.osexp","/Users/aviadalbert/Documents/Academisch/UoC/Dissertation/Experiment/OpenSesame/NAP-FC/NAP-FC_GER_AA/GER_AA_ver-2","yes","no","sans","no","20","no","black","no","Next","yes","768","legacy","37","9","0","/Users/aviadalbert/Documents/Academisch/UoC/Dissertation/Experiment/OpenSesame/NAP-FC/NAP-FC_GER_AA/GER_AA_ver-2/subject-2.csv","xpyriment","Jazzy James","3.1.6","yes","yes","5950408a6c613b0229e3e810","59504237594d9002288b1720","no","no","0","j","f","space","NA","space","space","j","824","2512","9674","NA","19749","10590","824","2","legacy","1024","1","44100","-16","experiment","nefal","24","Regensburg","1","0","1","German","English, Spanish Italian, French","2","even","Cologne, Munich","251292","241332","NA","253805","251288","NA","1474","251062","1475","1475","160510","180264","354956","353449","355782","213435","191127","241331","29540","134802","239658","190917","251291","191131","NA","354956","354956","NA","NA","353445","NAP perception","31","34577","38","yes","1024"
"79.4871794872","yes","79.4871794872","910.974358974","910.974358974","white","no","xpyriment","I have read and understood the information shown above","legacy","legacy","0","uniform","0","0","0","undefined","undefined","0","f","1","0","NA","0","0","0","0","0","0","0","0","0","48","48","48","0","0","0","0","0","1","0","0","0","1","48","48","48","48","48","Wed Jun 28 15:06:53 2017","Forced-choice identification task with a practice and an experimental phase","yes","NAP-FC_GER_AA_ver-2.osexp","/Users/aviadalbert/Documents/Academisch/UoC/Dissertation/Experiment/OpenSesame/NAP-FC/NAP-FC_GER_AA/GER_AA_ver-2","yes","no","sans","no","20","no","black","no","Next","yes","768","legacy","38","9","0","/Users/aviadalbert/Documents/Academisch/UoC/Dissertation/Experiment/OpenSesame/NAP-FC/NAP-FC_GER_AA/GER_AA_ver-2/subject-2.csv","xpyriment","Jazzy James","3.1.6","yes","yes","5950408a6c613b0229e3e810","59504237594d9002288b1720","no","no","0","j","f","space","NA","space","space","j","951","2512","9674","NA","19749","10590","951","2","legacy","1024","1","44100","-16","experiment","wzal","24","Regensburg","1","0","1","German","English, Spanish Italian, French","2","even","Cologne, Munich","251292","241332","NA","253805","251288","NA","1474","251062","1475","1475","160510","180264","357545","356041","358498","213435","191127","241331","29540","134802","239658","190917","251291","191131","NA","357544","357545","NA","NA","356037","NAP perception","31","35528","39","yes","1024"
"80","yes","80","909.825","909.825","white","no","xpyriment","I have read and understood the information shown above","legacy","legacy","0","uniform","1","0","0","undefined","undefined","1","f","1","0","NA","0","0","0","0","0","0","0","0","0","49","49","49","0","0","0","0","0","1","0","0","0","1","49","49","49","49","49","Wed Jun 28 15:06:53 2017","Forced-choice identification task with a practice and an experimental phase","yes","NAP-FC_GER_AA_ver-2.osexp","/Users/aviadalbert/Documents/Academisch/UoC/Dissertation/Experiment/OpenSesame/NAP-FC/NAP-FC_GER_AA/GER_AA_ver-2","yes","no","sans","no","20","no","black","no","Next","yes","768","legacy","39","9","0","/Users/aviadalbert/Documents/Academisch/UoC/Dissertation/Experiment/OpenSesame/NAP-FC/NAP-FC_GER_AA/GER_AA_ver-2/subject-2.csv","xpyriment","Jazzy James","3.1.6","yes","yes","5950408a6c613b0229e3e810","59504237594d9002288b1720","no","no","0","f","f","space","NA","space","space","f","865","2512","9674","NA","19749","10590","865","2","legacy","1024","1","44100","-16","experiment","lfal","24","Regensburg","1","0","1","German","English, Spanish Italian, French","2","even","Cologne, Munich","251292","241332","NA","253805","251288","NA","1474","251062","1475","1475","160510","180264","360270","358767","361137","213435","191127","241331","29540","134802","239658","190917","251291","191131","NA","360270","360270","NA","NA","358763","NAP perception","32","36393","40","yes","1024"
"80.487804878","yes","80.487804878","903.024390244","903.024390244","white","no","xpyriment","I have read and understood the information shown above","legacy","legacy","0","uniform","1","0","0","undefined","undefined","1","f","1","0","NA","0","0","0","0","0","0","0","0","0","50","50","50","0","0","0","0","0","1","0","0","0","1","50","50","50","50","50","Wed Jun 28 15:06:53 2017","Forced-choice identification task with a practice and an experimental phase","yes","NAP-FC_GER_AA_ver-2.osexp","/Users/aviadalbert/Documents/Academisch/UoC/Dissertation/Experiment/OpenSesame/NAP-FC/NAP-FC_GER_AA/GER_AA_ver-2","yes","no","sans","no","20","no","black","no","Next","yes","768","legacy","40","9","0","/Users/aviadalbert/Documents/Academisch/UoC/Dissertation/Experiment/OpenSesame/NAP-FC/NAP-FC_GER_AA/GER_AA_ver-2/subject-2.csv","xpyriment","Jazzy James","3.1.6","yes","yes","5950408a6c613b0229e3e810","59504237594d9002288b1720","no","no","0","f","f","space","NA","space","space","f","631","2512","9674","NA","19749","10590","631","2","legacy","1024","1","44100","-16","experiment","mlal","24","Regensburg","1","0","1","German","English, Spanish Italian, French","2","even","Cologne, Munich","251292","241332","NA","253805","251288","NA","1474","251062","1475","1475","160510","180264","362907","361402","363540","213435","191127","241331","29540","134802","239658","190917","251291","191131","NA","362907","362907","NA","NA","361398","NAP perception","33","37024","41","yes","1024"
"80.9523809524","yes","80.9523809524","907.595238095","907.595238095","white","no","xpyriment","I have read and understood the information shown above","legacy","legacy","0","uniform","1","0","0","undefined","undefined","1","j","1","0","NA","0","0","0","0","0","0","0","0","0","51","51","51","0","0","0","0","0","1","0","0","0","1","51","51","51","51","51","Wed Jun 28 15:06:53 2017","Forced-choice identification task with a practice and an experimental phase","yes","NAP-FC_GER_AA_ver-2.osexp","/Users/aviadalbert/Documents/Academisch/UoC/Dissertation/Experiment/OpenSesame/NAP-FC/NAP-FC_GER_AA/GER_AA_ver-2","yes","no","sans","no","20","no","black","no","Next","yes","768","legacy","41","9","0","/Users/aviadalbert/Documents/Academisch/UoC/Dissertation/Experiment/OpenSesame/NAP-FC/NAP-FC_GER_AA/GER_AA_ver-2/subject-2.csv","xpyriment","Jazzy James","3.1.6","yes","yes","5950408a6c613b0229e3e810","59504237594d9002288b1720","no","no","0","j","f","space","NA","space","space","j","1095","2512","9674","NA","19749","10590","1095","2","legacy","1024","1","44100","-16","experiment","jefal","24","Regensburg","1","0","1","German","English, Spanish Italian, French","2","even","Cologne, Munich","251292","241332","NA","253805","251288","NA","1474","251062","1475","1475","160510","180264","365321","363817","366417","213435","191127","241331","29540","134802","239658","190917","251291","191131","NA","365321","365321","NA","NA","363813","NAP perception","34","38119","42","yes","1024"
"79.0697674419","yes","79.0697674419","904.674418605","904.674418605","white","no","xpyriment","I have read and understood the information shown above","legacy","legacy","0","uniform","0","0","0","undefined","undefined","0","j","1","0","NA","0","0","0","0","0","0","0","0","0","52","52","52","0","0","0","0","0","1","0","0","0","1","52","52","52","52","52","Wed Jun 28 15:06:53 2017","Forced-choice identification task with a practice and an experimental phase","yes","NAP-FC_GER_AA_ver-2.osexp","/Users/aviadalbert/Documents/Academisch/UoC/Dissertation/Experiment/OpenSesame/NAP-FC/NAP-FC_GER_AA/GER_AA_ver-2","yes","no","sans","no","20","no","black","no","Next","yes","768","legacy","42","9","0","/Users/aviadalbert/Documents/Academisch/UoC/Dissertation/Experiment/OpenSesame/NAP-FC/NAP-FC_GER_AA/GER_AA_ver-2/subject-2.csv","xpyriment","Jazzy James","3.1.6","yes","yes","5950408a6c613b0229e3e810","59504237594d9002288b1720","no","no","0","f","f","space","NA","space","space","f","782","2512","9674","NA","19749","10590","782","2","legacy","1024","1","44100","-16","experiment","ezmal","24","Regensburg","1","0","1","German","English, Spanish Italian, French","2","even","Cologne, Munich","251292","241332","NA","253805","251288","NA","1474","251062","1475","1475","160510","180264","368180","366674","368963","213435","191127","241331","29540","134802","239658","190917","251291","191131","NA","368179","368180","NA","NA","366670","NAP perception","34","38901","43","yes","1024"
"79.5454545455","yes","79.5454545455","924.772727273","924.772727273","white","no","xpyriment","I have read and understood the information shown above","legacy","legacy","0","uniform","1","0","0","undefined","undefined","1","f","1","0","NA","0","0","0","0","0","0","0","0","0","53","53","53","0","0","0","0","0","1","0","0","0","1","53","53","53","53","53","Wed Jun 28 15:06:53 2017","Forced-choice identification task with a practice and an experimental phase","yes","NAP-FC_GER_AA_ver-2.osexp","/Users/aviadalbert/Documents/Academisch/UoC/Dissertation/Experiment/OpenSesame/NAP-FC/NAP-FC_GER_AA/GER_AA_ver-2","yes","no","sans","no","20","no","black","no","Next","yes","768","legacy","43","9","0","/Users/aviadalbert/Documents/Academisch/UoC/Dissertation/Experiment/OpenSesame/NAP-FC/NAP-FC_GER_AA/GER_AA_ver-2/subject-2.csv","xpyriment","Jazzy James","3.1.6","yes","yes","5950408a6c613b0229e3e810","59504237594d9002288b1720","no","no","0","f","f","space","NA","space","space","f","1789","2512","9674","NA","19749","10590","1789","2","legacy","1024","1","44100","-16","experiment","npal","24","Regensburg","1","0","1","German","English, Spanish Italian, French","2","even","Cologne, Munich","251292","241332","NA","253805","251288","NA","1474","251062","1475","1475","160510","180264","370730","369226","372520","213435","191127","241331","29540","134802","239658","190917","251291","191131","NA","370730","370730","NA","NA","369222","NAP perception","35","40690","44","yes","1024"
"77.7777777778","yes","77.7777777778","923.955555556","923.955555556","white","no","xpyriment","I have read and understood the information shown above","legacy","legacy","0","uniform","0","0","0","undefined","undefined","0","j","1","0","NA","0","0","0","0","0","0","0","0","0","54","54","54","0","0","0","0","0","1","0","0","0","1","54","54","54","54","54","Wed Jun 28 15:06:53 2017","Forced-choice identification task with a practice and an experimental phase","yes","NAP-FC_GER_AA_ver-2.osexp","/Users/aviadalbert/Documents/Academisch/UoC/Dissertation/Experiment/OpenSesame/NAP-FC/NAP-FC_GER_AA/GER_AA_ver-2","yes","no","sans","no","20","no","black","no","Next","yes","768","legacy","44","9","0","/Users/aviadalbert/Documents/Academisch/UoC/Dissertation/Experiment/OpenSesame/NAP-FC/NAP-FC_GER_AA/GER_AA_ver-2/subject-2.csv","xpyriment","Jazzy James","3.1.6","yes","yes","5950408a6c613b0229e3e810","59504237594d9002288b1720","no","no","0","f","f","space","NA","space","space","f","888","2512","9674","NA","19749","10590","888","2","legacy","1024","1","44100","-16","experiment","emnal","24","Regensburg","1","0","1","German","English, Spanish Italian, French","2","even","Cologne, Munich","251292","241332","NA","253805","251288","NA","1474","251062","1475","1475","160510","180264","374288","372782","375178","213435","191127","241331","29540","134802","239658","190917","251291","191131","NA","374287","374288","NA","NA","372778","NAP perception","35","41578","45","yes","1024"
"76.0869565217","yes","76.0869565217","933.97826087","933.97826087","white","no","xpyriment","I have read and understood the information shown above","legacy","legacy","0","uniform","0","0","0","undefined","undefined","0","f","1","0","NA","0","0","0","0","0","0","0","0","0","55","55","55","0","0","0","0","0","1","0","0","0","1","55","55","55","55","55","Wed Jun 28 15:06:53 2017","Forced-choice identification task with a practice and an experimental phase","yes","NAP-FC_GER_AA_ver-2.osexp","/Users/aviadalbert/Documents/Academisch/UoC/Dissertation/Experiment/OpenSesame/NAP-FC/NAP-FC_GER_AA/GER_AA_ver-2","yes","no","sans","no","20","no","black","no","Next","yes","768","legacy","45","9","0","/Users/aviadalbert/Documents/Academisch/UoC/Dissertation/Experiment/OpenSesame/NAP-FC/NAP-FC_GER_AA/GER_AA_ver-2/subject-2.csv","xpyriment","Jazzy James","3.1.6","yes","yes","5950408a6c613b0229e3e810","59504237594d9002288b1720","no","no","0","j","f","space","NA","space","space","j","1385","2512","9674","NA","19749","10590","1385","2","legacy","1024","1","44100","-16","experiment","lkal","24","Regensburg","1","0","1","German","English, Spanish Italian, French","2","even","Cologne, Munich","251292","241332","NA","253805","251288","NA","1474","251062","1475","1475","160510","180264","376958","375453","378345","213435","191127","241331","29540","134802","239658","190917","251291","191131","NA","376957","376958","NA","NA","375449","NAP perception","35","42963","46","yes","1024"
"74.4680851064","yes","74.4680851064","943.382978723","943.382978723","white","no","xpyriment","I have read and understood the information shown above","legacy","legacy","0","uniform","0","0","0","undefined","undefined","0","f","1","0","NA","0","0","0","0","0","0","0","0","0","56","56","56","0","0","0","0","0","1","0","0","0","1","56","56","56","56","56","Wed Jun 28 15:06:53 2017","Forced-choice identification task with a practice and an experimental phase","yes","NAP-FC_GER_AA_ver-2.osexp","/Users/aviadalbert/Documents/Academisch/UoC/Dissertation/Experiment/OpenSesame/NAP-FC/NAP-FC_GER_AA/GER_AA_ver-2","yes","no","sans","no","20","no","black","no","Next","yes","768","legacy","46","9","0","/Users/aviadalbert/Documents/Academisch/UoC/Dissertation/Experiment/OpenSesame/NAP-FC/NAP-FC_GER_AA/GER_AA_ver-2/subject-2.csv","xpyriment","Jazzy James","3.1.6","yes","yes","5950408a6c613b0229e3e810","59504237594d9002288b1720","no","no","0","j","f","space","NA","space","space","j","1376","2512","9674","NA","19749","10590","1376","2","legacy","1024","1","44100","-16","experiment","nmal","24","Regensburg","1","0","1","German","English, Spanish Italian, French","2","even","Cologne, Munich","251292","241332","NA","253805","251288","NA","1474","251062","1475","1475","160510","180264","380119","378612","381497","213435","191127","241331","29540","134802","239658","190917","251291","191131","NA","380119","380119","NA","NA","378608","NAP perception","35","44339","47","yes","1024"
"75","yes","75","939.0625","939.0625","white","no","xpyriment","I have read and understood the information shown above","legacy","legacy","0","uniform","1","0","0","undefined","undefined","1","f","1","0","NA","0","0","0","0","0","0","0","0","0","57","57","57","0","0","0","0","0","1","0","0","0","1","57","57","57","57","57","Wed Jun 28 15:06:53 2017","Forced-choice identification task with a practice and an experimental phase","yes","NAP-FC_GER_AA_ver-2.osexp","/Users/aviadalbert/Documents/Academisch/UoC/Dissertation/Experiment/OpenSesame/NAP-FC/NAP-FC_GER_AA/GER_AA_ver-2","yes","no","sans","no","20","no","black","no","Next","yes","768","legacy","47","9","0","/Users/aviadalbert/Documents/Academisch/UoC/Dissertation/Experiment/OpenSesame/NAP-FC/NAP-FC_GER_AA/GER_AA_ver-2/subject-2.csv","xpyriment","Jazzy James","3.1.6","yes","yes","5950408a6c613b0229e3e810","59504237594d9002288b1720","no","no","0","f","f","space","NA","space","space","f","736","2512","9674","NA","19749","10590","736","2","legacy","1024","1","44100","-16","experiment","vnal","24","Regensburg","1","0","1","German","English, Spanish Italian, French","2","even","Cologne, Munich","251292","241332","NA","253805","251288","NA","1474","251062","1475","1475","160510","180264","383269","381766","384007","213435","191127","241331","29540","134802","239658","190917","251291","191131","NA","383269","383269","NA","NA","381762","NAP perception","36","45075","48","yes","1024"
"75.5102040816","yes","75.5102040816","942.306122449","942.306122449","white","no","xpyriment","I have read and understood the information shown above","legacy","legacy","0","uniform","1","0","0","undefined","undefined","1","f","1","0","NA","0","0","0","0","0","0","0","0","0","58","58","58","0","0","0","0","0","1","0","0","0","1","58","58","58","58","58","Wed Jun 28 15:06:53 2017","Forced-choice identification task with a practice and an experimental phase","yes","NAP-FC_GER_AA_ver-2.osexp","/Users/aviadalbert/Documents/Academisch/UoC/Dissertation/Experiment/OpenSesame/NAP-FC/NAP-FC_GER_AA/GER_AA_ver-2","yes","no","sans","no","20","no","black","no","Next","yes","768","legacy","48","9","0","/Users/aviadalbert/Documents/Academisch/UoC/Dissertation/Experiment/OpenSesame/NAP-FC/NAP-FC_GER_AA/GER_AA_ver-2/subject-2.csv","xpyriment","Jazzy James","3.1.6","yes","yes","5950408a6c613b0229e3e810","59504237594d9002288b1720","no","no","0","f","f","space","NA","space","space","f","1098","2512","9674","NA","19749","10590","1098","2","legacy","1024","1","44100","-16","experiment","msal","24","Regensburg","1","0","1","German","English, Spanish Italian, French","2","even","Cologne, Munich","251292","241332","NA","253805","251288","NA","1474","251062","1475","1475","160510","180264","385776","384273","386876","213435","191127","241331","29540","134802","239658","190917","251291","191131","NA","385776","385776","NA","NA","384269","NAP perception","37","46173","49","yes","1024"
"76","yes","76","955.5","955.5","white","no","xpyriment","I have read and understood the information shown above","legacy","legacy","0","uniform","1","0","0","undefined","undefined","1","j","1","0","NA","0","0","0","0","0","0","0","0","0","59","59","59","0","0","0","0","0","1","0","0","0","1","59","59","59","59","59","Wed Jun 28 15:06:53 2017","Forced-choice identification task with a practice and an experimental phase","yes","NAP-FC_GER_AA_ver-2.osexp","/Users/aviadalbert/Documents/Academisch/UoC/Dissertation/Experiment/OpenSesame/NAP-FC/NAP-FC_GER_AA/GER_AA_ver-2","yes","no","sans","no","20","no","black","no","Next","yes","768","legacy","49","9","0","/Users/aviadalbert/Documents/Academisch/UoC/Dissertation/Experiment/OpenSesame/NAP-FC/NAP-FC_GER_AA/GER_AA_ver-2/subject-2.csv","xpyriment","Jazzy James","3.1.6","yes","yes","5950408a6c613b0229e3e810","59504237594d9002288b1720","no","no","0","j","f","space","NA","space","space","j","1602","2512","9674","NA","19749","10590","1602","2","legacy","1024","1","44100","-16","experiment","sefal","24","Regensburg","1","0","1","German","English, Spanish Italian, French","2","even","Cologne, Munich","251292","241332","NA","253805","251288","NA","1474","251062","1475","1475","160510","180264","388648","387144","390252","213435","191127","241331","29540","134802","239658","190917","251291","191131","NA","388648","388648","NA","NA","387140","NAP perception","38","47775","50","yes","1024"
"76.4705882353","yes","76.4705882353","952.68627451","952.68627451","white","no","xpyriment","I have read and understood the information shown above","legacy","legacy","0","uniform","1","0","0","undefined","undefined","1","j","1","0","NA","0","0","0","0","0","0","0","0","0","60","60","60","0","0","0","0","0","1","0","0","0","1","60","60","60","60","60","Wed Jun 28 15:06:53 2017","Forced-choice identification task with a practice and an experimental phase","yes","NAP-FC_GER_AA_ver-2.osexp","/Users/aviadalbert/Documents/Academisch/UoC/Dissertation/Experiment/OpenSesame/NAP-FC/NAP-FC_GER_AA/GER_AA_ver-2","yes","no","sans","no","20","no","black","no","Next","yes","768","legacy","50","9","0","/Users/aviadalbert/Documents/Academisch/UoC/Dissertation/Experiment/OpenSesame/NAP-FC/NAP-FC_GER_AA/GER_AA_ver-2/subject-2.csv","xpyriment","Jazzy James","3.1.6","yes","yes","5950408a6c613b0229e3e810","59504237594d9002288b1720","no","no","0","j","f","space","NA","space","space","j","812","2512","9674","NA","19749","10590","812","2","legacy","1024","1","44100","-16","experiment","jepal","24","Regensburg","1","0","1","German","English, Spanish Italian, French","2","even","Cologne, Munich","251292","241332","NA","253805","251288","NA","1474","251062","1475","1475","160510","180264","392019","390513","392833","213435","191127","241331","29540","134802","239658","190917","251291","191131","NA","392019","392019","NA","NA","390509","NAP perception","39","48587","51","yes","1024"
"76.9230769231","yes","76.9230769231","948.480769231","948.480769231","white","no","xpyriment","I have read and understood the information shown above","legacy","legacy","0","uniform","1","0","0","undefined","undefined","1","j","1","0","NA","0","0","0","0","0","0","0","0","0","61","61","61","0","0","0","0","0","1","0","0","0","1","61","61","61","61","61","Wed Jun 28 15:06:53 2017","Forced-choice identification task with a practice and an experimental phase","yes","NAP-FC_GER_AA_ver-2.osexp","/Users/aviadalbert/Documents/Academisch/UoC/Dissertation/Experiment/OpenSesame/NAP-FC/NAP-FC_GER_AA/GER_AA_ver-2","yes","no","sans","no","20","no","black","no","Next","yes","768","legacy","51","9","0","/Users/aviadalbert/Documents/Academisch/UoC/Dissertation/Experiment/OpenSesame/NAP-FC/NAP-FC_GER_AA/GER_AA_ver-2/subject-2.csv","xpyriment","Jazzy James","3.1.6","yes","yes","5950408a6c613b0229e3e810","59504237594d9002288b1720","no","no","0","j","f","space","NA","space","space","j","734","2512","9674","NA","19749","10590","734","2","legacy","1024","1","44100","-16","experiment","leval","24","Regensburg","1","0","1","German","English, Spanish Italian, French","2","even","Cologne, Munich","251292","241332","NA","253805","251288","NA","1474","251062","1475","1475","160510","180264","394601","393098","395337","213435","191127","241331","29540","134802","239658","190917","251291","191131","NA","394601","394601","NA","NA","393094","NAP perception","40","49321","52","yes","1024"
"77.358490566","yes","77.358490566","942.735849057","942.735849057","white","no","xpyriment","I have read and understood the information shown above","legacy","legacy","0","uniform","1","0","0","undefined","undefined","1","f","1","0","NA","0","0","0","0","0","0","0","0","0","62","62","62","0","0","0","0","0","1","0","0","0","1","62","62","62","62","62","Wed Jun 28 15:06:53 2017","Forced-choice identification task with a practice and an experimental phase","yes","NAP-FC_GER_AA_ver-2.osexp","/Users/aviadalbert/Documents/Academisch/UoC/Dissertation/Experiment/OpenSesame/NAP-FC/NAP-FC_GER_AA/GER_AA_ver-2","yes","no","sans","no","20","no","black","no","Next","yes","768","legacy","52","9","0","/Users/aviadalbert/Documents/Academisch/UoC/Dissertation/Experiment/OpenSesame/NAP-FC/NAP-FC_GER_AA/GER_AA_ver-2/subject-2.csv","xpyriment","Jazzy James","3.1.6","yes","yes","5950408a6c613b0229e3e810","59504237594d9002288b1720","no","no","0","f","f","space","NA","space","space","f","644","2512","9674","NA","19749","10590","644","2","legacy","1024","1","44100","-16","experiment","sfal","24","Regensburg","1","0","1","German","English, Spanish Italian, French","2","even","Cologne, Munich","251292","241332","NA","253805","251288","NA","1474","251062","1475","1475","160510","180264","397094","395589","397739","213435","191127","241331","29540","134802","239658","190917","251291","191131","NA","397094","397094","NA","NA","395585","NAP perception","41","49965","53","yes","1024"
"77.7777777778","yes","77.7777777778","939.277777778","939.277777778","white","no","xpyriment","I have read and understood the information shown above","legacy","legacy","0","uniform","1","0","0","undefined","undefined","1","j","1","0","NA","0","0","0","0","0","0","0","0","0","63","63","63","0","0","0","0","0","1","0","0","0","1","63","63","63","63","63","Wed Jun 28 15:06:53 2017","Forced-choice identification task with a practice and an experimental phase","yes","NAP-FC_GER_AA_ver-2.osexp","/Users/aviadalbert/Documents/Academisch/UoC/Dissertation/Experiment/OpenSesame/NAP-FC/NAP-FC_GER_AA/GER_AA_ver-2","yes","no","sans","no","20","no","black","no","Next","yes","768","legacy","53","9","0","/Users/aviadalbert/Documents/Academisch/UoC/Dissertation/Experiment/OpenSesame/NAP-FC/NAP-FC_GER_AA/GER_AA_ver-2/subject-2.csv","xpyriment","Jazzy James","3.1.6","yes","yes","5950408a6c613b0229e3e810","59504237594d9002288b1720","no","no","0","j","f","space","NA","space","space","j","756","2512","9674","NA","19749","10590","756","2","legacy","1024","1","44100","-16","experiment","wenal","24","Regensburg","1","0","1","German","English, Spanish Italian, French","2","even","Cologne, Munich","251292","241332","NA","253805","251288","NA","1474","251062","1475","1475","160510","180264","399505","398000","400263","213435","191127","241331","29540","134802","239658","190917","251291","191131","NA","399505","399505","NA","NA","397996","NAP perception","42","50721","54","yes","1024"
"78.1818181818","yes","78.1818181818","942.545454545","942.545454545","white","no","xpyriment","I have read and understood the information shown above","legacy","legacy","0","uniform","1","0","0","undefined","undefined","1","f","1","0","NA","0","0","0","0","0","0","0","0","0","64","64","64","0","0","0","0","0","1","0","0","0","1","64","64","64","64","64","Wed Jun 28 15:06:53 2017","Forced-choice identification task with a practice and an experimental phase","yes","NAP-FC_GER_AA_ver-2.osexp","/Users/aviadalbert/Documents/Academisch/UoC/Dissertation/Experiment/OpenSesame/NAP-FC/NAP-FC_GER_AA/GER_AA_ver-2","yes","no","sans","no","20","no","black","no","Next","yes","768","legacy","54","9","0","/Users/aviadalbert/Documents/Academisch/UoC/Dissertation/Experiment/OpenSesame/NAP-FC/NAP-FC_GER_AA/GER_AA_ver-2/subject-2.csv","xpyriment","Jazzy James","3.1.6","yes","yes","5950408a6c613b0229e3e810","59504237594d9002288b1720","no","no","0","f","f","space","NA","space","space","f","1119","2512","9674","NA","19749","10590","1119","2","legacy","1024","1","44100","-16","experiment","mzal","24","Regensburg","1","0","1","German","English, Spanish Italian, French","2","even","Cologne, Munich","251292","241332","NA","253805","251288","NA","1474","251062","1475","1475","160510","180264","402033","400529","403154","213435","191127","241331","29540","134802","239658","190917","251291","191131","NA","402033","402033","NA","NA","400525","NAP perception","43","51840","55","yes","1024"
"78.5714285714","yes","78.5714285714","948.214285714","948.214285714","white","no","xpyriment","I have read and understood the information shown above","legacy","legacy","0","uniform","1","0","0","undefined","undefined","1","j","1","0","NA","0","0","0","0","0","0","0","0","0","65","65","65","0","0","0","0","0","1","0","0","0","1","65","65","65","65","65","Wed Jun 28 15:06:53 2017","Forced-choice identification task with a practice and an experimental phase","yes","NAP-FC_GER_AA_ver-2.osexp","/Users/aviadalbert/Documents/Academisch/UoC/Dissertation/Experiment/OpenSesame/NAP-FC/NAP-FC_GER_AA/GER_AA_ver-2","yes","no","sans","no","20","no","black","no","Next","yes","768","legacy","55","9","0","/Users/aviadalbert/Documents/Academisch/UoC/Dissertation/Experiment/OpenSesame/NAP-FC/NAP-FC_GER_AA/GER_AA_ver-2/subject-2.csv","xpyriment","Jazzy James","3.1.6","yes","yes","5950408a6c613b0229e3e810","59504237594d9002288b1720","no","no","0","j","f","space","NA","space","space","j","1260","2512","9674","NA","19749","10590","1260","2","legacy","1024","1","44100","-16","experiment","elfal","24","Regensburg","1","0","1","German","English, Spanish Italian, French","2","even","Cologne, Munich","251292","241332","NA","253805","251288","NA","1474","251062","1475","1475","160510","180264","404932","403427","406194","213435","191127","241331","29540","134802","239658","190917","251291","191131","NA","404931","404932","NA","NA","403423","NAP perception","44","53100","56","yes","1024"
