"acc","accept_status","accuracy","average_response_time","avg_rt","background","bidi","canvas_backend","checkbox_status","clock_backend","color_backend","compensation","coordinates","correct","correct_block_activation","correct_block_exit","correct_instructions_1","correct_instructions_2","correct_keyboard_response","correct_response","count_block_activation","count_block_exit","count_block_info_QA","count_e_block_loop","count_e_block_sequence","count_end_of_experiment","count_experiment","count_experimental_loop","count_form_consent","count_info_forms","count_instructions_1","count_instructions_2","count_keyboard_response","count_listen_message","count_logger","count_p_block_loop","count_p_block_sequence","count_p_feedback","count_personal_details_form_1","count_personal_details_form_2","count_post_loop_blank","count_practice_loop","count_pre_e_block_message","count_pre_p_block_message","count_reset_feedback","count_stimulus_image","count_stimulus_sound","count_timeout_message","count_timeout_sound","count_trial_sequence","datetime","description","disable_garbage_collection","experiment_file","experiment_path","expyriment_opengl","font_bold","font_family","font_italic","font_size","font_underline","foreground","form_clicks","form_response","fullscreen","height","keyboard_backend","live_row","live_row_p_block_loop","live_row_practice_loop","logfile","mouse_backend","opensesame_codename","opensesame_version","osf_always_upload_data","osf_always_upload_experiment","osf_datanode_id","osf_id","practice","pygame_doublebuf","repeat_cycle","response","response_block_activation","response_block_exit","response_block_info_QA","response_instructions_1","response_instructions_2","response_keyboard_response","response_time","response_time_block_activation","response_time_block_exit","response_time_block_info_QA","response_time_instructions_1","response_time_instructions_2","response_time_keyboard_response","round_decimals","sampler_backend","sound_buf_size","sound_channels","sound_freq","sound_sample_size","start","stimulus","subject_age","subject_birth","subject_education","subject_gender","subject_handedness","subject_language_native","subject_language_other","subject_nr","subject_parity","subject_residence","time_block_activation","time_block_exit","time_block_info_QA","time_e_block_loop","time_e_block_sequence","time_end_of_experiment","time_experiment","time_experimental_loop","time_form_consent","time_info_forms","time_instructions_1","time_instructions_2","time_keyboard_response","time_listen_message","time_logger","time_p_block_loop","time_p_block_sequence","time_p_feedback","time_personal_details_form_1","time_personal_details_form_2","time_post_loop_blank","time_practice_loop","time_pre_e_block_message","time_pre_p_block_message","time_reset_feedback","time_stimulus_image","time_stimulus_sound","time_timeout_message","time_timeout_sound","time_trial_sequence","title","total_correct","total_response_time","total_responses","uniform_coordinates","width"
"100","yes","100","1835","1835","white","no","xpyriment","I have read and understood the information shown above","legacy","legacy","0","uniform","1","0","NA","undefined","undefined","1","f","0","0","NA","NA","NA","NA","0","0","0","0","0","0","0","0","0","0","0","NA","0","0","0","0","NA","0","0","0","0","0","0","0","Wed Jun 28 17:03:55 2017","Forced-choice identification task with a practice and an experimental phase","yes","NAP-FC_GER_AA_ver-2.osexp","/Users/aviadalbert/Documents/Academisch/UoC/Dissertation/Experiment/OpenSesame/NAP-FC/NAP-FC_GER_AA/GER_AA_ver-2","yes","no","sans","no","20","no","black","no","Next","yes","768","legacy","0","0","0","/Users/aviadalbert/Documents/Academisch/UoC/Dissertation/Experiment/OpenSesame/NAP-FC/NAP-FC_GER_AA/GER_AA_ver-2/subject-5.csv","xpyriment","Jazzy James","3.1.6","yes","yes","5950408a6c613b0229e3e810","59504237594d9002288b1720","yes","no","0","f","f","NA","NA","space","space","f","1835","10216","NA","NA","5244","4089","1835","2","legacy","1024","1","44100","-16","experiment","flal","22","Darmstadt","1","0","1","deutsch","englisch, spanisch, franzoesich","5","odd","Koeln","7155853","NA","NA","NA","NA","NA","7023725","NA","7023725","7023725","7146227","7151475","7167787","7166282","7169623","7166070","7155848","NA","7040008","7133673","NA","7155628","NA","7155853","NA","7167787","7167787","NA","NA","7166279","NAP perception","1","1835","1","yes","1024"
"100","yes","100","1342.5","1342.5","white","no","xpyriment","I have read and understood the information shown above","legacy","legacy","0","uniform","1","0","NA","undefined","undefined","1","j","0","0","NA","NA","NA","NA","0","0","0","0","0","0","1","1","1","0","0","NA","0","0","0","0","NA","0","0","1","1","1","1","1","Wed Jun 28 17:03:55 2017","Forced-choice identification task with a practice and an experimental phase","yes","NAP-FC_GER_AA_ver-2.osexp","/Users/aviadalbert/Documents/Academisch/UoC/Dissertation/Experiment/OpenSesame/NAP-FC/NAP-FC_GER_AA/GER_AA_ver-2","yes","no","sans","no","20","no","black","no","Next","yes","768","legacy","1","1","0","/Users/aviadalbert/Documents/Academisch/UoC/Dissertation/Experiment/OpenSesame/NAP-FC/NAP-FC_GER_AA/GER_AA_ver-2/subject-5.csv","xpyriment","Jazzy James","3.1.6","yes","yes","5950408a6c613b0229e3e810","59504237594d9002288b1720","yes","no","0","j","f","NA","NA","space","space","j","850","10216","NA","NA","5244","4089","850","2","legacy","1024","1","44100","-16","experiment","lepal","22","Darmstadt","1","0","1","deutsch","englisch, spanisch, franzoesich","5","odd","Koeln","7155853","NA","NA","NA","NA","NA","7023725","NA","7023725","7023725","7146227","7151475","7171402","7169899","7172253","7166070","7155848","NA","7040008","7133673","NA","7155628","NA","7155853","NA","7171402","7171402","NA","NA","7169895","NAP perception","2","2685","2","yes","1024"
"100","yes","100","1252","1252","white","no","xpyriment","I have read and understood the information shown above","legacy","legacy","0","uniform","1","0","NA","undefined","undefined","1","j","0","0","NA","NA","NA","NA","0","0","0","0","0","0","2","2","2","0","0","NA","0","0","0","0","NA","0","0","2","2","2","2","2","Wed Jun 28 17:03:55 2017","Forced-choice identification task with a practice and an experimental phase","yes","NAP-FC_GER_AA_ver-2.osexp","/Users/aviadalbert/Documents/Academisch/UoC/Dissertation/Experiment/OpenSesame/NAP-FC/NAP-FC_GER_AA/GER_AA_ver-2","yes","no","sans","no","20","no","black","no","Next","yes","768","legacy","2","2","0","/Users/aviadalbert/Documents/Academisch/UoC/Dissertation/Experiment/OpenSesame/NAP-FC/NAP-FC_GER_AA/GER_AA_ver-2/subject-5.csv","xpyriment","Jazzy James","3.1.6","yes","yes","5950408a6c613b0229e3e810","59504237594d9002288b1720","yes","no","0","j","f","NA","NA","space","space","j","1071","10216","NA","NA","5244","4089","1071","2","legacy","1024","1","44100","-16","experiment","emtal","22","Darmstadt","1","0","1","deutsch","englisch, spanisch, franzoesich","5","odd","Koeln","7155853","NA","NA","NA","NA","NA","7023725","NA","7023725","7023725","7146227","7151475","7174043","7172536","7175115","7166070","7155848","NA","7040008","7133673","NA","7155628","NA","7155853","NA","7174043","7174043","NA","NA","7172532","NAP perception","3","3756","3","yes","1024"
"100","yes","100","1188.75","1188.75","white","no","xpyriment","I have read and understood the information shown above","legacy","legacy","0","uniform","1","0","NA","undefined","undefined","1","f","0","0","NA","NA","NA","NA","0","0","0","0","0","0","3","3","3","0","0","NA","0","0","0","0","NA","0","0","3","3","3","3","3","Wed Jun 28 17:03:55 2017","Forced-choice identification task with a practice and an experimental phase","yes","NAP-FC_GER_AA_ver-2.osexp","/Users/aviadalbert/Documents/Academisch/UoC/Dissertation/Experiment/OpenSesame/NAP-FC/NAP-FC_GER_AA/GER_AA_ver-2","yes","no","sans","no","20","no","black","no","Next","yes","768","legacy","3","3","0","/Users/aviadalbert/Documents/Academisch/UoC/Dissertation/Experiment/OpenSesame/NAP-FC/NAP-FC_GER_AA/GER_AA_ver-2/subject-5.csv","xpyriment","Jazzy James","3.1.6","yes","yes","5950408a6c613b0229e3e810","59504237594d9002288b1720","yes","no","0","f","f","NA","NA","space","space","f","999","10216","NA","NA","5244","4089","999","2","legacy","1024","1","44100","-16","experiment","ʃpal","22","Darmstadt","1","0","1","deutsch","englisch, spanisch, franzoesich","5","odd","Koeln","7155853","NA","NA","NA","NA","NA","7023725","NA","7023725","7023725","7146227","7151475","7176902","7175396","7177902","7166070","7155848","NA","7040008","7133673","NA","7155628","NA","7155853","NA","7176902","7176902","NA","NA","7175392","NAP perception","4","4755","4","yes","1024"
"100","yes","100","1167.6","1167.6","white","no","xpyriment","I have read and understood the information shown above","legacy","legacy","0","uniform","1","0","NA","undefined","undefined","1","j","0","0","NA","NA","NA","NA","0","0","0","0","0","0","4","4","4","0","0","NA","0","0","0","0","NA","0","0","4","4","4","4","4","Wed Jun 28 17:03:55 2017","Forced-choice identification task with a practice and an experimental phase","yes","NAP-FC_GER_AA_ver-2.osexp","/Users/aviadalbert/Documents/Academisch/UoC/Dissertation/Experiment/OpenSesame/NAP-FC/NAP-FC_GER_AA/GER_AA_ver-2","yes","no","sans","no","20","no","black","no","Next","yes","768","legacy","4","4","0","/Users/aviadalbert/Documents/Academisch/UoC/Dissertation/Experiment/OpenSesame/NAP-FC/NAP-FC_GER_AA/GER_AA_ver-2/subject-5.csv","xpyriment","Jazzy James","3.1.6","yes","yes","5950408a6c613b0229e3e810","59504237594d9002288b1720","yes","no","0","j","f","NA","NA","space","space","j","1083","10216","NA","NA","5244","4089","1083","2","legacy","1024","1","44100","-16","experiment","nefal","22","Darmstadt","1","0","1","deutsch","englisch, spanisch, franzoesich","5","odd","Koeln","7155853","NA","NA","NA","NA","NA","7023725","NA","7023725","7023725","7146227","7151475","7179688","7178185","7180772","7166070","7155848","NA","7040008","7133673","NA","7155628","NA","7155853","NA","7179688","7179688","NA","NA","7178181","NAP perception","5","5838","5","yes","1024"
"100","yes","100","1122.16666667","1122.16666667","white","no","xpyriment","I have read and understood the information shown above","legacy","legacy","0","uniform","1","0","NA","undefined","undefined","1","f","0","0","NA","NA","NA","NA","0","0","0","0","0","0","5","5","5","0","0","NA","0","0","0","0","NA","0","0","5","5","5","5","5","Wed Jun 28 17:03:55 2017","Forced-choice identification task with a practice and an experimental phase","yes","NAP-FC_GER_AA_ver-2.osexp","/Users/aviadalbert/Documents/Academisch/UoC/Dissertation/Experiment/OpenSesame/NAP-FC/NAP-FC_GER_AA/GER_AA_ver-2","yes","no","sans","no","20","no","black","no","Next","yes","768","legacy","5","5","0","/Users/aviadalbert/Documents/Academisch/UoC/Dissertation/Experiment/OpenSesame/NAP-FC/NAP-FC_GER_AA/GER_AA_ver-2/subject-5.csv","xpyriment","Jazzy James","3.1.6","yes","yes","5950408a6c613b0229e3e810","59504237594d9002288b1720","yes","no","0","f","f","NA","NA","space","space","f","895","10216","NA","NA","5244","4089","895","2","legacy","1024","1","44100","-16","experiment","sfal","22","Darmstadt","1","0","1","deutsch","englisch, spanisch, franzoesich","5","odd","Koeln","7155853","NA","NA","NA","NA","NA","7023725","NA","7023725","7023725","7146227","7151475","7182568","7181063","7183464","7166070","7155848","NA","7040008","7133673","NA","7155628","NA","7155853","NA","7182568","7182568","NA","NA","7181060","NAP perception","6","6733","6","yes","1024"
"100","yes","100","1105.85714286","1105.85714286","white","no","xpyriment","I have read and understood the information shown above","legacy","legacy","0","uniform","1","0","NA","undefined","undefined","1","f","0","0","NA","NA","NA","NA","0","0","0","0","0","0","6","6","6","0","0","NA","0","0","0","0","NA","0","0","6","6","6","6","6","Wed Jun 28 17:03:55 2017","Forced-choice identification task with a practice and an experimental phase","yes","NAP-FC_GER_AA_ver-2.osexp","/Users/aviadalbert/Documents/Academisch/UoC/Dissertation/Experiment/OpenSesame/NAP-FC/NAP-FC_GER_AA/GER_AA_ver-2","yes","no","sans","no","20","no","black","no","Next","yes","768","legacy","6","6","0","/Users/aviadalbert/Documents/Academisch/UoC/Dissertation/Experiment/OpenSesame/NAP-FC/NAP-FC_GER_AA/GER_AA_ver-2/subject-5.csv","xpyriment","Jazzy James","3.1.6","yes","yes","5950408a6c613b0229e3e810","59504237594d9002288b1720","yes","no","0","f","f","NA","NA","space","space","f","1008","10216","NA","NA","5244","4089","1008","2","legacy","1024","1","44100","-16","experiment","zmal","22","Darmstadt","1","0","1","deutsch","englisch, spanisch, franzoesich","5","odd","Koeln","7155853","NA","NA","NA","NA","NA","7023725","NA","7023725","7023725","7146227","7151475","7185247","7183744","7186256","7166070","7155848","NA","7040008","7133673","NA","7155628","NA","7155853","NA","7185247","7185247","NA","NA","7183740","NAP perception","7","7741","7","yes","1024"
"100","yes","100","1095","1095","white","no","xpyriment","I have read and understood the information shown above","legacy","legacy","0","uniform","1","0","NA","undefined","undefined","1","j","0","0","NA","NA","NA","NA","0","0","0","0","0","0","7","7","7","0","0","NA","0","0","0","0","NA","0","0","7","7","7","7","7","Wed Jun 28 17:03:55 2017","Forced-choice identification task with a practice and an experimental phase","yes","NAP-FC_GER_AA_ver-2.osexp","/Users/aviadalbert/Documents/Academisch/UoC/Dissertation/Experiment/OpenSesame/NAP-FC/NAP-FC_GER_AA/GER_AA_ver-2","yes","no","sans","no","20","no","black","no","Next","yes","768","legacy","7","7","0","/Users/aviadalbert/Documents/Academisch/UoC/Dissertation/Experiment/OpenSesame/NAP-FC/NAP-FC_GER_AA/GER_AA_ver-2/subject-5.csv","xpyriment","Jazzy James","3.1.6","yes","yes","5950408a6c613b0229e3e810","59504237594d9002288b1720","yes","no","0","j","f","NA","NA","space","space","j","1019","10216","NA","NA","5244","4089","1019","2","legacy","1024","1","44100","-16","experiment","jeval","22","Darmstadt","1","0","1","deutsch","englisch, spanisch, franzoesich","5","odd","Koeln","7155853","NA","NA","NA","NA","NA","7023725","NA","7023725","7023725","7146227","7151475","7188049","7186545","7189069","7166070","7155848","NA","7040008","7133673","NA","7155628","NA","7155853","NA","7188049","7188049","NA","NA","7186541","NAP perception","8","8760","8","yes","1024"
"100","yes","100","1099.22222222","1099.22222222","white","no","xpyriment","I have read and understood the information shown above","legacy","legacy","0","uniform","1","0","NA","undefined","undefined","1","j","0","0","NA","NA","NA","NA","0","0","0","0","0","0","8","8","8","0","0","NA","0","0","0","0","NA","0","0","8","8","8","8","8","Wed Jun 28 17:03:55 2017","Forced-choice identification task with a practice and an experimental phase","yes","NAP-FC_GER_AA_ver-2.osexp","/Users/aviadalbert/Documents/Academisch/UoC/Dissertation/Experiment/OpenSesame/NAP-FC/NAP-FC_GER_AA/GER_AA_ver-2","yes","no","sans","no","20","no","black","no","Next","yes","768","legacy","8","8","0","/Users/aviadalbert/Documents/Academisch/UoC/Dissertation/Experiment/OpenSesame/NAP-FC/NAP-FC_GER_AA/GER_AA_ver-2/subject-5.csv","xpyriment","Jazzy James","3.1.6","yes","yes","5950408a6c613b0229e3e810","59504237594d9002288b1720","yes","no","0","j","f","NA","NA","space","space","j","1133","10216","NA","NA","5244","4089","1133","2","legacy","1024","1","44100","-16","experiment","enval","22","Darmstadt","1","0","1","deutsch","englisch, spanisch, franzoesich","5","odd","Koeln","7155853","NA","NA","NA","NA","NA","7023725","NA","7023725","7023725","7146227","7151475","7190867","7189363","7192000","7166070","7155848","NA","7040008","7133673","NA","7155628","NA","7155853","NA","7190866","7190866","NA","NA","7189359","NAP perception","9","9893","9","yes","1024"
"100","yes","100","1077.1","1077.1","white","no","xpyriment","I have read and understood the information shown above","legacy","legacy","0","uniform","1","0","NA","undefined","undefined","1","f","0","0","NA","NA","NA","NA","0","0","0","0","0","0","9","9","9","0","0","NA","0","0","0","0","NA","0","0","9","9","9","9","9","Wed Jun 28 17:03:55 2017","Forced-choice identification task with a practice and an experimental phase","yes","NAP-FC_GER_AA_ver-2.osexp","/Users/aviadalbert/Documents/Academisch/UoC/Dissertation/Experiment/OpenSesame/NAP-FC/NAP-FC_GER_AA/GER_AA_ver-2","yes","no","sans","no","20","no","black","no","Next","yes","768","legacy","9","9","0","/Users/aviadalbert/Documents/Academisch/UoC/Dissertation/Experiment/OpenSesame/NAP-FC/NAP-FC_GER_AA/GER_AA_ver-2/subject-5.csv","xpyriment","Jazzy James","3.1.6","yes","yes","5950408a6c613b0229e3e810","59504237594d9002288b1720","yes","no","0","f","f","NA","NA","space","space","f","878","10216","NA","NA","5244","4089","878","2","legacy","1024","1","44100","-16","experiment","vlal","22","Darmstadt","1","0","1","deutsch","englisch, spanisch, franzoesich","5","odd","Koeln","7155853","NA","NA","NA","NA","NA","7023725","NA","7023725","7023725","7146227","7151475","7193798","7192293","7194677","7166070","7155848","NA","7040008","7133673","NA","7155628","NA","7155853","NA","7193798","7193798","NA","NA","7192289","NAP perception","10","10771","10","yes","1024"
"0","yes","0","1024","1024","white","no","xpyriment","I have read and understood the information shown above","legacy","legacy","0","uniform","0","0","0","undefined","undefined","0","f","1","0","NA","0","0","0","0","0","0","0","0","0","10","10","10","0","0","0","0","0","1","0","0","0","1","10","10","10","10","10","Wed Jun 28 17:03:55 2017","Forced-choice identification task with a practice and an experimental phase","yes","NAP-FC_GER_AA_ver-2.osexp","/Users/aviadalbert/Documents/Academisch/UoC/Dissertation/Experiment/OpenSesame/NAP-FC/NAP-FC_GER_AA/GER_AA_ver-2","yes","no","sans","no","20","no","black","no","Next","yes","768","legacy","0","9","0","/Users/aviadalbert/Documents/Academisch/UoC/Dissertation/Experiment/OpenSesame/NAP-FC/NAP-FC_GER_AA/GER_AA_ver-2/subject-5.csv","xpyriment","Jazzy James","3.1.6","yes","yes","5950408a6c613b0229e3e810","59504237594d9002288b1720","no","no","0","j","j","space","NA","space","space","j","1024","1302","11058","NA","5244","4089","1024","2","legacy","1024","1","44100","-16","experiment","lkal","22","Darmstadt","1","0","1","deutsch","englisch, spanisch, franzoesich","5","odd","Koeln","7207784","7196418","NA","7209087","7207780","NA","7023725","7207542","7023725","7023725","7146227","7151475","7210796","7209290","7211821","7166070","7155848","7196418","7040008","7133673","7194750","7155628","7207783","7155853","NA","7210796","7210796","NA","NA","7209286","NAP perception","0","1024","1","yes","1024"
"0","yes","0","966","966","white","no","xpyriment","I have read and understood the information shown above","legacy","legacy","0","uniform","0","0","0","undefined","undefined","0","f","1","0","NA","0","0","0","0","0","0","0","0","0","11","11","11","0","0","0","0","0","1","0","0","0","1","11","11","11","11","11","Wed Jun 28 17:03:55 2017","Forced-choice identification task with a practice and an experimental phase","yes","NAP-FC_GER_AA_ver-2.osexp","/Users/aviadalbert/Documents/Academisch/UoC/Dissertation/Experiment/OpenSesame/NAP-FC/NAP-FC_GER_AA/GER_AA_ver-2","yes","no","sans","no","20","no","black","no","Next","yes","768","legacy","1","9","0","/Users/aviadalbert/Documents/Academisch/UoC/Dissertation/Experiment/OpenSesame/NAP-FC/NAP-FC_GER_AA/GER_AA_ver-2/subject-5.csv","xpyriment","Jazzy James","3.1.6","yes","yes","5950408a6c613b0229e3e810","59504237594d9002288b1720","no","no","0","j","j","space","NA","space","space","j","908","1302","11058","NA","5244","4089","908","2","legacy","1024","1","44100","-16","experiment","lmal","22","Darmstadt","1","0","1","deutsch","englisch, spanisch, franzoesich","5","odd","Koeln","7207784","7196418","NA","7209087","7207780","NA","7023725","7207542","7023725","7023725","7146227","7151475","7213601","7212097","7214510","7166070","7155848","7196418","7040008","7133673","7194750","7155628","7207783","7155853","NA","7213601","7213601","NA","NA","7212093","NAP perception","0","1932","2","yes","1024"
"33.3333333333","yes","33.3333333333","981.333333333","981.333333333","white","no","xpyriment","I have read and understood the information shown above","legacy","legacy","0","uniform","1","0","0","undefined","undefined","1","j","1","0","NA","0","0","0","0","0","0","0","0","0","12","12","12","0","0","0","0","0","1","0","0","0","1","12","12","12","12","12","Wed Jun 28 17:03:55 2017","Forced-choice identification task with a practice and an experimental phase","yes","NAP-FC_GER_AA_ver-2.osexp","/Users/aviadalbert/Documents/Academisch/UoC/Dissertation/Experiment/OpenSesame/NAP-FC/NAP-FC_GER_AA/GER_AA_ver-2","yes","no","sans","no","20","no","black","no","Next","yes","768","legacy","2","9","0","/Users/aviadalbert/Documents/Academisch/UoC/Dissertation/Experiment/OpenSesame/NAP-FC/NAP-FC_GER_AA/GER_AA_ver-2/subject-5.csv","xpyriment","Jazzy James","3.1.6","yes","yes","5950408a6c613b0229e3e810","59504237594d9002288b1720","no","no","0","j","j","space","NA","space","space","j","1012","1302","11058","NA","5244","4089","1012","2","legacy","1024","1","44100","-16","experiment","enpal","22","Darmstadt","1","0","1","deutsch","englisch, spanisch, franzoesich","5","odd","Koeln","7207784","7196418","NA","7209087","7207780","NA","7023725","7207542","7023725","7023725","7146227","7151475","7216291","7214786","7217304","7166070","7155848","7196418","7040008","7133673","7194750","7155628","7207783","7155853","NA","7216291","7216291","NA","NA","7214782","NAP perception","1","2944","3","yes","1024"
"50","yes","50","983.75","983.75","white","no","xpyriment","I have read and understood the information shown above","legacy","legacy","0","uniform","1","0","0","undefined","undefined","1","j","1","0","NA","0","0","0","0","0","0","0","0","0","13","13","13","0","0","0","0","0","1","0","0","0","1","13","13","13","13","13","Wed Jun 28 17:03:55 2017","Forced-choice identification task with a practice and an experimental phase","yes","NAP-FC_GER_AA_ver-2.osexp","/Users/aviadalbert/Documents/Academisch/UoC/Dissertation/Experiment/OpenSesame/NAP-FC/NAP-FC_GER_AA/GER_AA_ver-2","yes","no","sans","no","20","no","black","no","Next","yes","768","legacy","3","9","0","/Users/aviadalbert/Documents/Academisch/UoC/Dissertation/Experiment/OpenSesame/NAP-FC/NAP-FC_GER_AA/GER_AA_ver-2/subject-5.csv","xpyriment","Jazzy James","3.1.6","yes","yes","5950408a6c613b0229e3e810","59504237594d9002288b1720","no","no","0","j","j","space","NA","space","space","j","991","1302","11058","NA","5244","4089","991","2","legacy","1024","1","44100","-16","experiment","evlal","22","Darmstadt","1","0","1","deutsch","englisch, spanisch, franzoesich","5","odd","Koeln","7207784","7196418","NA","7209087","7207780","NA","7023725","7207542","7023725","7023725","7146227","7151475","7219098","7217593","7220090","7166070","7155848","7196418","7040008","7133673","7194750","7155628","7207783","7155853","NA","7219097","7219098","NA","NA","7217589","NAP perception","2","3935","4","yes","1024"
"60","yes","60","948.8","948.8","white","no","xpyriment","I have read and understood the information shown above","legacy","legacy","0","uniform","1","0","0","undefined","undefined","1","j","1","0","NA","0","0","0","0","0","0","0","0","0","14","14","14","0","0","0","0","0","1","0","0","0","1","14","14","14","14","14","Wed Jun 28 17:03:55 2017","Forced-choice identification task with a practice and an experimental phase","yes","NAP-FC_GER_AA_ver-2.osexp","/Users/aviadalbert/Documents/Academisch/UoC/Dissertation/Experiment/OpenSesame/NAP-FC/NAP-FC_GER_AA/GER_AA_ver-2","yes","no","sans","no","20","no","black","no","Next","yes","768","legacy","4","9","0","/Users/aviadalbert/Documents/Academisch/UoC/Dissertation/Experiment/OpenSesame/NAP-FC/NAP-FC_GER_AA/GER_AA_ver-2/subject-5.csv","xpyriment","Jazzy James","3.1.6","yes","yes","5950408a6c613b0229e3e810","59504237594d9002288b1720","no","no","0","j","j","space","NA","space","space","j","809","1302","11058","NA","5244","4089","809","2","legacy","1024","1","44100","-16","experiment","esmal","22","Darmstadt","1","0","1","deutsch","englisch, spanisch, franzoesich","5","odd","Koeln","7207784","7196418","NA","7209087","7207780","NA","7023725","7207542","7023725","7023725","7146227","7151475","7221877","7220371","7222687","7166070","7155848","7196418","7040008","7133673","7194750","7155628","7207783","7155853","NA","7221877","7221877","NA","NA","7220367","NAP perception","3","4744","5","yes","1024"
"66.6666666667","yes","66.6666666667","930.333333333","930.333333333","white","no","xpyriment","I have read and understood the information shown above","legacy","legacy","0","uniform","1","0","0","undefined","undefined","1","j","1","0","NA","0","0","0","0","0","0","0","0","0","15","15","15","0","0","0","0","0","1","0","0","0","1","15","15","15","15","15","Wed Jun 28 17:03:55 2017","Forced-choice identification task with a practice and an experimental phase","yes","NAP-FC_GER_AA_ver-2.osexp","/Users/aviadalbert/Documents/Academisch/UoC/Dissertation/Experiment/OpenSesame/NAP-FC/NAP-FC_GER_AA/GER_AA_ver-2","yes","no","sans","no","20","no","black","no","Next","yes","768","legacy","5","9","0","/Users/aviadalbert/Documents/Academisch/UoC/Dissertation/Experiment/OpenSesame/NAP-FC/NAP-FC_GER_AA/GER_AA_ver-2/subject-5.csv","xpyriment","Jazzy James","3.1.6","yes","yes","5950408a6c613b0229e3e810","59504237594d9002288b1720","no","no","0","j","j","space","NA","space","space","j","838","1302","11058","NA","5244","4089","838","2","legacy","1024","1","44100","-16","experiment","fenal","22","Darmstadt","1","0","1","deutsch","englisch, spanisch, franzoesich","5","odd","Koeln","7207784","7196418","NA","7209087","7207780","NA","7023725","7207542","7023725","7023725","7146227","7151475","7224477","7222973","7225316","7166070","7155848","7196418","7040008","7133673","7194750","7155628","7207783","7155853","NA","7224476","7224476","NA","NA","7222969","NAP perception","4","5582","6","yes","1024"
"71.4285714286","yes","71.4285714286","910.428571429","910.428571429","white","no","xpyriment","I have read and understood the information shown above","legacy","legacy","0","uniform","1","0","0","undefined","undefined","1","f","1","0","NA","0","0","0","0","0","0","0","0","0","16","16","16","0","0","0","0","0","1","0","0","0","1","16","16","16","16","16","Wed Jun 28 17:03:55 2017","Forced-choice identification task with a practice and an experimental phase","yes","NAP-FC_GER_AA_ver-2.osexp","/Users/aviadalbert/Documents/Academisch/UoC/Dissertation/Experiment/OpenSesame/NAP-FC/NAP-FC_GER_AA/GER_AA_ver-2","yes","no","sans","no","20","no","black","no","Next","yes","768","legacy","6","9","0","/Users/aviadalbert/Documents/Academisch/UoC/Dissertation/Experiment/OpenSesame/NAP-FC/NAP-FC_GER_AA/GER_AA_ver-2/subject-5.csv","xpyriment","Jazzy James","3.1.6","yes","yes","5950408a6c613b0229e3e810","59504237594d9002288b1720","no","no","0","f","j","space","NA","space","space","f","791","1302","11058","NA","5244","4089","791","2","legacy","1024","1","44100","-16","experiment","fnal","22","Darmstadt","1","0","1","deutsch","englisch, spanisch, franzoesich","5","odd","Koeln","7207784","7196418","NA","7209087","7207780","NA","7023725","7207542","7023725","7023725","7146227","7151475","7227104","7225599","7227897","7166070","7155848","7196418","7040008","7133673","7194750","7155628","7207783","7155853","NA","7227104","7227104","NA","NA","7225595","NAP perception","5","6373","7","yes","1024"
"75","yes","75","892.5","892.5","white","no","xpyriment","I have read and understood the information shown above","legacy","legacy","0","uniform","1","0","0","undefined","undefined","1","j","1","0","NA","0","0","0","0","0","0","0","0","0","17","17","17","0","0","0","0","0","1","0","0","0","1","17","17","17","17","17","Wed Jun 28 17:03:55 2017","Forced-choice identification task with a practice and an experimental phase","yes","NAP-FC_GER_AA_ver-2.osexp","/Users/aviadalbert/Documents/Academisch/UoC/Dissertation/Experiment/OpenSesame/NAP-FC/NAP-FC_GER_AA/GER_AA_ver-2","yes","no","sans","no","20","no","black","no","Next","yes","768","legacy","7","9","0","/Users/aviadalbert/Documents/Academisch/UoC/Dissertation/Experiment/OpenSesame/NAP-FC/NAP-FC_GER_AA/GER_AA_ver-2/subject-5.csv","xpyriment","Jazzy James","3.1.6","yes","yes","5950408a6c613b0229e3e810","59504237594d9002288b1720","no","no","0","j","j","space","NA","space","space","j","767","1302","11058","NA","5244","4089","767","2","legacy","1024","1","44100","-16","experiment","jemal","22","Darmstadt","1","0","1","deutsch","englisch, spanisch, franzoesich","5","odd","Koeln","7207784","7196418","NA","7209087","7207780","NA","7023725","7207542","7023725","7023725","7146227","7151475","7229696","7228189","7230465","7166070","7155848","7196418","7040008","7133673","7194750","7155628","7207783","7155853","NA","7229695","7229695","NA","NA","7228185","NAP perception","6","7140","8","yes","1024"
"66.6666666667","yes","66.6666666667","908.666666667","908.666666667","white","no","xpyriment","I have read and understood the information shown above","legacy","legacy","0","uniform","0","0","0","undefined","undefined","0","f","1","0","NA","0","0","0","0","0","0","0","0","0","18","18","18","0","0","0","0","0","1","0","0","0","1","18","18","18","18","18","Wed Jun 28 17:03:55 2017","Forced-choice identification task with a practice and an experimental phase","yes","NAP-FC_GER_AA_ver-2.osexp","/Users/aviadalbert/Documents/Academisch/UoC/Dissertation/Experiment/OpenSesame/NAP-FC/NAP-FC_GER_AA/GER_AA_ver-2","yes","no","sans","no","20","no","black","no","Next","yes","768","legacy","8","9","0","/Users/aviadalbert/Documents/Academisch/UoC/Dissertation/Experiment/OpenSesame/NAP-FC/NAP-FC_GER_AA/GER_AA_ver-2/subject-5.csv","xpyriment","Jazzy James","3.1.6","yes","yes","5950408a6c613b0229e3e810","59504237594d9002288b1720","no","no","0","j","j","space","NA","space","space","j","1038","1302","11058","NA","5244","4089","1038","2","legacy","1024","1","44100","-16","experiment","lval","22","Darmstadt","1","0","1","deutsch","englisch, spanisch, franzoesich","5","odd","Koeln","7207784","7196418","NA","7209087","7207780","NA","7023725","7207542","7023725","7023725","7146227","7151475","7232256","7230752","7233296","7166070","7155848","7196418","7040008","7133673","7194750","7155628","7207783","7155853","NA","7232255","7232255","NA","NA","7230748","NAP perception","6","8178","9","yes","1024"
"70","yes","70","919.7","919.7","white","no","xpyriment","I have read and understood the information shown above","legacy","legacy","0","uniform","1","0","0","undefined","undefined","1","f","1","0","NA","0","0","0","0","0","0","0","0","0","19","19","19","0","0","0","0","0","1","0","0","0","1","19","19","19","19","19","Wed Jun 28 17:03:55 2017","Forced-choice identification task with a practice and an experimental phase","yes","NAP-FC_GER_AA_ver-2.osexp","/Users/aviadalbert/Documents/Academisch/UoC/Dissertation/Experiment/OpenSesame/NAP-FC/NAP-FC_GER_AA/GER_AA_ver-2","yes","no","sans","no","20","no","black","no","Next","yes","768","legacy","9","9","0","/Users/aviadalbert/Documents/Academisch/UoC/Dissertation/Experiment/OpenSesame/NAP-FC/NAP-FC_GER_AA/GER_AA_ver-2/subject-5.csv","xpyriment","Jazzy James","3.1.6","yes","yes","5950408a6c613b0229e3e810","59504237594d9002288b1720","no","no","0","f","j","space","NA","space","space","f","1019","1302","11058","NA","5244","4089","1019","2","legacy","1024","1","44100","-16","experiment","vlal","22","Darmstadt","1","0","1","deutsch","englisch, spanisch, franzoesich","5","odd","Koeln","7207784","7196418","NA","7209087","7207780","NA","7023725","7207542","7023725","7023725","7146227","7151475","7235082","7233579","7236102","7166070","7155848","7196418","7040008","7133673","7194750","7155628","7207783","7155853","NA","7235082","7235082","NA","NA","7233575","NAP perception","7","9197","10","yes","1024"
"63.6363636364","yes","63.6363636364","917.181818182","917.181818182","white","no","xpyriment","I have read and understood the information shown above","legacy","legacy","0","uniform","0","0","0","undefined","undefined","0","f","1","0","NA","0","0","0","0","0","0","0","0","0","20","20","20","0","0","0","0","0","1","0","0","0","1","20","20","20","20","20","Wed Jun 28 17:03:55 2017","Forced-choice identification task with a practice and an experimental phase","yes","NAP-FC_GER_AA_ver-2.osexp","/Users/aviadalbert/Documents/Academisch/UoC/Dissertation/Experiment/OpenSesame/NAP-FC/NAP-FC_GER_AA/GER_AA_ver-2","yes","no","sans","no","20","no","black","no","Next","yes","768","legacy","10","9","0","/Users/aviadalbert/Documents/Academisch/UoC/Dissertation/Experiment/OpenSesame/NAP-FC/NAP-FC_GER_AA/GER_AA_ver-2/subject-5.csv","xpyriment","Jazzy James","3.1.6","yes","yes","5950408a6c613b0229e3e810","59504237594d9002288b1720","no","no","0","j","j","space","NA","space","space","j","892","1302","11058","NA","5244","4089","892","2","legacy","1024","1","44100","-16","experiment","nfal","22","Darmstadt","1","0","1","deutsch","englisch, spanisch, franzoesich","5","odd","Koeln","7207784","7196418","NA","7209087","7207780","NA","7023725","7207542","7023725","7023725","7146227","7151475","7237878","7236371","7238772","7166070","7155848","7196418","7040008","7133673","7194750","7155628","7207783","7155853","NA","7237878","7237878","NA","NA","7236367","NAP perception","7","10089","11","yes","1024"
"66.6666666667","yes","66.6666666667","918.166666667","918.166666667","white","no","xpyriment","I have read and understood the information shown above","legacy","legacy","0","uniform","1","0","0","undefined","undefined","1","f","1","0","NA","0","0","0","0","0","0","0","0","0","21","21","21","0","0","0","0","0","1","0","0","0","1","21","21","21","21","21","Wed Jun 28 17:03:55 2017","Forced-choice identification task with a practice and an experimental phase","yes","NAP-FC_GER_AA_ver-2.osexp","/Users/aviadalbert/Documents/Academisch/UoC/Dissertation/Experiment/OpenSesame/NAP-FC/NAP-FC_GER_AA/GER_AA_ver-2","yes","no","sans","no","20","no","black","no","Next","yes","768","legacy","11","9","0","/Users/aviadalbert/Documents/Academisch/UoC/Dissertation/Experiment/OpenSesame/NAP-FC/NAP-FC_GER_AA/GER_AA_ver-2/subject-5.csv","xpyriment","Jazzy James","3.1.6","yes","yes","5950408a6c613b0229e3e810","59504237594d9002288b1720","no","no","0","f","j","space","NA","space","space","f","929","1302","11058","NA","5244","4089","929","2","legacy","1024","1","44100","-16","experiment","ʃmal","22","Darmstadt","1","0","1","deutsch","englisch, spanisch, franzoesich","5","odd","Koeln","7207784","7196418","NA","7209087","7207780","NA","7023725","7207542","7023725","7023725","7146227","7151475","7240547","7239043","7241477","7166070","7155848","7196418","7040008","7133673","7194750","7155628","7207783","7155853","NA","7240547","7240547","NA","NA","7239039","NAP perception","8","11018","12","yes","1024"
"69.2307692308","yes","69.2307692308","921.153846154","921.153846154","white","no","xpyriment","I have read and understood the information shown above","legacy","legacy","0","uniform","1","0","0","undefined","undefined","1","j","1","0","NA","0","0","0","0","0","0","0","0","0","22","22","22","0","0","0","0","0","1","0","0","0","1","22","22","22","22","22","Wed Jun 28 17:03:55 2017","Forced-choice identification task with a practice and an experimental phase","yes","NAP-FC_GER_AA_ver-2.osexp","/Users/aviadalbert/Documents/Academisch/UoC/Dissertation/Experiment/OpenSesame/NAP-FC/NAP-FC_GER_AA/GER_AA_ver-2","yes","no","sans","no","20","no","black","no","Next","yes","768","legacy","12","9","0","/Users/aviadalbert/Documents/Academisch/UoC/Dissertation/Experiment/OpenSesame/NAP-FC/NAP-FC_GER_AA/GER_AA_ver-2/subject-5.csv","xpyriment","Jazzy James","3.1.6","yes","yes","5950408a6c613b0229e3e810","59504237594d9002288b1720","no","no","0","j","j","space","NA","space","space","j","957","1302","11058","NA","5244","4089","957","2","legacy","1024","1","44100","-16","experiment","melal","22","Darmstadt","1","0","1","deutsch","englisch, spanisch, franzoesich","5","odd","Koeln","7207784","7196418","NA","7209087","7207780","NA","7023725","7207542","7023725","7023725","7146227","7151475","7243262","7241756","7244221","7166070","7155848","7196418","7040008","7133673","7194750","7155628","7207783","7155853","NA","7243261","7243262","NA","NA","7241752","NAP perception","9","11975","13","yes","1024"
"64.2857142857","yes","64.2857142857","918.285714286","918.285714286","white","no","xpyriment","I have read and understood the information shown above","legacy","legacy","0","uniform","0","0","0","undefined","undefined","0","f","1","0","NA","0","0","0","0","0","0","0","0","0","23","23","23","0","0","0","0","0","1","0","0","0","1","23","23","23","23","23","Wed Jun 28 17:03:55 2017","Forced-choice identification task with a practice and an experimental phase","yes","NAP-FC_GER_AA_ver-2.osexp","/Users/aviadalbert/Documents/Academisch/UoC/Dissertation/Experiment/OpenSesame/NAP-FC/NAP-FC_GER_AA/GER_AA_ver-2","yes","no","sans","no","20","no","black","no","Next","yes","768","legacy","13","9","0","/Users/aviadalbert/Documents/Academisch/UoC/Dissertation/Experiment/OpenSesame/NAP-FC/NAP-FC_GER_AA/GER_AA_ver-2/subject-5.csv","xpyriment","Jazzy James","3.1.6","yes","yes","5950408a6c613b0229e3e810","59504237594d9002288b1720","no","no","0","j","j","space","NA","space","space","j","881","1302","11058","NA","5244","4089","881","2","legacy","1024","1","44100","-16","experiment","wlal","22","Darmstadt","1","0","1","deutsch","englisch, spanisch, franzoesich","5","odd","Koeln","7207784","7196418","NA","7209087","7207780","NA","7023725","7207542","7023725","7023725","7146227","7151475","7246008","7244503","7246890","7166070","7155848","7196418","7040008","7133673","7194750","7155628","7207783","7155853","NA","7246008","7246008","NA","NA","7244499","NAP perception","9","12856","14","yes","1024"
"60","yes","60","943.8","943.8","white","no","xpyriment","I have read and understood the information shown above","legacy","legacy","0","uniform","0","0","0","undefined","undefined","0","f","1","0","NA","0","0","0","0","0","0","0","0","0","24","24","24","0","0","0","0","0","1","0","0","0","1","24","24","24","24","24","Wed Jun 28 17:03:55 2017","Forced-choice identification task with a practice and an experimental phase","yes","NAP-FC_GER_AA_ver-2.osexp","/Users/aviadalbert/Documents/Academisch/UoC/Dissertation/Experiment/OpenSesame/NAP-FC/NAP-FC_GER_AA/GER_AA_ver-2","yes","no","sans","no","20","no","black","no","Next","yes","768","legacy","14","9","0","/Users/aviadalbert/Documents/Academisch/UoC/Dissertation/Experiment/OpenSesame/NAP-FC/NAP-FC_GER_AA/GER_AA_ver-2/subject-5.csv","xpyriment","Jazzy James","3.1.6","yes","yes","5950408a6c613b0229e3e810","59504237594d9002288b1720","no","no","0","j","j","space","NA","space","space","j","1301","1302","11058","NA","5244","4089","1301","2","legacy","1024","1","44100","-16","experiment","vnal","22","Darmstadt","1","0","1","deutsch","englisch, spanisch, franzoesich","5","odd","Koeln","7207784","7196418","NA","7209087","7207780","NA","7023725","7207542","7023725","7023725","7146227","7151475","7248679","7247176","7249981","7166070","7155848","7196418","7040008","7133673","7194750","7155628","7207783","7155853","NA","7248679","7248679","NA","NA","7247172","NAP perception","9","14157","15","yes","1024"
"62.5","yes","62.5","965.9375","965.9375","white","no","xpyriment","I have read and understood the information shown above","legacy","legacy","0","uniform","1","0","0","undefined","undefined","1","j","1","0","NA","0","0","0","0","0","0","0","0","0","25","25","25","0","0","0","0","0","1","0","0","0","1","25","25","25","25","25","Wed Jun 28 17:03:55 2017","Forced-choice identification task with a practice and an experimental phase","yes","NAP-FC_GER_AA_ver-2.osexp","/Users/aviadalbert/Documents/Academisch/UoC/Dissertation/Experiment/OpenSesame/NAP-FC/NAP-FC_GER_AA/GER_AA_ver-2","yes","no","sans","no","20","no","black","no","Next","yes","768","legacy","15","9","0","/Users/aviadalbert/Documents/Academisch/UoC/Dissertation/Experiment/OpenSesame/NAP-FC/NAP-FC_GER_AA/GER_AA_ver-2/subject-5.csv","xpyriment","Jazzy James","3.1.6","yes","yes","5950408a6c613b0229e3e810","59504237594d9002288b1720","no","no","0","j","j","space","NA","space","space","j","1298","1302","11058","NA","5244","4089","1298","2","legacy","1024","1","44100","-16","experiment","sefal","22","Darmstadt","1","0","1","deutsch","englisch, spanisch, franzoesich","5","odd","Koeln","7207784","7196418","NA","7209087","7207780","NA","7023725","7207542","7023725","7023725","7146227","7151475","7251766","7250262","7253065","7166070","7155848","7196418","7040008","7133673","7194750","7155628","7207783","7155853","NA","7251766","7251766","NA","NA","7250258","NAP perception","10","15455","16","yes","1024"
"58.8235294118","yes","58.8235294118","971.823529412","971.823529412","white","no","xpyriment","I have read and understood the information shown above","legacy","legacy","0","uniform","0","0","0","undefined","undefined","0","f","1","0","NA","0","0","0","0","0","0","0","0","0","26","26","26","0","0","0","0","0","1","0","0","0","1","26","26","26","26","26","Wed Jun 28 17:03:55 2017","Forced-choice identification task with a practice and an experimental phase","yes","NAP-FC_GER_AA_ver-2.osexp","/Users/aviadalbert/Documents/Academisch/UoC/Dissertation/Experiment/OpenSesame/NAP-FC/NAP-FC_GER_AA/GER_AA_ver-2","yes","no","sans","no","20","no","black","no","Next","yes","768","legacy","16","9","0","/Users/aviadalbert/Documents/Academisch/UoC/Dissertation/Experiment/OpenSesame/NAP-FC/NAP-FC_GER_AA/GER_AA_ver-2/subject-5.csv","xpyriment","Jazzy James","3.1.6","yes","yes","5950408a6c613b0229e3e810","59504237594d9002288b1720","no","no","0","j","j","space","NA","space","space","j","1066","1302","11058","NA","5244","4089","1066","2","legacy","1024","1","44100","-16","experiment","jmal","22","Darmstadt","1","0","1","deutsch","englisch, spanisch, franzoesich","5","odd","Koeln","7207784","7196418","NA","7209087","7207780","NA","7023725","7207542","7023725","7023725","7146227","7151475","7254851","7253343","7255918","7166070","7155848","7196418","7040008","7133673","7194750","7155628","7207783","7155853","NA","7254851","7254851","NA","NA","7253339","NAP perception","10","16521","17","yes","1024"
"61.1111111111","yes","61.1111111111","976.166666667","976.166666667","white","no","xpyriment","I have read and understood the information shown above","legacy","legacy","0","uniform","1","0","0","undefined","undefined","1","j","1","0","NA","0","0","0","0","0","0","0","0","0","27","27","27","0","0","0","0","0","1","0","0","0","1","27","27","27","27","27","Wed Jun 28 17:03:55 2017","Forced-choice identification task with a practice and an experimental phase","yes","NAP-FC_GER_AA_ver-2.osexp","/Users/aviadalbert/Documents/Academisch/UoC/Dissertation/Experiment/OpenSesame/NAP-FC/NAP-FC_GER_AA/GER_AA_ver-2","yes","no","sans","no","20","no","black","no","Next","yes","768","legacy","17","9","0","/Users/aviadalbert/Documents/Academisch/UoC/Dissertation/Experiment/OpenSesame/NAP-FC/NAP-FC_GER_AA/GER_AA_ver-2/subject-5.csv","xpyriment","Jazzy James","3.1.6","yes","yes","5950408a6c613b0229e3e810","59504237594d9002288b1720","no","no","0","j","j","space","NA","space","space","j","1050","1302","11058","NA","5244","4089","1050","2","legacy","1024","1","44100","-16","experiment","elfal","22","Darmstadt","1","0","1","deutsch","englisch, spanisch, franzoesich","5","odd","Koeln","7207784","7196418","NA","7209087","7207780","NA","7023725","7207542","7023725","7023725","7146227","7151475","7257714","7256210","7258765","7166070","7155848","7196418","7040008","7133673","7194750","7155628","7207783","7155853","NA","7257713","7257713","NA","NA","7256206","NAP perception","11","17571","18","yes","1024"
"57.8947368421","yes","57.8947368421","983.736842105","983.736842105","white","no","xpyriment","I have read and understood the information shown above","legacy","legacy","0","uniform","0","0","0","undefined","undefined","0","f","1","0","NA","0","0","0","0","0","0","0","0","0","28","28","28","0","0","0","0","0","1","0","0","0","1","28","28","28","28","28","Wed Jun 28 17:03:55 2017","Forced-choice identification task with a practice and an experimental phase","yes","NAP-FC_GER_AA_ver-2.osexp","/Users/aviadalbert/Documents/Academisch/UoC/Dissertation/Experiment/OpenSesame/NAP-FC/NAP-FC_GER_AA/GER_AA_ver-2","yes","no","sans","no","20","no","black","no","Next","yes","768","legacy","18","9","0","/Users/aviadalbert/Documents/Academisch/UoC/Dissertation/Experiment/OpenSesame/NAP-FC/NAP-FC_GER_AA/GER_AA_ver-2/subject-5.csv","xpyriment","Jazzy James","3.1.6","yes","yes","5950408a6c613b0229e3e810","59504237594d9002288b1720","no","no","0","j","j","space","NA","space","space","j","1120","1302","11058","NA","5244","4089","1120","2","legacy","1024","1","44100","-16","experiment","nmal","22","Darmstadt","1","0","1","deutsch","englisch, spanisch, franzoesich","5","odd","Koeln","7207784","7196418","NA","7209087","7207780","NA","7023725","7207542","7023725","7023725","7146227","7151475","7260539","7259035","7261661","7166070","7155848","7196418","7040008","7133673","7194750","7155628","7207783","7155853","NA","7260539","7260539","NA","NA","7259031","NAP perception","11","18691","19","yes","1024"
"55","yes","55","976.45","976.45","white","no","xpyriment","I have read and understood the information shown above","legacy","legacy","0","uniform","0","0","0","undefined","undefined","0","f","1","0","NA","0","0","0","0","0","0","0","0","0","29","29","29","0","0","0","0","0","1","0","0","0","1","29","29","29","29","29","Wed Jun 28 17:03:55 2017","Forced-choice identification task with a practice and an experimental phase","yes","NAP-FC_GER_AA_ver-2.osexp","/Users/aviadalbert/Documents/Academisch/UoC/Dissertation/Experiment/OpenSesame/NAP-FC/NAP-FC_GER_AA/GER_AA_ver-2","yes","no","sans","no","20","no","black","no","Next","yes","768","legacy","19","9","0","/Users/aviadalbert/Documents/Academisch/UoC/Dissertation/Experiment/OpenSesame/NAP-FC/NAP-FC_GER_AA/GER_AA_ver-2/subject-5.csv","xpyriment","Jazzy James","3.1.6","yes","yes","5950408a6c613b0229e3e810","59504237594d9002288b1720","no","no","0","j","j","space","NA","space","space","j","838","1302","11058","NA","5244","4089","838","2","legacy","1024","1","44100","-16","experiment","wzal","22","Darmstadt","1","0","1","deutsch","englisch, spanisch, franzoesich","5","odd","Koeln","7207784","7196418","NA","7209087","7207780","NA","7023725","7207542","7023725","7023725","7146227","7151475","7263442","7261937","7264281","7166070","7155848","7196418","7040008","7133673","7194750","7155628","7207783","7155853","NA","7263441","7263442","NA","NA","7261933","NAP perception","11","19529","20","yes","1024"
"57.1428571429","yes","57.1428571429","976.523809524","976.523809524","white","no","xpyriment","I have read and understood the information shown above","legacy","legacy","0","uniform","1","0","0","undefined","undefined","1","j","1","0","NA","0","0","0","0","0","0","0","0","0","30","30","30","0","0","0","0","0","1","0","0","0","1","30","30","30","30","30","Wed Jun 28 17:03:55 2017","Forced-choice identification task with a practice and an experimental phase","yes","NAP-FC_GER_AA_ver-2.osexp","/Users/aviadalbert/Documents/Academisch/UoC/Dissertation/Experiment/OpenSesame/NAP-FC/NAP-FC_GER_AA/GER_AA_ver-2","yes","no","sans","no","20","no","black","no","Next","yes","768","legacy","20","9","0","/Users/aviadalbert/Documents/Academisch/UoC/Dissertation/Experiment/OpenSesame/NAP-FC/NAP-FC_GER_AA/GER_AA_ver-2/subject-5.csv","xpyriment","Jazzy James","3.1.6","yes","yes","5950408a6c613b0229e3e810","59504237594d9002288b1720","no","no","0","j","j","space","NA","space","space","j","978","1302","11058","NA","5244","4089","978","2","legacy","1024","1","44100","-16","experiment","nemal","22","Darmstadt","1","0","1","deutsch","englisch, spanisch, franzoesich","5","odd","Koeln","7207784","7196418","NA","7209087","7207780","NA","7023725","7207542","7023725","7023725","7146227","7151475","7266066","7264560","7267045","7166070","7155848","7196418","7040008","7133673","7194750","7155628","7207783","7155853","NA","7266066","7266066","NA","NA","7264556","NAP perception","12","20507","21","yes","1024"
"59.0909090909","yes","59.0909090909","979.227272727","979.227272727","white","no","xpyriment","I have read and understood the information shown above","legacy","legacy","0","uniform","1","0","0","undefined","undefined","1","f","1","0","NA","0","0","0","0","0","0","0","0","0","31","31","31","0","0","0","0","0","1","0","0","0","1","31","31","31","31","31","Wed Jun 28 17:03:55 2017","Forced-choice identification task with a practice and an experimental phase","yes","NAP-FC_GER_AA_ver-2.osexp","/Users/aviadalbert/Documents/Academisch/UoC/Dissertation/Experiment/OpenSesame/NAP-FC/NAP-FC_GER_AA/GER_AA_ver-2","yes","no","sans","no","20","no","black","no","Next","yes","768","legacy","21","9","0","/Users/aviadalbert/Documents/Academisch/UoC/Dissertation/Experiment/OpenSesame/NAP-FC/NAP-FC_GER_AA/GER_AA_ver-2/subject-5.csv","xpyriment","Jazzy James","3.1.6","yes","yes","5950408a6c613b0229e3e810","59504237594d9002288b1720","no","no","0","f","j","space","NA","space","space","f","1036","1302","11058","NA","5244","4089","1036","2","legacy","1024","1","44100","-16","experiment","fsal","22","Darmstadt","1","0","1","deutsch","englisch, spanisch, franzoesich","5","odd","Koeln","7207784","7196418","NA","7209087","7207780","NA","7023725","7207542","7023725","7023725","7146227","7151475","7268834","7267326","7269871","7166070","7155848","7196418","7040008","7133673","7194750","7155628","7207783","7155853","NA","7268834","7268834","NA","NA","7267322","NAP perception","13","21543","22","yes","1024"
"60.8695652174","yes","60.8695652174","969.869565217","969.869565217","white","no","xpyriment","I have read and understood the information shown above","legacy","legacy","0","uniform","1","0","0","undefined","undefined","1","j","1","0","NA","0","0","0","0","0","0","0","0","0","32","32","32","0","0","0","0","0","1","0","0","0","1","32","32","32","32","32","Wed Jun 28 17:03:55 2017","Forced-choice identification task with a practice and an experimental phase","yes","NAP-FC_GER_AA_ver-2.osexp","/Users/aviadalbert/Documents/Academisch/UoC/Dissertation/Experiment/OpenSesame/NAP-FC/NAP-FC_GER_AA/GER_AA_ver-2","yes","no","sans","no","20","no","black","no","Next","yes","768","legacy","22","9","0","/Users/aviadalbert/Documents/Academisch/UoC/Dissertation/Experiment/OpenSesame/NAP-FC/NAP-FC_GER_AA/GER_AA_ver-2/subject-5.csv","xpyriment","Jazzy James","3.1.6","yes","yes","5950408a6c613b0229e3e810","59504237594d9002288b1720","no","no","0","j","j","space","NA","space","space","j","764","1302","11058","NA","5244","4089","764","2","legacy","1024","1","44100","-16","experiment","espal","22","Darmstadt","1","0","1","deutsch","englisch, spanisch, franzoesich","5","odd","Koeln","7207784","7196418","NA","7209087","7207780","NA","7023725","7207542","7023725","7023725","7146227","7151475","7271656","7270153","7272421","7166070","7155848","7196418","7040008","7133673","7194750","7155628","7207783","7155853","NA","7271656","7271656","NA","NA","7270149","NAP perception","14","22307","23","yes","1024"
"58.3333333333","yes","58.3333333333","963.416666667","963.416666667","white","no","xpyriment","I have read and understood the information shown above","legacy","legacy","0","uniform","0","0","0","undefined","undefined","0","f","1","0","NA","0","0","0","0","0","0","0","0","0","33","33","33","0","0","0","0","0","1","0","0","0","1","33","33","33","33","33","Wed Jun 28 17:03:55 2017","Forced-choice identification task with a practice and an experimental phase","yes","NAP-FC_GER_AA_ver-2.osexp","/Users/aviadalbert/Documents/Academisch/UoC/Dissertation/Experiment/OpenSesame/NAP-FC/NAP-FC_GER_AA/GER_AA_ver-2","yes","no","sans","no","20","no","black","no","Next","yes","768","legacy","23","9","0","/Users/aviadalbert/Documents/Academisch/UoC/Dissertation/Experiment/OpenSesame/NAP-FC/NAP-FC_GER_AA/GER_AA_ver-2/subject-5.csv","xpyriment","Jazzy James","3.1.6","yes","yes","5950408a6c613b0229e3e810","59504237594d9002288b1720","no","no","0","j","j","space","NA","space","space","j","815","1302","11058","NA","5244","4089","815","2","legacy","1024","1","44100","-16","experiment","mtal","22","Darmstadt","1","0","1","deutsch","englisch, spanisch, franzoesich","5","odd","Koeln","7207784","7196418","NA","7209087","7207780","NA","7023725","7207542","7023725","7023725","7146227","7151475","7274208","7272703","7275024","7166070","7155848","7196418","7040008","7133673","7194750","7155628","7207783","7155853","NA","7274207","7274207","NA","NA","7272699","NAP perception","14","23122","24","yes","1024"
"56","yes","56","957.6","957.6","white","no","xpyriment","I have read and understood the information shown above","legacy","legacy","0","uniform","0","0","0","undefined","undefined","0","f","1","0","NA","0","0","0","0","0","0","0","0","0","34","34","34","0","0","0","0","0","1","0","0","0","1","34","34","34","34","34","Wed Jun 28 17:03:55 2017","Forced-choice identification task with a practice and an experimental phase","yes","NAP-FC_GER_AA_ver-2.osexp","/Users/aviadalbert/Documents/Academisch/UoC/Dissertation/Experiment/OpenSesame/NAP-FC/NAP-FC_GER_AA/GER_AA_ver-2","yes","no","sans","no","20","no","black","no","Next","yes","768","legacy","24","9","0","/Users/aviadalbert/Documents/Academisch/UoC/Dissertation/Experiment/OpenSesame/NAP-FC/NAP-FC_GER_AA/GER_AA_ver-2/subject-5.csv","xpyriment","Jazzy James","3.1.6","yes","yes","5950408a6c613b0229e3e810","59504237594d9002288b1720","no","no","0","j","j","space","NA","space","space","j","818","1302","11058","NA","5244","4089","818","2","legacy","1024","1","44100","-16","experiment","lfal","22","Darmstadt","1","0","1","deutsch","englisch, spanisch, franzoesich","5","odd","Koeln","7207784","7196418","NA","7209087","7207780","NA","7023725","7207542","7023725","7023725","7146227","7151475","7276815","7275307","7277634","7166070","7155848","7196418","7040008","7133673","7194750","7155628","7207783","7155853","NA","7276814","7276815","NA","NA","7275303","NAP perception","14","23940","25","yes","1024"
"57.6923076923","yes","57.6923076923","951.307692308","951.307692308","white","no","xpyriment","I have read and understood the information shown above","legacy","legacy","0","uniform","1","0","0","undefined","undefined","1","j","1","0","NA","0","0","0","0","0","0","0","0","0","35","35","35","0","0","0","0","0","1","0","0","0","1","35","35","35","35","35","Wed Jun 28 17:03:55 2017","Forced-choice identification task with a practice and an experimental phase","yes","NAP-FC_GER_AA_ver-2.osexp","/Users/aviadalbert/Documents/Academisch/UoC/Dissertation/Experiment/OpenSesame/NAP-FC/NAP-FC_GER_AA/GER_AA_ver-2","yes","no","sans","no","20","no","black","no","Next","yes","768","legacy","25","9","0","/Users/aviadalbert/Documents/Academisch/UoC/Dissertation/Experiment/OpenSesame/NAP-FC/NAP-FC_GER_AA/GER_AA_ver-2/subject-5.csv","xpyriment","Jazzy James","3.1.6","yes","yes","5950408a6c613b0229e3e810","59504237594d9002288b1720","no","no","0","j","j","space","NA","space","space","j","794","1302","11058","NA","5244","4089","794","2","legacy","1024","1","44100","-16","experiment","emsal","22","Darmstadt","1","0","1","deutsch","englisch, spanisch, franzoesich","5","odd","Koeln","7207784","7196418","NA","7209087","7207780","NA","7023725","7207542","7023725","7023725","7146227","7151475","7279430","7277924","7280226","7166070","7155848","7196418","7040008","7133673","7194750","7155628","7207783","7155853","NA","7279429","7279430","NA","NA","7277920","NAP perception","15","24734","26","yes","1024"
"59.2592592593","yes","59.2592592593","944.407407407","944.407407407","white","no","xpyriment","I have read and understood the information shown above","legacy","legacy","0","uniform","1","0","0","undefined","undefined","1","j","1","0","NA","0","0","0","0","0","0","0","0","0","36","36","36","0","0","0","0","0","1","0","0","0","1","36","36","36","36","36","Wed Jun 28 17:03:55 2017","Forced-choice identification task with a practice and an experimental phase","yes","NAP-FC_GER_AA_ver-2.osexp","/Users/aviadalbert/Documents/Academisch/UoC/Dissertation/Experiment/OpenSesame/NAP-FC/NAP-FC_GER_AA/GER_AA_ver-2","yes","no","sans","no","20","no","black","no","Next","yes","768","legacy","26","9","0","/Users/aviadalbert/Documents/Academisch/UoC/Dissertation/Experiment/OpenSesame/NAP-FC/NAP-FC_GER_AA/GER_AA_ver-2/subject-5.csv","xpyriment","Jazzy James","3.1.6","yes","yes","5950408a6c613b0229e3e810","59504237594d9002288b1720","no","no","0","j","j","space","NA","space","space","j","765","1302","11058","NA","5244","4089","765","2","legacy","1024","1","44100","-16","experiment","jefal","22","Darmstadt","1","0","1","deutsch","englisch, spanisch, franzoesich","5","odd","Koeln","7207784","7196418","NA","7209087","7207780","NA","7023725","7207542","7023725","7023725","7146227","7151475","7282007","7280500","7282773","7166070","7155848","7196418","7040008","7133673","7194750","7155628","7207783","7155853","NA","7282007","7282007","NA","NA","7280496","NAP perception","16","25499","27","yes","1024"
"57.1428571429","yes","57.1428571429","944.357142857","944.357142857","white","no","xpyriment","I have read and understood the information shown above","legacy","legacy","0","uniform","0","0","0","undefined","undefined","0","f","1","0","NA","0","0","0","0","0","0","0","0","0","37","37","37","0","0","0","0","0","1","0","0","0","1","37","37","37","37","37","Wed Jun 28 17:03:55 2017","Forced-choice identification task with a practice and an experimental phase","yes","NAP-FC_GER_AA_ver-2.osexp","/Users/aviadalbert/Documents/Academisch/UoC/Dissertation/Experiment/OpenSesame/NAP-FC/NAP-FC_GER_AA/GER_AA_ver-2","yes","no","sans","no","20","no","black","no","Next","yes","768","legacy","27","9","0","/Users/aviadalbert/Documents/Academisch/UoC/Dissertation/Experiment/OpenSesame/NAP-FC/NAP-FC_GER_AA/GER_AA_ver-2/subject-5.csv","xpyriment","Jazzy James","3.1.6","yes","yes","5950408a6c613b0229e3e810","59504237594d9002288b1720","no","no","0","j","j","space","NA","space","space","j","943","1302","11058","NA","5244","4089","943","2","legacy","1024","1","44100","-16","experiment","wsal","22","Darmstadt","1","0","1","deutsch","englisch, spanisch, franzoesich","5","odd","Koeln","7207784","7196418","NA","7209087","7207780","NA","7023725","7207542","7023725","7023725","7146227","7151475","7284553","7283047","7285497","7166070","7155848","7196418","7040008","7133673","7194750","7155628","7207783","7155853","NA","7284553","7284553","NA","NA","7283043","NAP perception","16","26442","28","yes","1024"
"58.6206896552","yes","58.6206896552","938.482758621","938.482758621","white","no","xpyriment","I have read and understood the information shown above","legacy","legacy","0","uniform","1","0","0","undefined","undefined","1","j","1","0","NA","0","0","0","0","0","0","0","0","0","38","38","38","0","0","0","0","0","1","0","0","0","1","38","38","38","38","38","Wed Jun 28 17:03:55 2017","Forced-choice identification task with a practice and an experimental phase","yes","NAP-FC_GER_AA_ver-2.osexp","/Users/aviadalbert/Documents/Academisch/UoC/Dissertation/Experiment/OpenSesame/NAP-FC/NAP-FC_GER_AA/GER_AA_ver-2","yes","no","sans","no","20","no","black","no","Next","yes","768","legacy","28","9","0","/Users/aviadalbert/Documents/Academisch/UoC/Dissertation/Experiment/OpenSesame/NAP-FC/NAP-FC_GER_AA/GER_AA_ver-2/subject-5.csv","xpyriment","Jazzy James","3.1.6","yes","yes","5950408a6c613b0229e3e810","59504237594d9002288b1720","no","no","0","j","j","space","NA","space","space","j","774","1302","11058","NA","5244","4089","774","2","legacy","1024","1","44100","-16","experiment","nefal","22","Darmstadt","1","0","1","deutsch","englisch, spanisch, franzoesich","5","odd","Koeln","7207784","7196418","NA","7209087","7207780","NA","7023725","7207542","7023725","7023725","7146227","7151475","7287279","7285776","7288054","7166070","7155848","7196418","7040008","7133673","7194750","7155628","7207783","7155853","NA","7287279","7287279","NA","NA","7285772","NAP perception","17","27216","29","yes","1024"
"60","yes","60","943.4","943.4","white","no","xpyriment","I have read and understood the information shown above","legacy","legacy","0","uniform","1","0","0","undefined","undefined","1","f","1","0","NA","0","0","0","0","0","0","0","0","0","39","39","39","0","0","0","0","0","1","0","0","0","1","39","39","39","39","39","Wed Jun 28 17:03:55 2017","Forced-choice identification task with a practice and an experimental phase","yes","NAP-FC_GER_AA_ver-2.osexp","/Users/aviadalbert/Documents/Academisch/UoC/Dissertation/Experiment/OpenSesame/NAP-FC/NAP-FC_GER_AA/GER_AA_ver-2","yes","no","sans","no","20","no","black","no","Next","yes","768","legacy","29","9","0","/Users/aviadalbert/Documents/Academisch/UoC/Dissertation/Experiment/OpenSesame/NAP-FC/NAP-FC_GER_AA/GER_AA_ver-2/subject-5.csv","xpyriment","Jazzy James","3.1.6","yes","yes","5950408a6c613b0229e3e810","59504237594d9002288b1720","no","no","0","f","j","space","NA","space","space","f","1086","1302","11058","NA","5244","4089","1086","2","legacy","1024","1","44100","-16","experiment","spal","22","Darmstadt","1","0","1","deutsch","englisch, spanisch, franzoesich","5","odd","Koeln","7207784","7196418","NA","7209087","7207780","NA","7023725","7207542","7023725","7023725","7146227","7151475","7289833","7288329","7290920","7166070","7155848","7196418","7040008","7133673","7194750","7155628","7207783","7155853","NA","7289833","7289833","NA","NA","7288325","NAP perception","18","28302","30","yes","1024"
"58.064516129","yes","58.064516129","996.64516129","996.64516129","white","no","xpyriment","I have read and understood the information shown above","legacy","legacy","0","uniform","0","0","0","undefined","undefined","0","f","1","0","NA","0","0","0","0","0","0","0","0","0","40","40","40","0","0","0","0","0","1","0","0","0","1","40","40","40","40","40","Wed Jun 28 17:03:55 2017","Forced-choice identification task with a practice and an experimental phase","yes","NAP-FC_GER_AA_ver-2.osexp","/Users/aviadalbert/Documents/Academisch/UoC/Dissertation/Experiment/OpenSesame/NAP-FC/NAP-FC_GER_AA/GER_AA_ver-2","yes","no","sans","no","20","no","black","no","Next","yes","768","legacy","30","9","0","/Users/aviadalbert/Documents/Academisch/UoC/Dissertation/Experiment/OpenSesame/NAP-FC/NAP-FC_GER_AA/GER_AA_ver-2/subject-5.csv","xpyriment","Jazzy James","3.1.6","yes","yes","5950408a6c613b0229e3e810","59504237594d9002288b1720","no","no","0","j","j","space","NA","space","space","j","2594","1302","11058","NA","5244","4089","2594","2","legacy","1024","1","44100","-16","experiment","vzal","22","Darmstadt","1","0","1","deutsch","englisch, spanisch, franzoesich","5","odd","Koeln","7207784","7196418","NA","7209087","7207780","NA","7023725","7207542","7023725","7023725","7146227","7151475","7292700","7291194","7295296","7166070","7155848","7196418","7040008","7133673","7194750","7155628","7207783","7155853","NA","7292699","7292699","NA","NA","7291190","NAP perception","18","30896","31","yes","1024"
"59.375","yes","59.375","999.53125","999.53125","white","no","xpyriment","I have read and understood the information shown above","legacy","legacy","0","uniform","1","0","0","undefined","undefined","1","f","1","0","NA","0","0","0","0","0","0","0","0","0","41","41","41","0","0","0","0","0","1","0","0","0","1","41","41","41","41","41","Wed Jun 28 17:03:55 2017","Forced-choice identification task with a practice and an experimental phase","yes","NAP-FC_GER_AA_ver-2.osexp","/Users/aviadalbert/Documents/Academisch/UoC/Dissertation/Experiment/OpenSesame/NAP-FC/NAP-FC_GER_AA/GER_AA_ver-2","yes","no","sans","no","20","no","black","no","Next","yes","768","legacy","31","9","0","/Users/aviadalbert/Documents/Academisch/UoC/Dissertation/Experiment/OpenSesame/NAP-FC/NAP-FC_GER_AA/GER_AA_ver-2/subject-5.csv","xpyriment","Jazzy James","3.1.6","yes","yes","5950408a6c613b0229e3e810","59504237594d9002288b1720","no","no","0","f","j","space","NA","space","space","f","1089","1302","11058","NA","5244","4089","1089","2","legacy","1024","1","44100","-16","experiment","ʃfal","22","Darmstadt","1","0","1","deutsch","englisch, spanisch, franzoesich","5","odd","Koeln","7207784","7196418","NA","7209087","7207780","NA","7023725","7207542","7023725","7023725","7146227","7151475","7297082","7295578","7298172","7166070","7155848","7196418","7040008","7133673","7194750","7155628","7207783","7155853","NA","7297082","7297082","NA","NA","7295574","NAP perception","19","31985","32","yes","1024"
"57.5757575758","yes","57.5757575758","1001.21212121","1001.21212121","white","no","xpyriment","I have read and understood the information shown above","legacy","legacy","0","uniform","0","0","0","undefined","undefined","0","f","1","0","NA","0","0","0","0","0","0","0","0","0","42","42","42","0","0","0","0","0","1","0","0","0","1","42","42","42","42","42","Wed Jun 28 17:03:55 2017","Forced-choice identification task with a practice and an experimental phase","yes","NAP-FC_GER_AA_ver-2.osexp","/Users/aviadalbert/Documents/Academisch/UoC/Dissertation/Experiment/OpenSesame/NAP-FC/NAP-FC_GER_AA/GER_AA_ver-2","yes","no","sans","no","20","no","black","no","Next","yes","768","legacy","32","9","0","/Users/aviadalbert/Documents/Academisch/UoC/Dissertation/Experiment/OpenSesame/NAP-FC/NAP-FC_GER_AA/GER_AA_ver-2/subject-5.csv","xpyriment","Jazzy James","3.1.6","yes","yes","5950408a6c613b0229e3e810","59504237594d9002288b1720","no","no","0","j","j","space","NA","space","space","j","1055","1302","11058","NA","5244","4089","1055","2","legacy","1024","1","44100","-16","experiment","wnal","22","Darmstadt","1","0","1","deutsch","englisch, spanisch, franzoesich","5","odd","Koeln","7207784","7196418","NA","7209087","7207780","NA","7023725","7207542","7023725","7023725","7146227","7151475","7299957","7298453","7301013","7166070","7155848","7196418","7040008","7133673","7194750","7155628","7207783","7155853","NA","7299957","7299957","NA","NA","7298449","NAP perception","19","33040","33","yes","1024"
"55.8823529412","yes","55.8823529412","994.558823529","994.558823529","white","no","xpyriment","I have read and understood the information shown above","legacy","legacy","0","uniform","0","0","0","undefined","undefined","0","f","1","0","NA","0","0","0","0","0","0","0","0","0","43","43","43","0","0","0","0","0","1","0","0","0","1","43","43","43","43","43","Wed Jun 28 17:03:55 2017","Forced-choice identification task with a practice and an experimental phase","yes","NAP-FC_GER_AA_ver-2.osexp","/Users/aviadalbert/Documents/Academisch/UoC/Dissertation/Experiment/OpenSesame/NAP-FC/NAP-FC_GER_AA/GER_AA_ver-2","yes","no","sans","no","20","no","black","no","Next","yes","768","legacy","33","9","0","/Users/aviadalbert/Documents/Academisch/UoC/Dissertation/Experiment/OpenSesame/NAP-FC/NAP-FC_GER_AA/GER_AA_ver-2/subject-5.csv","xpyriment","Jazzy James","3.1.6","yes","yes","5950408a6c613b0229e3e810","59504237594d9002288b1720","no","no","0","j","j","space","NA","space","space","j","775","1302","11058","NA","5244","4089","775","2","legacy","1024","1","44100","-16","experiment","jfal","22","Darmstadt","1","0","1","deutsch","englisch, spanisch, franzoesich","5","odd","Koeln","7207784","7196418","NA","7209087","7207780","NA","7023725","7207542","7023725","7023725","7146227","7151475","7302799","7301292","7303576","7166070","7155848","7196418","7040008","7133673","7194750","7155628","7207783","7155853","NA","7302798","7302799","NA","NA","7301288","NAP perception","19","33815","34","yes","1024"
"57.1428571429","yes","57.1428571429","1007.54285714","1007.54285714","white","no","xpyriment","I have read and understood the information shown above","legacy","legacy","0","uniform","1","0","0","undefined","undefined","1","j","1","0","NA","0","0","0","0","0","0","0","0","0","44","44","44","0","0","0","0","0","1","0","0","0","1","44","44","44","44","44","Wed Jun 28 17:03:55 2017","Forced-choice identification task with a practice and an experimental phase","yes","NAP-FC_GER_AA_ver-2.osexp","/Users/aviadalbert/Documents/Academisch/UoC/Dissertation/Experiment/OpenSesame/NAP-FC/NAP-FC_GER_AA/GER_AA_ver-2","yes","no","sans","no","20","no","black","no","Next","yes","768","legacy","34","9","0","/Users/aviadalbert/Documents/Academisch/UoC/Dissertation/Experiment/OpenSesame/NAP-FC/NAP-FC_GER_AA/GER_AA_ver-2/subject-5.csv","xpyriment","Jazzy James","3.1.6","yes","yes","5950408a6c613b0229e3e810","59504237594d9002288b1720","no","no","0","j","j","space","NA","space","space","j","1449","1302","11058","NA","5244","4089","1449","2","legacy","1024","1","44100","-16","experiment","enval","22","Darmstadt","1","0","1","deutsch","englisch, spanisch, franzoesich","5","odd","Koeln","7207784","7196418","NA","7209087","7207780","NA","7023725","7207542","7023725","7023725","7146227","7151475","7305356","7303852","7306806","7166070","7155848","7196418","7040008","7133673","7194750","7155628","7207783","7155853","NA","7305356","7305356","NA","NA","7303847","NAP perception","20","35264","35","yes","1024"
"55.5555555556","yes","55.5555555556","1002.66666667","1002.66666667","white","no","xpyriment","I have read and understood the information shown above","legacy","legacy","0","uniform","0","0","0","undefined","undefined","0","f","1","0","NA","0","0","0","0","0","0","0","0","0","45","45","45","0","0","0","0","0","1","0","0","0","1","45","45","45","45","45","Wed Jun 28 17:03:55 2017","Forced-choice identification task with a practice and an experimental phase","yes","NAP-FC_GER_AA_ver-2.osexp","/Users/aviadalbert/Documents/Academisch/UoC/Dissertation/Experiment/OpenSesame/NAP-FC/NAP-FC_GER_AA/GER_AA_ver-2","yes","no","sans","no","20","no","black","no","Next","yes","768","legacy","35","9","0","/Users/aviadalbert/Documents/Academisch/UoC/Dissertation/Experiment/OpenSesame/NAP-FC/NAP-FC_GER_AA/GER_AA_ver-2/subject-5.csv","xpyriment","Jazzy James","3.1.6","yes","yes","5950408a6c613b0229e3e810","59504237594d9002288b1720","no","no","0","j","j","space","NA","space","space","j","832","1302","11058","NA","5244","4089","832","2","legacy","1024","1","44100","-16","experiment","jpal","22","Darmstadt","1","0","1","deutsch","englisch, spanisch, franzoesich","5","odd","Koeln","7207784","7196418","NA","7209087","7207780","NA","7023725","7207542","7023725","7023725","7146227","7151475","7308584","7307080","7309417","7166070","7155848","7196418","7040008","7133673","7194750","7155628","7207783","7155853","NA","7308584","7308584","NA","NA","7307076","NAP perception","20","36096","36","yes","1024"
"56.7567567568","yes","56.7567567568","998.135135135","998.135135135","white","no","xpyriment","I have read and understood the information shown above","legacy","legacy","0","uniform","1","0","0","undefined","undefined","1","j","1","0","NA","0","0","0","0","0","0","0","0","0","46","46","46","0","0","0","0","0","1","0","0","0","1","46","46","46","46","46","Wed Jun 28 17:03:55 2017","Forced-choice identification task with a practice and an experimental phase","yes","NAP-FC_GER_AA_ver-2.osexp","/Users/aviadalbert/Documents/Academisch/UoC/Dissertation/Experiment/OpenSesame/NAP-FC/NAP-FC_GER_AA/GER_AA_ver-2","yes","no","sans","no","20","no","black","no","Next","yes","768","legacy","36","9","0","/Users/aviadalbert/Documents/Academisch/UoC/Dissertation/Experiment/OpenSesame/NAP-FC/NAP-FC_GER_AA/GER_AA_ver-2/subject-5.csv","xpyriment","Jazzy James","3.1.6","yes","yes","5950408a6c613b0229e3e810","59504237594d9002288b1720","no","no","0","j","j","space","NA","space","space","j","835","1302","11058","NA","5244","4089","835","2","legacy","1024","1","44100","-16","experiment","emnal","22","Darmstadt","1","0","1","deutsch","englisch, spanisch, franzoesich","5","odd","Koeln","7207784","7196418","NA","7209087","7207780","NA","7023725","7207542","7023725","7023725","7146227","7151475","7311209","7309703","7312045","7166070","7155848","7196418","7040008","7133673","7194750","7155628","7207783","7155853","NA","7311209","7311209","NA","NA","7309699","NAP perception","21","36931","37","yes","1024"
"57.8947368421","yes","57.8947368421","996.157894737","996.157894737","white","no","xpyriment","I have read and understood the information shown above","legacy","legacy","0","uniform","1","0","0","undefined","undefined","1","j","1","0","NA","0","0","0","0","0","0","0","0","0","47","47","47","0","0","0","0","0","1","0","0","0","1","47","47","47","47","47","Wed Jun 28 17:03:55 2017","Forced-choice identification task with a practice and an experimental phase","yes","NAP-FC_GER_AA_ver-2.osexp","/Users/aviadalbert/Documents/Academisch/UoC/Dissertation/Experiment/OpenSesame/NAP-FC/NAP-FC_GER_AA/GER_AA_ver-2","yes","no","sans","no","20","no","black","no","Next","yes","768","legacy","37","9","0","/Users/aviadalbert/Documents/Academisch/UoC/Dissertation/Experiment/OpenSesame/NAP-FC/NAP-FC_GER_AA/GER_AA_ver-2/subject-5.csv","xpyriment","Jazzy James","3.1.6","yes","yes","5950408a6c613b0229e3e810","59504237594d9002288b1720","no","no","0","j","j","space","NA","space","space","j","923","1302","11058","NA","5244","4089","923","2","legacy","1024","1","44100","-16","experiment","elpal","22","Darmstadt","1","0","1","deutsch","englisch, spanisch, franzoesich","5","odd","Koeln","7207784","7196418","NA","7209087","7207780","NA","7023725","7207542","7023725","7023725","7146227","7151475","7313838","7312334","7314762","7166070","7155848","7196418","7040008","7133673","7194750","7155628","7207783","7155853","NA","7313838","7313838","NA","NA","7312330","NAP perception","22","37854","38","yes","1024"
"58.9743589744","yes","58.9743589744","995.179487179","995.179487179","white","no","xpyriment","I have read and understood the information shown above","legacy","legacy","0","uniform","1","0","0","undefined","undefined","1","j","1","0","NA","0","0","0","0","0","0","0","0","0","48","48","48","0","0","0","0","0","1","0","0","0","1","48","48","48","48","48","Wed Jun 28 17:03:55 2017","Forced-choice identification task with a practice and an experimental phase","yes","NAP-FC_GER_AA_ver-2.osexp","/Users/aviadalbert/Documents/Academisch/UoC/Dissertation/Experiment/OpenSesame/NAP-FC/NAP-FC_GER_AA/GER_AA_ver-2","yes","no","sans","no","20","no","black","no","Next","yes","768","legacy","38","9","0","/Users/aviadalbert/Documents/Academisch/UoC/Dissertation/Experiment/OpenSesame/NAP-FC/NAP-FC_GER_AA/GER_AA_ver-2/subject-5.csv","xpyriment","Jazzy James","3.1.6","yes","yes","5950408a6c613b0229e3e810","59504237594d9002288b1720","no","no","0","j","j","space","NA","space","space","j","958","1302","11058","NA","5244","4089","958","2","legacy","1024","1","44100","-16","experiment","metal","22","Darmstadt","1","0","1","deutsch","englisch, spanisch, franzoesich","5","odd","Koeln","7207784","7196418","NA","7209087","7207780","NA","7023725","7207542","7023725","7023725","7146227","7151475","7316549","7315043","7317508","7166070","7155848","7196418","7040008","7133673","7194750","7155628","7207783","7155853","NA","7316549","7316549","NA","NA","7315039","NAP perception","23","38812","39","yes","1024"
"60","yes","60","1025.875","1025.875","white","no","xpyriment","I have read and understood the information shown above","legacy","legacy","0","uniform","1","0","0","undefined","undefined","1","f","1","0","NA","0","0","0","0","0","0","0","0","0","49","49","49","0","0","0","0","0","1","0","0","0","1","49","49","49","49","49","Wed Jun 28 17:03:55 2017","Forced-choice identification task with a practice and an experimental phase","yes","NAP-FC_GER_AA_ver-2.osexp","/Users/aviadalbert/Documents/Academisch/UoC/Dissertation/Experiment/OpenSesame/NAP-FC/NAP-FC_GER_AA/GER_AA_ver-2","yes","no","sans","no","20","no","black","no","Next","yes","768","legacy","39","9","0","/Users/aviadalbert/Documents/Academisch/UoC/Dissertation/Experiment/OpenSesame/NAP-FC/NAP-FC_GER_AA/GER_AA_ver-2/subject-5.csv","xpyriment","Jazzy James","3.1.6","yes","yes","5950408a6c613b0229e3e810","59504237594d9002288b1720","no","no","0","f","j","space","NA","space","space","f","2223","1302","11058","NA","5244","4089","2223","2","legacy","1024","1","44100","-16","experiment","sfal","22","Darmstadt","1","0","1","deutsch","englisch, spanisch, franzoesich","5","odd","Koeln","7207784","7196418","NA","7209087","7207780","NA","7023725","7207542","7023725","7023725","7146227","7151475","7319280","7317777","7321505","7166070","7155848","7196418","7040008","7133673","7194750","7155628","7207783","7155853","NA","7319280","7319280","NA","NA","7317773","NAP perception","24","41035","40","yes","1024"
"58.5365853659","yes","58.5365853659","1019","1019","white","no","xpyriment","I have read and understood the information shown above","legacy","legacy","0","uniform","0","0","0","undefined","undefined","0","f","1","0","NA","0","0","0","0","0","0","0","0","0","50","50","50","0","0","0","0","0","1","0","0","0","1","50","50","50","50","50","Wed Jun 28 17:03:55 2017","Forced-choice identification task with a practice and an experimental phase","yes","NAP-FC_GER_AA_ver-2.osexp","/Users/aviadalbert/Documents/Academisch/UoC/Dissertation/Experiment/OpenSesame/NAP-FC/NAP-FC_GER_AA/GER_AA_ver-2","yes","no","sans","no","20","no","black","no","Next","yes","768","legacy","40","9","0","/Users/aviadalbert/Documents/Academisch/UoC/Dissertation/Experiment/OpenSesame/NAP-FC/NAP-FC_GER_AA/GER_AA_ver-2/subject-5.csv","xpyriment","Jazzy James","3.1.6","yes","yes","5950408a6c613b0229e3e810","59504237594d9002288b1720","no","no","0","j","j","space","NA","space","space","j","744","1302","11058","NA","5244","4089","744","2","legacy","1024","1","44100","-16","experiment","mzal","22","Darmstadt","1","0","1","deutsch","englisch, spanisch, franzoesich","5","odd","Koeln","7207784","7196418","NA","7209087","7207780","NA","7023725","7207542","7023725","7023725","7146227","7151475","7323284","7321781","7324030","7166070","7155848","7196418","7040008","7133673","7194750","7155628","7207783","7155853","NA","7323284","7323284","NA","NA","7321777","NAP perception","24","41779","41","yes","1024"
"59.5238095238","yes","59.5238095238","1019.0952381","1019.0952381","white","no","xpyriment","I have read and understood the information shown above","legacy","legacy","0","uniform","1","0","0","undefined","undefined","1","f","1","0","NA","0","0","0","0","0","0","0","0","0","51","51","51","0","0","0","0","0","1","0","0","0","1","51","51","51","51","51","Wed Jun 28 17:03:55 2017","Forced-choice identification task with a practice and an experimental phase","yes","NAP-FC_GER_AA_ver-2.osexp","/Users/aviadalbert/Documents/Academisch/UoC/Dissertation/Experiment/OpenSesame/NAP-FC/NAP-FC_GER_AA/GER_AA_ver-2","yes","no","sans","no","20","no","black","no","Next","yes","768","legacy","41","9","0","/Users/aviadalbert/Documents/Academisch/UoC/Dissertation/Experiment/OpenSesame/NAP-FC/NAP-FC_GER_AA/GER_AA_ver-2/subject-5.csv","xpyriment","Jazzy James","3.1.6","yes","yes","5950408a6c613b0229e3e810","59504237594d9002288b1720","no","no","0","f","j","space","NA","space","space","f","1023","1302","11058","NA","5244","4089","1023","2","legacy","1024","1","44100","-16","experiment","zval","22","Darmstadt","1","0","1","deutsch","englisch, spanisch, franzoesich","5","odd","Koeln","7207784","7196418","NA","7209087","7207780","NA","7023725","7207542","7023725","7023725","7146227","7151475","7325805","7324300","7326829","7166070","7155848","7196418","7040008","7133673","7194750","7155628","7207783","7155853","NA","7325805","7325805","NA","NA","7324296","NAP perception","25","42802","42","yes","1024"
"60.4651162791","yes","60.4651162791","1015.09302326","1015.09302326","white","no","xpyriment","I have read and understood the information shown above","legacy","legacy","0","uniform","1","0","0","undefined","undefined","1","j","1","0","NA","0","0","0","0","0","0","0","0","0","52","52","52","0","0","0","0","0","1","0","0","0","1","52","52","52","52","52","Wed Jun 28 17:03:55 2017","Forced-choice identification task with a practice and an experimental phase","yes","NAP-FC_GER_AA_ver-2.osexp","/Users/aviadalbert/Documents/Academisch/UoC/Dissertation/Experiment/OpenSesame/NAP-FC/NAP-FC_GER_AA/GER_AA_ver-2","yes","no","sans","no","20","no","black","no","Next","yes","768","legacy","42","9","0","/Users/aviadalbert/Documents/Academisch/UoC/Dissertation/Experiment/OpenSesame/NAP-FC/NAP-FC_GER_AA/GER_AA_ver-2/subject-5.csv","xpyriment","Jazzy James","3.1.6","yes","yes","5950408a6c613b0229e3e810","59504237594d9002288b1720","no","no","0","j","j","space","NA","space","space","j","847","1302","11058","NA","5244","4089","847","2","legacy","1024","1","44100","-16","experiment","zeval","22","Darmstadt","1","0","1","deutsch","englisch, spanisch, franzoesich","5","odd","Koeln","7207784","7196418","NA","7209087","7207780","NA","7023725","7207542","7023725","7023725","7146227","7151475","7328618","7327114","7329467","7166070","7155848","7196418","7040008","7133673","7194750","7155628","7207783","7155853","NA","7328618","7328618","NA","NA","7327110","NAP perception","26","43649","43","yes","1024"
"61.3636363636","yes","61.3636363636","1014.72727273","1014.72727273","white","no","xpyriment","I have read and understood the information shown above","legacy","legacy","0","uniform","1","0","0","undefined","undefined","1","j","1","0","NA","0","0","0","0","0","0","0","0","0","53","53","53","0","0","0","0","0","1","0","0","0","1","53","53","53","53","53","Wed Jun 28 17:03:55 2017","Forced-choice identification task with a practice and an experimental phase","yes","NAP-FC_GER_AA_ver-2.osexp","/Users/aviadalbert/Documents/Academisch/UoC/Dissertation/Experiment/OpenSesame/NAP-FC/NAP-FC_GER_AA/GER_AA_ver-2","yes","no","sans","no","20","no","black","no","Next","yes","768","legacy","43","9","0","/Users/aviadalbert/Documents/Academisch/UoC/Dissertation/Experiment/OpenSesame/NAP-FC/NAP-FC_GER_AA/GER_AA_ver-2/subject-5.csv","xpyriment","Jazzy James","3.1.6","yes","yes","5950408a6c613b0229e3e810","59504237594d9002288b1720","no","no","0","j","j","space","NA","space","space","j","999","1302","11058","NA","5244","4089","999","2","legacy","1024","1","44100","-16","experiment","wezal","22","Darmstadt","1","0","1","deutsch","englisch, spanisch, franzoesich","5","odd","Koeln","7207784","7196418","NA","7209087","7207780","NA","7023725","7207542","7023725","7023725","7146227","7151475","7331239","7329736","7332239","7166070","7155848","7196418","7040008","7133673","7194750","7155628","7207783","7155853","NA","7331239","7331239","NA","NA","7329732","NAP perception","27","44648","44","yes","1024"
"62.2222222222","yes","62.2222222222","1037.6","1037.6","white","no","xpyriment","I have read and understood the information shown above","legacy","legacy","0","uniform","1","0","0","undefined","undefined","1","j","1","0","NA","0","0","0","0","0","0","0","0","0","54","54","54","0","0","0","0","0","1","0","0","0","1","54","54","54","54","54","Wed Jun 28 17:03:55 2017","Forced-choice identification task with a practice and an experimental phase","yes","NAP-FC_GER_AA_ver-2.osexp","/Users/aviadalbert/Documents/Academisch/UoC/Dissertation/Experiment/OpenSesame/NAP-FC/NAP-FC_GER_AA/GER_AA_ver-2","yes","no","sans","no","20","no","black","no","Next","yes","768","legacy","44","9","0","/Users/aviadalbert/Documents/Academisch/UoC/Dissertation/Experiment/OpenSesame/NAP-FC/NAP-FC_GER_AA/GER_AA_ver-2/subject-5.csv","xpyriment","Jazzy James","3.1.6","yes","yes","5950408a6c613b0229e3e810","59504237594d9002288b1720","no","no","0","j","j","space","NA","space","space","j","2044","1302","11058","NA","5244","4089","2044","2","legacy","1024","1","44100","-16","experiment","evzal","22","Darmstadt","1","0","1","deutsch","englisch, spanisch, franzoesich","5","odd","Koeln","7207784","7196418","NA","7209087","7207780","NA","7023725","7207542","7023725","7023725","7146227","7151475","7334021","7332516","7336066","7166070","7155848","7196418","7040008","7133673","7194750","7155628","7207783","7155853","NA","7334021","7334021","NA","NA","7332512","NAP perception","28","46692","45","yes","1024"
"63.0434782609","yes","63.0434782609","1038.82608696","1038.82608696","white","no","xpyriment","I have read and understood the information shown above","legacy","legacy","0","uniform","1","0","0","undefined","undefined","1","j","1","0","NA","0","0","0","0","0","0","0","0","0","55","55","55","0","0","0","0","0","1","0","0","0","1","55","55","55","55","55","Wed Jun 28 17:03:55 2017","Forced-choice identification task with a practice and an experimental phase","yes","NAP-FC_GER_AA_ver-2.osexp","/Users/aviadalbert/Documents/Academisch/UoC/Dissertation/Experiment/OpenSesame/NAP-FC/NAP-FC_GER_AA/GER_AA_ver-2","yes","no","sans","no","20","no","black","no","Next","yes","768","legacy","45","9","0","/Users/aviadalbert/Documents/Academisch/UoC/Dissertation/Experiment/OpenSesame/NAP-FC/NAP-FC_GER_AA/GER_AA_ver-2/subject-5.csv","xpyriment","Jazzy James","3.1.6","yes","yes","5950408a6c613b0229e3e810","59504237594d9002288b1720","no","no","0","j","j","space","NA","space","space","j","1094","1302","11058","NA","5244","4089","1094","2","legacy","1024","1","44100","-16","experiment","eflal","22","Darmstadt","1","0","1","deutsch","englisch, spanisch, franzoesich","5","odd","Koeln","7207784","7196418","NA","7209087","7207780","NA","7023725","7207542","7023725","7023725","7146227","7151475","7337848","7336339","7338943","7166070","7155848","7196418","7040008","7133673","7194750","7155628","7207783","7155853","NA","7337848","7337848","NA","NA","7336335","NAP perception","29","47786","46","yes","1024"
"63.829787234","yes","63.829787234","1031.85106383","1031.85106383","white","no","xpyriment","I have read and understood the information shown above","legacy","legacy","0","uniform","1","0","0","undefined","undefined","1","j","1","0","NA","0","0","0","0","0","0","0","0","0","56","56","56","0","0","0","0","0","1","0","0","0","1","56","56","56","56","56","Wed Jun 28 17:03:55 2017","Forced-choice identification task with a practice and an experimental phase","yes","NAP-FC_GER_AA_ver-2.osexp","/Users/aviadalbert/Documents/Academisch/UoC/Dissertation/Experiment/OpenSesame/NAP-FC/NAP-FC_GER_AA/GER_AA_ver-2","yes","no","sans","no","20","no","black","no","Next","yes","768","legacy","46","9","0","/Users/aviadalbert/Documents/Academisch/UoC/Dissertation/Experiment/OpenSesame/NAP-FC/NAP-FC_GER_AA/GER_AA_ver-2/subject-5.csv","xpyriment","Jazzy James","3.1.6","yes","yes","5950408a6c613b0229e3e810","59504237594d9002288b1720","no","no","0","j","j","space","NA","space","space","j","711","1302","11058","NA","5244","4089","711","2","legacy","1024","1","44100","-16","experiment","mezal","22","Darmstadt","1","0","1","deutsch","englisch, spanisch, franzoesich","5","odd","Koeln","7207784","7196418","NA","7209087","7207780","NA","7023725","7207542","7023725","7023725","7146227","7151475","7340734","7339228","7341446","7166070","7155848","7196418","7040008","7133673","7194750","7155628","7207783","7155853","NA","7340733","7340734","NA","NA","7339224","NAP perception","30","48497","47","yes","1024"
"64.5833333333","yes","64.5833333333","1024.5","1024.5","white","no","xpyriment","I have read and understood the information shown above","legacy","legacy","0","uniform","1","0","0","undefined","undefined","1","j","1","0","NA","0","0","0","0","0","0","0","0","0","57","57","57","0","0","0","0","0","1","0","0","0","1","57","57","57","57","57","Wed Jun 28 17:03:55 2017","Forced-choice identification task with a practice and an experimental phase","yes","NAP-FC_GER_AA_ver-2.osexp","/Users/aviadalbert/Documents/Academisch/UoC/Dissertation/Experiment/OpenSesame/NAP-FC/NAP-FC_GER_AA/GER_AA_ver-2","yes","no","sans","no","20","no","black","no","Next","yes","768","legacy","47","9","0","/Users/aviadalbert/Documents/Academisch/UoC/Dissertation/Experiment/OpenSesame/NAP-FC/NAP-FC_GER_AA/GER_AA_ver-2/subject-5.csv","xpyriment","Jazzy James","3.1.6","yes","yes","5950408a6c613b0229e3e810","59504237594d9002288b1720","no","no","0","j","j","space","NA","space","space","j","679","1302","11058","NA","5244","4089","679","2","legacy","1024","1","44100","-16","experiment","jeval","22","Darmstadt","1","0","1","deutsch","englisch, spanisch, franzoesich","5","odd","Koeln","7207784","7196418","NA","7209087","7207780","NA","7023725","7207542","7023725","7023725","7146227","7151475","7343228","7341722","7343909","7166070","7155848","7196418","7040008","7133673","7194750","7155628","7207783","7155853","NA","7343228","7343228","NA","NA","7341718","NAP perception","31","49176","48","yes","1024"
"63.2653061224","yes","63.2653061224","1020.55102041","1020.55102041","white","no","xpyriment","I have read and understood the information shown above","legacy","legacy","0","uniform","0","0","0","undefined","undefined","0","f","1","0","NA","0","0","0","0","0","0","0","0","0","58","58","58","0","0","0","0","0","1","0","0","0","1","58","58","58","58","58","Wed Jun 28 17:03:55 2017","Forced-choice identification task with a practice and an experimental phase","yes","NAP-FC_GER_AA_ver-2.osexp","/Users/aviadalbert/Documents/Academisch/UoC/Dissertation/Experiment/OpenSesame/NAP-FC/NAP-FC_GER_AA/GER_AA_ver-2","yes","no","sans","no","20","no","black","no","Next","yes","768","legacy","48","9","0","/Users/aviadalbert/Documents/Academisch/UoC/Dissertation/Experiment/OpenSesame/NAP-FC/NAP-FC_GER_AA/GER_AA_ver-2/subject-5.csv","xpyriment","Jazzy James","3.1.6","yes","yes","5950408a6c613b0229e3e810","59504237594d9002288b1720","no","no","0","j","j","space","NA","space","space","j","831","1302","11058","NA","5244","4089","831","2","legacy","1024","1","44100","-16","experiment","msal","22","Darmstadt","1","0","1","deutsch","englisch, spanisch, franzoesich","5","odd","Koeln","7207784","7196418","NA","7209087","7207780","NA","7023725","7207542","7023725","7023725","7146227","7151475","7345692","7344189","7346524","7166070","7155848","7196418","7040008","7133673","7194750","7155628","7207783","7155853","NA","7345692","7345692","NA","NA","7344185","NAP perception","31","50007","49","yes","1024"
"62","yes","62","1033.44","1033.44","white","no","xpyriment","I have read and understood the information shown above","legacy","legacy","0","uniform","0","0","0","undefined","undefined","0","f","1","0","NA","0","0","0","0","0","0","0","0","0","59","59","59","0","0","0","0","0","1","0","0","0","1","59","59","59","59","59","Wed Jun 28 17:03:55 2017","Forced-choice identification task with a practice and an experimental phase","yes","NAP-FC_GER_AA_ver-2.osexp","/Users/aviadalbert/Documents/Academisch/UoC/Dissertation/Experiment/OpenSesame/NAP-FC/NAP-FC_GER_AA/GER_AA_ver-2","yes","no","sans","no","20","no","black","no","Next","yes","768","legacy","49","9","0","/Users/aviadalbert/Documents/Academisch/UoC/Dissertation/Experiment/OpenSesame/NAP-FC/NAP-FC_GER_AA/GER_AA_ver-2/subject-5.csv","xpyriment","Jazzy James","3.1.6","yes","yes","5950408a6c613b0229e3e810","59504237594d9002288b1720","no","no","0","j","j","space","NA","space","space","j","1665","1302","11058","NA","5244","4089","1665","2","legacy","1024","1","44100","-16","experiment","mnal","22","Darmstadt","1","0","1","deutsch","englisch, spanisch, franzoesich","5","odd","Koeln","7207784","7196418","NA","7209087","7207780","NA","7023725","7207542","7023725","7023725","7146227","7151475","7348307","7346803","7349973","7166070","7155848","7196418","7040008","7133673","7194750","7155628","7207783","7155853","NA","7348307","7348307","NA","NA","7346799","NAP perception","31","51672","50","yes","1024"
"62.7450980392","yes","62.7450980392","1036.45098039","1036.45098039","white","no","xpyriment","I have read and understood the information shown above","legacy","legacy","0","uniform","1","0","0","undefined","undefined","1","j","1","0","NA","0","0","0","0","0","0","0","0","0","60","60","60","0","0","0","0","0","1","0","0","0","1","60","60","60","60","60","Wed Jun 28 17:03:55 2017","Forced-choice identification task with a practice and an experimental phase","yes","NAP-FC_GER_AA_ver-2.osexp","/Users/aviadalbert/Documents/Academisch/UoC/Dissertation/Experiment/OpenSesame/NAP-FC/NAP-FC_GER_AA/GER_AA_ver-2","yes","no","sans","no","20","no","black","no","Next","yes","768","legacy","50","9","0","/Users/aviadalbert/Documents/Academisch/UoC/Dissertation/Experiment/OpenSesame/NAP-FC/NAP-FC_GER_AA/GER_AA_ver-2/subject-5.csv","xpyriment","Jazzy James","3.1.6","yes","yes","5950408a6c613b0229e3e810","59504237594d9002288b1720","no","no","0","j","j","space","NA","space","space","j","1187","1302","11058","NA","5244","4089","1187","2","legacy","1024","1","44100","-16","experiment","ʃemal","22","Darmstadt","1","0","1","deutsch","englisch, spanisch, franzoesich","5","odd","Koeln","7207784","7196418","NA","7209087","7207780","NA","7023725","7207542","7023725","7023725","7146227","7151475","7351740","7350235","7352929","7166070","7155848","7196418","7040008","7133673","7194750","7155628","7207783","7155853","NA","7351739","7351740","NA","NA","7350231","NAP perception","32","52859","51","yes","1024"
"61.5384615385","yes","61.5384615385","1033.25","1033.25","white","no","xpyriment","I have read and understood the information shown above","legacy","legacy","0","uniform","0","0","0","undefined","undefined","0","f","1","0","NA","0","0","0","0","0","0","0","0","0","61","61","61","0","0","0","0","0","1","0","0","0","1","61","61","61","61","61","Wed Jun 28 17:03:55 2017","Forced-choice identification task with a practice and an experimental phase","yes","NAP-FC_GER_AA_ver-2.osexp","/Users/aviadalbert/Documents/Academisch/UoC/Dissertation/Experiment/OpenSesame/NAP-FC/NAP-FC_GER_AA/GER_AA_ver-2","yes","no","sans","no","20","no","black","no","Next","yes","768","legacy","51","9","0","/Users/aviadalbert/Documents/Academisch/UoC/Dissertation/Experiment/OpenSesame/NAP-FC/NAP-FC_GER_AA/GER_AA_ver-2/subject-5.csv","xpyriment","Jazzy James","3.1.6","yes","yes","5950408a6c613b0229e3e810","59504237594d9002288b1720","no","no","0","j","j","space","NA","space","space","j","870","1302","11058","NA","5244","4089","870","2","legacy","1024","1","44100","-16","experiment","wtal","22","Darmstadt","1","0","1","deutsch","englisch, spanisch, franzoesich","5","odd","Koeln","7207784","7196418","NA","7209087","7207780","NA","7023725","7207542","7023725","7023725","7146227","7151475","7354701","7353195","7355573","7166070","7155848","7196418","7040008","7133673","7194750","7155628","7207783","7155853","NA","7354700","7354700","NA","NA","7353191","NAP perception","32","53729","52","yes","1024"
"62.2641509434","yes","62.2641509434","1036.37735849","1036.37735849","white","no","xpyriment","I have read and understood the information shown above","legacy","legacy","0","uniform","1","0","0","undefined","undefined","1","j","1","0","NA","0","0","0","0","0","0","0","0","0","62","62","62","0","0","0","0","0","1","0","0","0","1","62","62","62","62","62","Wed Jun 28 17:03:55 2017","Forced-choice identification task with a practice and an experimental phase","yes","NAP-FC_GER_AA_ver-2.osexp","/Users/aviadalbert/Documents/Academisch/UoC/Dissertation/Experiment/OpenSesame/NAP-FC/NAP-FC_GER_AA/GER_AA_ver-2","yes","no","sans","no","20","no","black","no","Next","yes","768","legacy","52","9","0","/Users/aviadalbert/Documents/Academisch/UoC/Dissertation/Experiment/OpenSesame/NAP-FC/NAP-FC_GER_AA/GER_AA_ver-2/subject-5.csv","xpyriment","Jazzy James","3.1.6","yes","yes","5950408a6c613b0229e3e810","59504237594d9002288b1720","no","no","0","j","j","space","NA","space","space","j","1199","1302","11058","NA","5244","4089","1199","2","legacy","1024","1","44100","-16","experiment","wetal","22","Darmstadt","1","0","1","deutsch","englisch, spanisch, franzoesich","5","odd","Koeln","7207784","7196418","NA","7209087","7207780","NA","7023725","7207542","7023725","7023725","7146227","7151475","7357366","7355862","7358567","7166070","7155848","7196418","7040008","7133673","7194750","7155628","7207783","7155853","NA","7357366","7357366","NA","NA","7355858","NAP perception","33","54928","53","yes","1024"
"62.962962963","yes","62.962962963","1034.14814815","1034.14814815","white","no","xpyriment","I have read and understood the information shown above","legacy","legacy","0","uniform","1","0","0","undefined","undefined","1","j","1","0","NA","0","0","0","0","0","0","0","0","0","63","63","63","0","0","0","0","0","1","0","0","0","1","63","63","63","63","63","Wed Jun 28 17:03:55 2017","Forced-choice identification task with a practice and an experimental phase","yes","NAP-FC_GER_AA_ver-2.osexp","/Users/aviadalbert/Documents/Academisch/UoC/Dissertation/Experiment/OpenSesame/NAP-FC/NAP-FC_GER_AA/GER_AA_ver-2","yes","no","sans","no","20","no","black","no","Next","yes","768","legacy","53","9","0","/Users/aviadalbert/Documents/Academisch/UoC/Dissertation/Experiment/OpenSesame/NAP-FC/NAP-FC_GER_AA/GER_AA_ver-2/subject-5.csv","xpyriment","Jazzy James","3.1.6","yes","yes","5950408a6c613b0229e3e810","59504237594d9002288b1720","no","no","0","j","j","space","NA","space","space","j","916","1302","11058","NA","5244","4089","916","2","legacy","1024","1","44100","-16","experiment","venal","22","Darmstadt","1","0","1","deutsch","englisch, spanisch, franzoesich","5","odd","Koeln","7207784","7196418","NA","7209087","7207780","NA","7023725","7207542","7023725","7023725","7146227","7151475","7360338","7358833","7361255","7166070","7155848","7196418","7040008","7133673","7194750","7155628","7207783","7155853","NA","7360338","7360338","NA","NA","7358829","NAP perception","34","55844","54","yes","1024"
"63.6363636364","yes","63.6363636364","1042.96363636","1042.96363636","white","no","xpyriment","I have read and understood the information shown above","legacy","legacy","0","uniform","1","0","0","undefined","undefined","1","f","1","0","NA","0","0","0","0","0","0","0","0","0","64","64","64","0","0","0","0","0","1","0","0","0","1","64","64","64","64","64","Wed Jun 28 17:03:55 2017","Forced-choice identification task with a practice and an experimental phase","yes","NAP-FC_GER_AA_ver-2.osexp","/Users/aviadalbert/Documents/Academisch/UoC/Dissertation/Experiment/OpenSesame/NAP-FC/NAP-FC_GER_AA/GER_AA_ver-2","yes","no","sans","no","20","no","black","no","Next","yes","768","legacy","54","9","0","/Users/aviadalbert/Documents/Academisch/UoC/Dissertation/Experiment/OpenSesame/NAP-FC/NAP-FC_GER_AA/GER_AA_ver-2/subject-5.csv","xpyriment","Jazzy James","3.1.6","yes","yes","5950408a6c613b0229e3e810","59504237594d9002288b1720","no","no","0","f","j","space","NA","space","space","f","1519","1302","11058","NA","5244","4089","1519","2","legacy","1024","1","44100","-16","experiment","ftal","22","Darmstadt","1","0","1","deutsch","englisch, spanisch, franzoesich","5","odd","Koeln","7207784","7196418","NA","7209087","7207780","NA","7023725","7207542","7023725","7023725","7146227","7151475","7363039","7361535","7364560","7166070","7155848","7196418","7040008","7133673","7194750","7155628","7207783","7155853","NA","7363038","7363038","NA","NA","7361531","NAP perception","35","57363","55","yes","1024"
