"acc","accept_status","accuracy","average_response_time","avg_rt","background","bidi","canvas_backend","checkbox_status","clock_backend","color_backend","compensation","coordinates","correct","correct_block_activation","correct_block_exit","correct_instructions_1","correct_instructions_2","correct_keyboard_response","correct_response","count_block_activation","count_block_exit","count_block_info_QA","count_e_block_loop","count_e_block_sequence","count_end_of_experiment","count_experiment","count_experimental_loop","count_form_consent","count_info_forms","count_instructions_1","count_instructions_2","count_keyboard_response","count_listen_message","count_logger","count_p_block_loop","count_p_block_sequence","count_p_feedback","count_personal_details_form_1","count_personal_details_form_2","count_post_loop_blank","count_practice_loop","count_pre_e_block_message","count_pre_p_block_message","count_reset_feedback","count_stimulus_image","count_stimulus_sound","count_timeout_message","count_timeout_sound","count_trial_sequence","datetime","description","disable_garbage_collection","experiment_file","experiment_path","expyriment_opengl","font_bold","font_family","font_italic","font_size","font_underline","foreground","form_clicks","form_response","fullscreen","height","keyboard_backend","live_row","live_row_p_block_loop","live_row_practice_loop","logfile","mouse_backend","opensesame_codename","opensesame_version","osf_always_upload_data","osf_always_upload_experiment","osf_datanode_id","osf_id","practice","pygame_doublebuf","repeat_cycle","response","response_block_activation","response_block_exit","response_block_info_QA","response_instructions_1","response_instructions_2","response_keyboard_response","response_time","response_time_block_activation","response_time_block_exit","response_time_block_info_QA","response_time_instructions_1","response_time_instructions_2","response_time_keyboard_response","round_decimals","sampler_backend","sound_buf_size","sound_channels","sound_freq","sound_sample_size","start","stimulus","subject_age","subject_birth","subject_education","subject_gender","subject_handedness","subject_language_native","subject_language_other","subject_nr","subject_parity","subject_residence","time_block_activation","time_block_exit","time_block_info_QA","time_e_block_loop","time_e_block_sequence","time_end_of_experiment","time_experiment","time_experimental_loop","time_form_consent","time_info_forms","time_instructions_1","time_instructions_2","time_keyboard_response","time_listen_message","time_logger","time_p_block_loop","time_p_block_sequence","time_p_feedback","time_personal_details_form_1","time_personal_details_form_2","time_post_loop_blank","time_practice_loop","time_pre_e_block_message","time_pre_p_block_message","time_reset_feedback","time_stimulus_image","time_stimulus_sound","time_timeout_message","time_timeout_sound","time_trial_sequence","title","total_correct","total_response_time","total_responses","uniform_coordinates","width"
"100","yes","100","1413","1413","white","no","xpyriment","I have read and understood the information shown above","legacy","legacy","0","uniform","1","0","NA","undefined","undefined","1","f","0","0","NA","NA","NA","NA","0","0","0","0","0","0","0","0","0","0","0","NA","0","0","0","0","NA","0","0","0","0","0","0","0","Wed Jun 28 15:18:15 2017","Forced-choice identification task with a practice and an experimental phase","yes","NAP-FC_GER_AA_ver-1.osexp","/Users/aviadalbert/Documents/Academisch/UoC/Dissertation/Experiment/OpenSesame/NAP-FC/NAP-FC_GER_AA/GER_AA_ver-1","yes","no","sans","no","20","no","black","no","Next","yes","768","legacy","0","0","0","/Users/aviadalbert/Documents/Academisch/UoC/Dissertation/Experiment/OpenSesame/NAP-FC/NAP-FC_GER_AA/GER_AA_ver-1/subject-3.csv","xpyriment","Jazzy James","3.1.6","yes","yes","59504085b83f69022b47a751","595041f76c613b022ae3ecdb","yes","no","0","f","f","NA","NA","space","space","f","1413","16609","NA","NA","28294","38806","1413","2","legacy","1024","1","44100","-16","experiment","flal","28","Ulm","2","0","1","German","English, French","3","odd","Cologne","963956","NA","NA","NA","NA","NA","684051","NA","684051","684051","896572","924871","982278","980774","983692","980566","963952","NA","807894","875011","NA","963738","NA","963956","NA","982278","982278","NA","NA","980771","NAP perception","1","1413","1","yes","1024"
"100","yes","100","1184.5","1184.5","white","no","xpyriment","I have read and understood the information shown above","legacy","legacy","0","uniform","1","0","NA","undefined","undefined","1","j","0","0","NA","NA","NA","NA","0","0","0","0","0","0","1","1","1","0","0","NA","0","0","0","0","NA","0","0","1","1","1","1","1","Wed Jun 28 15:18:15 2017","Forced-choice identification task with a practice and an experimental phase","yes","NAP-FC_GER_AA_ver-1.osexp","/Users/aviadalbert/Documents/Academisch/UoC/Dissertation/Experiment/OpenSesame/NAP-FC/NAP-FC_GER_AA/GER_AA_ver-1","yes","no","sans","no","20","no","black","no","Next","yes","768","legacy","1","1","0","/Users/aviadalbert/Documents/Academisch/UoC/Dissertation/Experiment/OpenSesame/NAP-FC/NAP-FC_GER_AA/GER_AA_ver-1/subject-3.csv","xpyriment","Jazzy James","3.1.6","yes","yes","59504085b83f69022b47a751","595041f76c613b022ae3ecdb","yes","no","0","j","f","NA","NA","space","space","j","956","16609","NA","NA","28294","38806","956","2","legacy","1024","1","44100","-16","experiment","lepal","28","Ulm","2","0","1","German","English, French","3","odd","Cologne","963956","NA","NA","NA","NA","NA","684051","NA","684051","684051","896572","924871","985469","983963","986426","980566","963952","NA","807894","875011","NA","963738","NA","963956","NA","985468","985468","NA","NA","983958","NAP perception","2","2369","2","yes","1024"
"100","yes","100","1132.33333333","1132.33333333","white","no","xpyriment","I have read and understood the information shown above","legacy","legacy","0","uniform","1","0","NA","undefined","undefined","1","j","0","0","NA","NA","NA","NA","0","0","0","0","0","0","2","2","2","0","0","NA","0","0","0","0","NA","0","0","2","2","2","2","2","Wed Jun 28 15:18:15 2017","Forced-choice identification task with a practice and an experimental phase","yes","NAP-FC_GER_AA_ver-1.osexp","/Users/aviadalbert/Documents/Academisch/UoC/Dissertation/Experiment/OpenSesame/NAP-FC/NAP-FC_GER_AA/GER_AA_ver-1","yes","no","sans","no","20","no","black","no","Next","yes","768","legacy","2","2","0","/Users/aviadalbert/Documents/Academisch/UoC/Dissertation/Experiment/OpenSesame/NAP-FC/NAP-FC_GER_AA/GER_AA_ver-1/subject-3.csv","xpyriment","Jazzy James","3.1.6","yes","yes","59504085b83f69022b47a751","595041f76c613b022ae3ecdb","yes","no","0","j","f","NA","NA","space","space","j","1028","16609","NA","NA","28294","38806","1028","2","legacy","1024","1","44100","-16","experiment","emtal","28","Ulm","2","0","1","German","English, French","3","odd","Cologne","963956","NA","NA","NA","NA","NA","684051","NA","684051","684051","896572","924871","988203","986695","989232","980566","963952","NA","807894","875011","NA","963738","NA","963956","NA","988202","988202","NA","NA","986691","NAP perception","3","3397","3","yes","1024"
"100","yes","100","1075.25","1075.25","white","no","xpyriment","I have read and understood the information shown above","legacy","legacy","0","uniform","1","0","NA","undefined","undefined","1","f","0","0","NA","NA","NA","NA","0","0","0","0","0","0","3","3","3","0","0","NA","0","0","0","0","NA","0","0","3","3","3","3","3","Wed Jun 28 15:18:15 2017","Forced-choice identification task with a practice and an experimental phase","yes","NAP-FC_GER_AA_ver-1.osexp","/Users/aviadalbert/Documents/Academisch/UoC/Dissertation/Experiment/OpenSesame/NAP-FC/NAP-FC_GER_AA/GER_AA_ver-1","yes","no","sans","no","20","no","black","no","Next","yes","768","legacy","3","3","0","/Users/aviadalbert/Documents/Academisch/UoC/Dissertation/Experiment/OpenSesame/NAP-FC/NAP-FC_GER_AA/GER_AA_ver-1/subject-3.csv","xpyriment","Jazzy James","3.1.6","yes","yes","59504085b83f69022b47a751","595041f76c613b022ae3ecdb","yes","no","0","f","f","NA","NA","space","space","f","904","16609","NA","NA","28294","38806","904","2","legacy","1024","1","44100","-16","experiment","ʃpal","28","Ulm","2","0","1","German","English, French","3","odd","Cologne","963956","NA","NA","NA","NA","NA","684051","NA","684051","684051","896572","924871","991019","989513","991924","980566","963952","NA","807894","875011","NA","963738","NA","963956","NA","991019","991019","NA","NA","989509","NAP perception","4","4301","4","yes","1024"
"100","yes","100","1053.2","1053.2","white","no","xpyriment","I have read and understood the information shown above","legacy","legacy","0","uniform","1","0","NA","undefined","undefined","1","j","0","0","NA","NA","NA","NA","0","0","0","0","0","0","4","4","4","0","0","NA","0","0","0","0","NA","0","0","4","4","4","4","4","Wed Jun 28 15:18:15 2017","Forced-choice identification task with a practice and an experimental phase","yes","NAP-FC_GER_AA_ver-1.osexp","/Users/aviadalbert/Documents/Academisch/UoC/Dissertation/Experiment/OpenSesame/NAP-FC/NAP-FC_GER_AA/GER_AA_ver-1","yes","no","sans","no","20","no","black","no","Next","yes","768","legacy","4","4","0","/Users/aviadalbert/Documents/Academisch/UoC/Dissertation/Experiment/OpenSesame/NAP-FC/NAP-FC_GER_AA/GER_AA_ver-1/subject-3.csv","xpyriment","Jazzy James","3.1.6","yes","yes","59504085b83f69022b47a751","595041f76c613b022ae3ecdb","yes","no","0","j","f","NA","NA","space","space","j","965","16609","NA","NA","28294","38806","965","2","legacy","1024","1","44100","-16","experiment","nefal","28","Ulm","2","0","1","German","English, French","3","odd","Cologne","963956","NA","NA","NA","NA","NA","684051","NA","684051","684051","896572","924871","993692","992188","994658","980566","963952","NA","807894","875011","NA","963738","NA","963956","NA","993692","993692","NA","NA","992184","NAP perception","5","5266","5","yes","1024"
"100","yes","100","1114.5","1114.5","white","no","xpyriment","I have read and understood the information shown above","legacy","legacy","0","uniform","1","0","NA","undefined","undefined","1","f","0","0","NA","NA","NA","NA","0","0","0","0","0","0","5","5","5","0","0","NA","0","0","0","0","NA","0","0","5","5","5","5","5","Wed Jun 28 15:18:15 2017","Forced-choice identification task with a practice and an experimental phase","yes","NAP-FC_GER_AA_ver-1.osexp","/Users/aviadalbert/Documents/Academisch/UoC/Dissertation/Experiment/OpenSesame/NAP-FC/NAP-FC_GER_AA/GER_AA_ver-1","yes","no","sans","no","20","no","black","no","Next","yes","768","legacy","5","5","0","/Users/aviadalbert/Documents/Academisch/UoC/Dissertation/Experiment/OpenSesame/NAP-FC/NAP-FC_GER_AA/GER_AA_ver-1/subject-3.csv","xpyriment","Jazzy James","3.1.6","yes","yes","59504085b83f69022b47a751","595041f76c613b022ae3ecdb","yes","no","0","f","f","NA","NA","space","space","f","1421","16609","NA","NA","28294","38806","1421","2","legacy","1024","1","44100","-16","experiment","sfal","28","Ulm","2","0","1","German","English, French","3","odd","Cologne","963956","NA","NA","NA","NA","NA","684051","NA","684051","684051","896572","924871","996432","994928","997854","980566","963952","NA","807894","875011","NA","963738","NA","963956","NA","996432","996432","NA","NA","994924","NAP perception","6","6687","6","yes","1024"
"100","yes","100","1279.14285714","1279.14285714","white","no","xpyriment","I have read and understood the information shown above","legacy","legacy","0","uniform","1","0","NA","undefined","undefined","1","f","0","0","NA","NA","NA","NA","0","0","0","0","0","0","6","6","6","0","0","NA","0","0","0","0","NA","0","0","6","6","6","6","6","Wed Jun 28 15:18:15 2017","Forced-choice identification task with a practice and an experimental phase","yes","NAP-FC_GER_AA_ver-1.osexp","/Users/aviadalbert/Documents/Academisch/UoC/Dissertation/Experiment/OpenSesame/NAP-FC/NAP-FC_GER_AA/GER_AA_ver-1","yes","no","sans","no","20","no","black","no","Next","yes","768","legacy","6","6","0","/Users/aviadalbert/Documents/Academisch/UoC/Dissertation/Experiment/OpenSesame/NAP-FC/NAP-FC_GER_AA/GER_AA_ver-1/subject-3.csv","xpyriment","Jazzy James","3.1.6","yes","yes","59504085b83f69022b47a751","595041f76c613b022ae3ecdb","yes","no","0","f","f","NA","NA","space","space","f","2267","16609","NA","NA","28294","38806","2267","2","legacy","1024","1","44100","-16","experiment","zmal","28","Ulm","2","0","1","German","English, French","3","odd","Cologne","963956","NA","NA","NA","NA","NA","684051","NA","684051","684051","896572","924871","999633","998129","1001901","980566","963952","NA","807894","875011","NA","963738","NA","963956","NA","999633","999633","NA","NA","998125","NAP perception","7","8954","7","yes","1024"
"100","yes","100","1290.625","1290.625","white","no","xpyriment","I have read and understood the information shown above","legacy","legacy","0","uniform","1","0","NA","undefined","undefined","1","j","0","0","NA","NA","NA","NA","0","0","0","0","0","0","7","7","7","0","0","NA","0","0","0","0","NA","0","0","7","7","7","7","7","Wed Jun 28 15:18:15 2017","Forced-choice identification task with a practice and an experimental phase","yes","NAP-FC_GER_AA_ver-1.osexp","/Users/aviadalbert/Documents/Academisch/UoC/Dissertation/Experiment/OpenSesame/NAP-FC/NAP-FC_GER_AA/GER_AA_ver-1","yes","no","sans","no","20","no","black","no","Next","yes","768","legacy","7","7","0","/Users/aviadalbert/Documents/Academisch/UoC/Dissertation/Experiment/OpenSesame/NAP-FC/NAP-FC_GER_AA/GER_AA_ver-1/subject-3.csv","xpyriment","Jazzy James","3.1.6","yes","yes","59504085b83f69022b47a751","595041f76c613b022ae3ecdb","yes","no","0","j","f","NA","NA","space","space","j","1371","16609","NA","NA","28294","38806","1371","2","legacy","1024","1","44100","-16","experiment","jeval","28","Ulm","2","0","1","German","English, French","3","odd","Cologne","963956","NA","NA","NA","NA","NA","684051","NA","684051","684051","896572","924871","1003678","1002175","1005051","980566","963952","NA","807894","875011","NA","963738","NA","963956","NA","1003678","1003678","NA","NA","1002171","NAP perception","8","10325","8","yes","1024"
"100","yes","100","1299.55555556","1299.55555556","white","no","xpyriment","I have read and understood the information shown above","legacy","legacy","0","uniform","1","0","NA","undefined","undefined","1","j","0","0","NA","NA","NA","NA","0","0","0","0","0","0","8","8","8","0","0","NA","0","0","0","0","NA","0","0","8","8","8","8","8","Wed Jun 28 15:18:15 2017","Forced-choice identification task with a practice and an experimental phase","yes","NAP-FC_GER_AA_ver-1.osexp","/Users/aviadalbert/Documents/Academisch/UoC/Dissertation/Experiment/OpenSesame/NAP-FC/NAP-FC_GER_AA/GER_AA_ver-1","yes","no","sans","no","20","no","black","no","Next","yes","768","legacy","8","8","0","/Users/aviadalbert/Documents/Academisch/UoC/Dissertation/Experiment/OpenSesame/NAP-FC/NAP-FC_GER_AA/GER_AA_ver-1/subject-3.csv","xpyriment","Jazzy James","3.1.6","yes","yes","59504085b83f69022b47a751","595041f76c613b022ae3ecdb","yes","no","0","j","f","NA","NA","space","space","j","1371","16609","NA","NA","28294","38806","1371","2","legacy","1024","1","44100","-16","experiment","enval","28","Ulm","2","0","1","German","English, French","3","odd","Cologne","963956","NA","NA","NA","NA","NA","684051","NA","684051","684051","896572","924871","1006830","1005324","1008203","980566","963952","NA","807894","875011","NA","963738","NA","963956","NA","1006830","1006830","NA","NA","1005320","NAP perception","9","11696","9","yes","1024"
"100","yes","100","1331.9","1331.9","white","no","xpyriment","I have read and understood the information shown above","legacy","legacy","0","uniform","1","0","NA","undefined","undefined","1","f","0","0","NA","NA","NA","NA","0","0","0","0","0","0","9","9","9","0","0","NA","0","0","0","0","NA","0","0","9","9","9","9","9","Wed Jun 28 15:18:15 2017","Forced-choice identification task with a practice and an experimental phase","yes","NAP-FC_GER_AA_ver-1.osexp","/Users/aviadalbert/Documents/Academisch/UoC/Dissertation/Experiment/OpenSesame/NAP-FC/NAP-FC_GER_AA/GER_AA_ver-1","yes","no","sans","no","20","no","black","no","Next","yes","768","legacy","9","9","0","/Users/aviadalbert/Documents/Academisch/UoC/Dissertation/Experiment/OpenSesame/NAP-FC/NAP-FC_GER_AA/GER_AA_ver-1/subject-3.csv","xpyriment","Jazzy James","3.1.6","yes","yes","59504085b83f69022b47a751","595041f76c613b022ae3ecdb","yes","no","0","f","f","NA","NA","space","space","f","1623","16609","NA","NA","28294","38806","1623","2","legacy","1024","1","44100","-16","experiment","vlal","28","Ulm","2","0","1","German","English, French","3","odd","Cologne","963956","NA","NA","NA","NA","NA","684051","NA","684051","684051","896572","924871","1009977","1008472","1011601","980566","963952","NA","807894","875011","NA","963738","NA","963956","NA","1009977","1009977","NA","NA","1008468","NAP perception","10","13319","10","yes","1024"
"0","yes","0","1814","1814","white","no","xpyriment","I have read and understood the information shown above","legacy","legacy","0","uniform","0","0","0","undefined","undefined","0","f","1","0","NA","0","0","0","0","0","0","0","0","0","10","10","10","0","0","0","0","0","1","0","0","0","1","10","10","10","10","10","Wed Jun 28 15:18:15 2017","Forced-choice identification task with a practice and an experimental phase","yes","NAP-FC_GER_AA_ver-1.osexp","/Users/aviadalbert/Documents/Academisch/UoC/Dissertation/Experiment/OpenSesame/NAP-FC/NAP-FC_GER_AA/GER_AA_ver-1","yes","no","sans","no","20","no","black","no","Next","yes","768","legacy","0","9","0","/Users/aviadalbert/Documents/Academisch/UoC/Dissertation/Experiment/OpenSesame/NAP-FC/NAP-FC_GER_AA/GER_AA_ver-1/subject-3.csv","xpyriment","Jazzy James","3.1.6","yes","yes","59504085b83f69022b47a751","595041f76c613b022ae3ecdb","no","no","0","j","f","space","NA","space","space","j","1814","4340","18774","NA","28294","38806","1814","2","legacy","1024","1","44100","-16","experiment","nmal","28","Ulm","2","0","1","German","English, French","3","odd","Cologne","1032394","1013335","NA","1036735","1032390","NA","684051","1032167","684051","684051","896572","924871","1038459","1036956","1040274","980566","963952","1013334","807894","875011","1011667","963738","1032394","963956","NA","1038459","1038459","NA","NA","1036952","NAP perception","0","1814","1","yes","1024"
"0","yes","0","1889.5","1889.5","white","no","xpyriment","I have read and understood the information shown above","legacy","legacy","0","uniform","0","0","0","undefined","undefined","0","f","1","0","NA","0","0","0","0","0","0","0","0","0","11","11","11","0","0","0","0","0","1","0","0","0","1","11","11","11","11","11","Wed Jun 28 15:18:15 2017","Forced-choice identification task with a practice and an experimental phase","yes","NAP-FC_GER_AA_ver-1.osexp","/Users/aviadalbert/Documents/Academisch/UoC/Dissertation/Experiment/OpenSesame/NAP-FC/NAP-FC_GER_AA/GER_AA_ver-1","yes","no","sans","no","20","no","black","no","Next","yes","768","legacy","1","9","0","/Users/aviadalbert/Documents/Academisch/UoC/Dissertation/Experiment/OpenSesame/NAP-FC/NAP-FC_GER_AA/GER_AA_ver-1/subject-3.csv","xpyriment","Jazzy James","3.1.6","yes","yes","59504085b83f69022b47a751","595041f76c613b022ae3ecdb","no","no","0","j","f","space","NA","space","space","j","1965","4340","18774","NA","28294","38806","1965","2","legacy","1024","1","44100","-16","experiment","wlal","28","Ulm","2","0","1","German","English, French","3","odd","Cologne","1032394","1013335","NA","1036735","1032390","NA","684051","1032167","684051","684051","896572","924871","1042035","1040532","1044001","980566","963952","1013334","807894","875011","1011667","963738","1032394","963956","NA","1042035","1042035","NA","NA","1040528","NAP perception","0","3779","2","yes","1024"
"33.3333333333","yes","33.3333333333","1652","1652","white","no","xpyriment","I have read and understood the information shown above","legacy","legacy","0","uniform","1","0","0","undefined","undefined","1","j","1","0","NA","0","0","0","0","0","0","0","0","0","12","12","12","0","0","0","0","0","1","0","0","0","1","12","12","12","12","12","Wed Jun 28 15:18:15 2017","Forced-choice identification task with a practice and an experimental phase","yes","NAP-FC_GER_AA_ver-1.osexp","/Users/aviadalbert/Documents/Academisch/UoC/Dissertation/Experiment/OpenSesame/NAP-FC/NAP-FC_GER_AA/GER_AA_ver-1","yes","no","sans","no","20","no","black","no","Next","yes","768","legacy","2","9","0","/Users/aviadalbert/Documents/Academisch/UoC/Dissertation/Experiment/OpenSesame/NAP-FC/NAP-FC_GER_AA/GER_AA_ver-1/subject-3.csv","xpyriment","Jazzy James","3.1.6","yes","yes","59504085b83f69022b47a751","595041f76c613b022ae3ecdb","no","no","0","j","f","space","NA","space","space","j","1177","4340","18774","NA","28294","38806","1177","2","legacy","1024","1","44100","-16","experiment","zemal","28","Ulm","2","0","1","German","English, French","3","odd","Cologne","1032394","1013335","NA","1036735","1032390","NA","684051","1032167","684051","684051","896572","924871","1045783","1044278","1046961","980566","963952","1013334","807894","875011","1011667","963738","1032394","963956","NA","1045783","1045783","NA","NA","1044274","NAP perception","1","4956","3","yes","1024"
"50","yes","50","1558.5","1558.5","white","no","xpyriment","I have read and understood the information shown above","legacy","legacy","0","uniform","1","0","0","undefined","undefined","1","f","1","0","NA","0","0","0","0","0","0","0","0","0","13","13","13","0","0","0","0","0","1","0","0","0","1","13","13","13","13","13","Wed Jun 28 15:18:15 2017","Forced-choice identification task with a practice and an experimental phase","yes","NAP-FC_GER_AA_ver-1.osexp","/Users/aviadalbert/Documents/Academisch/UoC/Dissertation/Experiment/OpenSesame/NAP-FC/NAP-FC_GER_AA/GER_AA_ver-1","yes","no","sans","no","20","no","black","no","Next","yes","768","legacy","3","9","0","/Users/aviadalbert/Documents/Academisch/UoC/Dissertation/Experiment/OpenSesame/NAP-FC/NAP-FC_GER_AA/GER_AA_ver-1/subject-3.csv","xpyriment","Jazzy James","3.1.6","yes","yes","59504085b83f69022b47a751","595041f76c613b022ae3ecdb","no","no","0","f","f","space","NA","space","space","f","1278","4340","18774","NA","28294","38806","1278","2","legacy","1024","1","44100","-16","experiment","fsal","28","Ulm","2","0","1","German","English, French","3","odd","Cologne","1032394","1013335","NA","1036735","1032390","NA","684051","1032167","684051","684051","896572","924871","1048744","1047240","1050023","980566","963952","1013334","807894","875011","1011667","963738","1032394","963956","NA","1048743","1048744","NA","NA","1047236","NAP perception","2","6234","4","yes","1024"
"40","yes","40","1526.2","1526.2","white","no","xpyriment","I have read and understood the information shown above","legacy","legacy","0","uniform","0","0","0","undefined","undefined","0","f","1","0","NA","0","0","0","0","0","0","0","0","0","14","14","14","0","0","0","0","0","1","0","0","0","1","14","14","14","14","14","Wed Jun 28 15:18:15 2017","Forced-choice identification task with a practice and an experimental phase","yes","NAP-FC_GER_AA_ver-1.osexp","/Users/aviadalbert/Documents/Academisch/UoC/Dissertation/Experiment/OpenSesame/NAP-FC/NAP-FC_GER_AA/GER_AA_ver-1","yes","no","sans","no","20","no","black","no","Next","yes","768","legacy","4","9","0","/Users/aviadalbert/Documents/Academisch/UoC/Dissertation/Experiment/OpenSesame/NAP-FC/NAP-FC_GER_AA/GER_AA_ver-1/subject-3.csv","xpyriment","Jazzy James","3.1.6","yes","yes","59504085b83f69022b47a751","595041f76c613b022ae3ecdb","no","no","0","j","f","space","NA","space","space","j","1397","4340","18774","NA","28294","38806","1397","2","legacy","1024","1","44100","-16","experiment","mtal","28","Ulm","2","0","1","German","English, French","3","odd","Cologne","1032394","1013335","NA","1036735","1032390","NA","684051","1032167","684051","684051","896572","924871","1051791","1050287","1053190","980566","963952","1013334","807894","875011","1011667","963738","1032394","963956","NA","1051791","1051791","NA","NA","1050283","NAP perception","2","7631","5","yes","1024"
"50","yes","50","1551.66666667","1551.66666667","white","no","xpyriment","I have read and understood the information shown above","legacy","legacy","0","uniform","1","0","0","undefined","undefined","1","j","1","0","NA","0","0","0","0","0","0","0","0","0","15","15","15","0","0","0","0","0","1","0","0","0","1","15","15","15","15","15","Wed Jun 28 15:18:15 2017","Forced-choice identification task with a practice and an experimental phase","yes","NAP-FC_GER_AA_ver-1.osexp","/Users/aviadalbert/Documents/Academisch/UoC/Dissertation/Experiment/OpenSesame/NAP-FC/NAP-FC_GER_AA/GER_AA_ver-1","yes","no","sans","no","20","no","black","no","Next","yes","768","legacy","5","9","0","/Users/aviadalbert/Documents/Academisch/UoC/Dissertation/Experiment/OpenSesame/NAP-FC/NAP-FC_GER_AA/GER_AA_ver-1/subject-3.csv","xpyriment","Jazzy James","3.1.6","yes","yes","59504085b83f69022b47a751","595041f76c613b022ae3ecdb","no","no","0","j","f","space","NA","space","space","j","1679","4340","18774","NA","28294","38806","1679","2","legacy","1024","1","44100","-16","experiment","velal","28","Ulm","2","0","1","German","English, French","3","odd","Cologne","1032394","1013335","NA","1036735","1032390","NA","684051","1032167","684051","684051","896572","924871","1054971","1053465","1056651","980566","963952","1013334","807894","875011","1011667","963738","1032394","963956","NA","1054971","1054971","NA","NA","1053461","NAP perception","3","9310","6","yes","1024"
"42.8571428571","yes","42.8571428571","1758.57142857","1758.57142857","white","no","xpyriment","I have read and understood the information shown above","legacy","legacy","0","uniform","0","0","0","undefined","undefined","0","j","1","0","NA","0","0","0","0","0","0","0","0","0","16","16","16","0","0","0","0","0","1","0","0","0","1","16","16","16","16","16","Wed Jun 28 15:18:15 2017","Forced-choice identification task with a practice and an experimental phase","yes","NAP-FC_GER_AA_ver-1.osexp","/Users/aviadalbert/Documents/Academisch/UoC/Dissertation/Experiment/OpenSesame/NAP-FC/NAP-FC_GER_AA/GER_AA_ver-1","yes","no","sans","no","20","no","black","no","Next","yes","768","legacy","6","9","0","/Users/aviadalbert/Documents/Academisch/UoC/Dissertation/Experiment/OpenSesame/NAP-FC/NAP-FC_GER_AA/GER_AA_ver-1/subject-3.csv","xpyriment","Jazzy James","3.1.6","yes","yes","59504085b83f69022b47a751","595041f76c613b022ae3ecdb","no","no","0","None","f","space","NA","space","space","None","3000","4340","18774","NA","28294","38806","3000","2","legacy","1024","1","44100","-16","experiment","wenal","28","Ulm","2","0","1","German","English, French","3","odd","Cologne","1032394","1013335","NA","1036735","1032390","NA","684051","1032167","684051","684051","896572","924871","1058420","1056916","1062424","980566","963952","1013334","807894","875011","1011667","963738","1032394","963956","NA","1058419","1058420","1061424","1061420","1056912","NAP perception","3","12310","7","yes","1024"
"50","yes","50","1715.875","1715.875","white","no","xpyriment","I have read and understood the information shown above","legacy","legacy","0","uniform","1","0","0","undefined","undefined","1","f","1","0","NA","0","0","0","0","0","0","0","0","0","17","17","17","0","0","0","0","0","1","0","0","0","1","17","17","17","17","17","Wed Jun 28 15:18:15 2017","Forced-choice identification task with a practice and an experimental phase","yes","NAP-FC_GER_AA_ver-1.osexp","/Users/aviadalbert/Documents/Academisch/UoC/Dissertation/Experiment/OpenSesame/NAP-FC/NAP-FC_GER_AA/GER_AA_ver-1","yes","no","sans","no","20","no","black","no","Next","yes","768","legacy","7","9","0","/Users/aviadalbert/Documents/Academisch/UoC/Dissertation/Experiment/OpenSesame/NAP-FC/NAP-FC_GER_AA/GER_AA_ver-1/subject-3.csv","xpyriment","Jazzy James","3.1.6","yes","yes","59504085b83f69022b47a751","595041f76c613b022ae3ecdb","no","no","0","f","f","space","NA","space","space","f","1417","4340","18774","NA","28294","38806","1417","2","legacy","1024","1","44100","-16","experiment","ʃpal","28","Ulm","2","0","1","German","English, French","3","odd","Cologne","1032394","1013335","NA","1036735","1032390","NA","684051","1032167","684051","684051","896572","924871","1064207","1062699","1065625","980566","963952","1013334","807894","875011","1011667","963738","1032394","963956","NA","1064206","1064206","1061424","1061420","1062694","NAP perception","4","13727","8","yes","1024"
"55.5555555556","yes","55.5555555556","1691.11111111","1691.11111111","white","no","xpyriment","I have read and understood the information shown above","legacy","legacy","0","uniform","1","0","0","undefined","undefined","1","f","1","0","NA","0","0","0","0","0","0","0","0","0","18","18","18","0","0","0","0","0","1","0","0","0","1","18","18","18","18","18","Wed Jun 28 15:18:15 2017","Forced-choice identification task with a practice and an experimental phase","yes","NAP-FC_GER_AA_ver-1.osexp","/Users/aviadalbert/Documents/Academisch/UoC/Dissertation/Experiment/OpenSesame/NAP-FC/NAP-FC_GER_AA/GER_AA_ver-1","yes","no","sans","no","20","no","black","no","Next","yes","768","legacy","8","9","0","/Users/aviadalbert/Documents/Academisch/UoC/Dissertation/Experiment/OpenSesame/NAP-FC/NAP-FC_GER_AA/GER_AA_ver-1/subject-3.csv","xpyriment","Jazzy James","3.1.6","yes","yes","59504085b83f69022b47a751","595041f76c613b022ae3ecdb","no","no","0","f","f","space","NA","space","space","f","1493","4340","18774","NA","28294","38806","1493","2","legacy","1024","1","44100","-16","experiment","zval","28","Ulm","2","0","1","German","English, French","3","odd","Cologne","1032394","1013335","NA","1036735","1032390","NA","684051","1032167","684051","684051","896572","924871","1067404","1065901","1068898","980566","963952","1013334","807894","875011","1011667","963738","1032394","963956","NA","1067404","1067404","1061424","1061420","1065897","NAP perception","5","15220","9","yes","1024"
"60","yes","60","1621.7","1621.7","white","no","xpyriment","I have read and understood the information shown above","legacy","legacy","0","uniform","1","0","0","undefined","undefined","1","j","1","0","NA","0","0","0","0","0","0","0","0","0","19","19","19","0","0","0","0","0","1","0","0","0","1","19","19","19","19","19","Wed Jun 28 15:18:15 2017","Forced-choice identification task with a practice and an experimental phase","yes","NAP-FC_GER_AA_ver-1.osexp","/Users/aviadalbert/Documents/Academisch/UoC/Dissertation/Experiment/OpenSesame/NAP-FC/NAP-FC_GER_AA/GER_AA_ver-1","yes","no","sans","no","20","no","black","no","Next","yes","768","legacy","9","9","0","/Users/aviadalbert/Documents/Academisch/UoC/Dissertation/Experiment/OpenSesame/NAP-FC/NAP-FC_GER_AA/GER_AA_ver-1/subject-3.csv","xpyriment","Jazzy James","3.1.6","yes","yes","59504085b83f69022b47a751","595041f76c613b022ae3ecdb","no","no","0","j","f","space","NA","space","space","j","997","4340","18774","NA","28294","38806","997","2","legacy","1024","1","44100","-16","experiment","lepal","28","Ulm","2","0","1","German","English, French","3","odd","Cologne","1032394","1013335","NA","1036735","1032390","NA","684051","1032167","684051","684051","896572","924871","1070677","1069170","1071676","980566","963952","1013334","807894","875011","1011667","963738","1032394","963956","NA","1070677","1070677","1061424","1061420","1069166","NAP perception","6","16217","10","yes","1024"
"63.6363636364","yes","63.6363636364","1574.54545455","1574.54545455","white","no","xpyriment","I have read and understood the information shown above","legacy","legacy","0","uniform","1","0","0","undefined","undefined","1","f","1","0","NA","0","0","0","0","0","0","0","0","0","20","20","20","0","0","0","0","0","1","0","0","0","1","20","20","20","20","20","Wed Jun 28 15:18:15 2017","Forced-choice identification task with a practice and an experimental phase","yes","NAP-FC_GER_AA_ver-1.osexp","/Users/aviadalbert/Documents/Academisch/UoC/Dissertation/Experiment/OpenSesame/NAP-FC/NAP-FC_GER_AA/GER_AA_ver-1","yes","no","sans","no","20","no","black","no","Next","yes","768","legacy","10","9","0","/Users/aviadalbert/Documents/Academisch/UoC/Dissertation/Experiment/OpenSesame/NAP-FC/NAP-FC_GER_AA/GER_AA_ver-1/subject-3.csv","xpyriment","Jazzy James","3.1.6","yes","yes","59504085b83f69022b47a751","595041f76c613b022ae3ecdb","no","no","0","f","f","space","NA","space","space","f","1103","4340","18774","NA","28294","38806","1103","2","legacy","1024","1","44100","-16","experiment","flal","28","Ulm","2","0","1","German","English, French","3","odd","Cologne","1032394","1013335","NA","1036735","1032390","NA","684051","1032167","684051","684051","896572","924871","1073463","1071959","1074567","980566","963952","1013334","807894","875011","1011667","963738","1032394","963956","NA","1073463","1073463","1061424","1061420","1071955","NAP perception","7","17320","11","yes","1024"
"66.6666666667","yes","66.6666666667","1548.16666667","1548.16666667","white","no","xpyriment","I have read and understood the information shown above","legacy","legacy","0","uniform","1","0","0","undefined","undefined","1","j","1","0","NA","0","0","0","0","0","0","0","0","0","21","21","21","0","0","0","0","0","1","0","0","0","1","21","21","21","21","21","Wed Jun 28 15:18:15 2017","Forced-choice identification task with a practice and an experimental phase","yes","NAP-FC_GER_AA_ver-1.osexp","/Users/aviadalbert/Documents/Academisch/UoC/Dissertation/Experiment/OpenSesame/NAP-FC/NAP-FC_GER_AA/GER_AA_ver-1","yes","no","sans","no","20","no","black","no","Next","yes","768","legacy","11","9","0","/Users/aviadalbert/Documents/Academisch/UoC/Dissertation/Experiment/OpenSesame/NAP-FC/NAP-FC_GER_AA/GER_AA_ver-1/subject-3.csv","xpyriment","Jazzy James","3.1.6","yes","yes","59504085b83f69022b47a751","595041f76c613b022ae3ecdb","no","no","0","j","f","space","NA","space","space","j","1258","4340","18774","NA","28294","38806","1258","2","legacy","1024","1","44100","-16","experiment","evnal","28","Ulm","2","0","1","German","English, French","3","odd","Cologne","1032394","1013335","NA","1036735","1032390","NA","684051","1032167","684051","684051","896572","924871","1076335","1074832","1077595","980566","963952","1013334","807894","875011","1011667","963738","1032394","963956","NA","1076335","1076335","1061424","1061420","1074828","NAP perception","8","18578","12","yes","1024"
"69.2307692308","yes","69.2307692308","1554.30769231","1554.30769231","white","no","xpyriment","I have read and understood the information shown above","legacy","legacy","0","uniform","1","0","0","undefined","undefined","1","j","1","0","NA","0","0","0","0","0","0","0","0","0","22","22","22","0","0","0","0","0","1","0","0","0","1","22","22","22","22","22","Wed Jun 28 15:18:15 2017","Forced-choice identification task with a practice and an experimental phase","yes","NAP-FC_GER_AA_ver-1.osexp","/Users/aviadalbert/Documents/Academisch/UoC/Dissertation/Experiment/OpenSesame/NAP-FC/NAP-FC_GER_AA/GER_AA_ver-1","yes","no","sans","no","20","no","black","no","Next","yes","768","legacy","12","9","0","/Users/aviadalbert/Documents/Academisch/UoC/Dissertation/Experiment/OpenSesame/NAP-FC/NAP-FC_GER_AA/GER_AA_ver-1/subject-3.csv","xpyriment","Jazzy James","3.1.6","yes","yes","59504085b83f69022b47a751","595041f76c613b022ae3ecdb","no","no","0","j","f","space","NA","space","space","j","1628","4340","18774","NA","28294","38806","1628","2","legacy","1024","1","44100","-16","experiment","jeval","28","Ulm","2","0","1","German","English, French","3","odd","Cologne","1032394","1013335","NA","1036735","1032390","NA","684051","1032167","684051","684051","896572","924871","1079385","1077882","1081014","980566","963952","1013334","807894","875011","1011667","963738","1032394","963956","NA","1079385","1079385","1061424","1061420","1077878","NAP perception","9","20206","13","yes","1024"
"64.2857142857","yes","64.2857142857","1561.64285714","1561.64285714","white","no","xpyriment","I have read and understood the information shown above","legacy","legacy","0","uniform","0","0","0","undefined","undefined","0","j","1","0","NA","0","0","0","0","0","0","0","0","0","23","23","23","0","0","0","0","0","1","0","0","0","1","23","23","23","23","23","Wed Jun 28 15:18:15 2017","Forced-choice identification task with a practice and an experimental phase","yes","NAP-FC_GER_AA_ver-1.osexp","/Users/aviadalbert/Documents/Academisch/UoC/Dissertation/Experiment/OpenSesame/NAP-FC/NAP-FC_GER_AA/GER_AA_ver-1","yes","no","sans","no","20","no","black","no","Next","yes","768","legacy","13","9","0","/Users/aviadalbert/Documents/Academisch/UoC/Dissertation/Experiment/OpenSesame/NAP-FC/NAP-FC_GER_AA/GER_AA_ver-1/subject-3.csv","xpyriment","Jazzy James","3.1.6","yes","yes","59504085b83f69022b47a751","595041f76c613b022ae3ecdb","no","no","0","f","f","space","NA","space","space","f","1657","4340","18774","NA","28294","38806","1657","2","legacy","1024","1","44100","-16","experiment","semal","28","Ulm","2","0","1","German","English, French","3","odd","Cologne","1032394","1013335","NA","1036735","1032390","NA","684051","1032167","684051","684051","896572","924871","1082796","1081292","1084454","980566","963952","1013334","807894","875011","1011667","963738","1032394","963956","NA","1082796","1082796","1061424","1061420","1081288","NAP perception","9","21863","14","yes","1024"
"66.6666666667","yes","66.6666666667","1549.06666667","1549.06666667","white","no","xpyriment","I have read and understood the information shown above","legacy","legacy","0","uniform","1","0","0","undefined","undefined","1","f","1","0","NA","0","0","0","0","0","0","0","0","0","24","24","24","0","0","0","0","0","1","0","0","0","1","24","24","24","24","24","Wed Jun 28 15:18:15 2017","Forced-choice identification task with a practice and an experimental phase","yes","NAP-FC_GER_AA_ver-1.osexp","/Users/aviadalbert/Documents/Academisch/UoC/Dissertation/Experiment/OpenSesame/NAP-FC/NAP-FC_GER_AA/GER_AA_ver-1","yes","no","sans","no","20","no","black","no","Next","yes","768","legacy","14","9","0","/Users/aviadalbert/Documents/Academisch/UoC/Dissertation/Experiment/OpenSesame/NAP-FC/NAP-FC_GER_AA/GER_AA_ver-1/subject-3.csv","xpyriment","Jazzy James","3.1.6","yes","yes","59504085b83f69022b47a751","595041f76c613b022ae3ecdb","no","no","0","f","f","space","NA","space","space","f","1373","4340","18774","NA","28294","38806","1373","2","legacy","1024","1","44100","-16","experiment","fnal","28","Ulm","2","0","1","German","English, French","3","odd","Cologne","1032394","1013335","NA","1036735","1032390","NA","684051","1032167","684051","684051","896572","924871","1086245","1084742","1087619","980566","963952","1013334","807894","875011","1011667","963738","1032394","963956","NA","1086245","1086245","1061424","1061420","1084738","NAP perception","10","23236","15","yes","1024"
"62.5","yes","62.5","1517.1875","1517.1875","white","no","xpyriment","I have read and understood the information shown above","legacy","legacy","0","uniform","0","0","0","undefined","undefined","0","f","1","0","NA","0","0","0","0","0","0","0","0","0","25","25","25","0","0","0","0","0","1","0","0","0","1","25","25","25","25","25","Wed Jun 28 15:18:15 2017","Forced-choice identification task with a practice and an experimental phase","yes","NAP-FC_GER_AA_ver-1.osexp","/Users/aviadalbert/Documents/Academisch/UoC/Dissertation/Experiment/OpenSesame/NAP-FC/NAP-FC_GER_AA/GER_AA_ver-1","yes","no","sans","no","20","no","black","no","Next","yes","768","legacy","15","9","0","/Users/aviadalbert/Documents/Academisch/UoC/Dissertation/Experiment/OpenSesame/NAP-FC/NAP-FC_GER_AA/GER_AA_ver-1/subject-3.csv","xpyriment","Jazzy James","3.1.6","yes","yes","59504085b83f69022b47a751","595041f76c613b022ae3ecdb","no","no","0","j","f","space","NA","space","space","j","1039","4340","18774","NA","28294","38806","1039","2","legacy","1024","1","44100","-16","experiment","jval","28","Ulm","2","0","1","German","English, French","3","odd","Cologne","1032394","1013335","NA","1036735","1032390","NA","684051","1032167","684051","684051","896572","924871","1089391","1087886","1090432","980566","963952","1013334","807894","875011","1011667","963738","1032394","963956","NA","1089390","1089390","1061424","1061420","1087883","NAP perception","10","24275","16","yes","1024"
"58.8235294118","yes","58.8235294118","1554.29411765","1554.29411765","white","no","xpyriment","I have read and understood the information shown above","legacy","legacy","0","uniform","0","0","0","undefined","undefined","0","f","1","0","NA","0","0","0","0","0","0","0","0","0","26","26","26","0","0","0","0","0","1","0","0","0","1","26","26","26","26","26","Wed Jun 28 15:18:15 2017","Forced-choice identification task with a practice and an experimental phase","yes","NAP-FC_GER_AA_ver-1.osexp","/Users/aviadalbert/Documents/Academisch/UoC/Dissertation/Experiment/OpenSesame/NAP-FC/NAP-FC_GER_AA/GER_AA_ver-1","yes","no","sans","no","20","no","black","no","Next","yes","768","legacy","16","9","0","/Users/aviadalbert/Documents/Academisch/UoC/Dissertation/Experiment/OpenSesame/NAP-FC/NAP-FC_GER_AA/GER_AA_ver-1/subject-3.csv","xpyriment","Jazzy James","3.1.6","yes","yes","59504085b83f69022b47a751","595041f76c613b022ae3ecdb","no","no","0","j","f","space","NA","space","space","j","2148","4340","18774","NA","28294","38806","2148","2","legacy","1024","1","44100","-16","experiment","nval","28","Ulm","2","0","1","German","English, French","3","odd","Cologne","1032394","1013335","NA","1036735","1032390","NA","684051","1032167","684051","684051","896572","924871","1092191","1090688","1094340","980566","963952","1013334","807894","875011","1011667","963738","1032394","963956","NA","1092191","1092191","1061424","1061420","1090684","NAP perception","10","26423","17","yes","1024"
"61.1111111111","yes","61.1111111111","1578.11111111","1578.11111111","white","no","xpyriment","I have read and understood the information shown above","legacy","legacy","0","uniform","1","0","0","undefined","undefined","1","j","1","0","NA","0","0","0","0","0","0","0","0","0","27","27","27","0","0","0","0","0","1","0","0","0","1","27","27","27","27","27","Wed Jun 28 15:18:15 2017","Forced-choice identification task with a practice and an experimental phase","yes","NAP-FC_GER_AA_ver-1.osexp","/Users/aviadalbert/Documents/Academisch/UoC/Dissertation/Experiment/OpenSesame/NAP-FC/NAP-FC_GER_AA/GER_AA_ver-1","yes","no","sans","no","20","no","black","no","Next","yes","768","legacy","17","9","0","/Users/aviadalbert/Documents/Academisch/UoC/Dissertation/Experiment/OpenSesame/NAP-FC/NAP-FC_GER_AA/GER_AA_ver-1/subject-3.csv","xpyriment","Jazzy James","3.1.6","yes","yes","59504085b83f69022b47a751","595041f76c613b022ae3ecdb","no","no","0","j","f","space","NA","space","space","j","1983","4340","18774","NA","28294","38806","1983","2","legacy","1024","1","44100","-16","experiment","fesal","28","Ulm","2","0","1","German","English, French","3","odd","Cologne","1032394","1013335","NA","1036735","1032390","NA","684051","1032167","684051","684051","896572","924871","1096117","1094613","1098102","980566","963952","1013334","807894","875011","1011667","963738","1032394","963956","NA","1096117","1096117","1061424","1061420","1094608","NAP perception","11","28406","18","yes","1024"
"63.1578947368","yes","63.1578947368","1609.73684211","1609.73684211","white","no","xpyriment","I have read and understood the information shown above","legacy","legacy","0","uniform","1","0","0","undefined","undefined","1","f","1","0","NA","0","0","0","0","0","0","0","0","0","28","28","28","0","0","0","0","0","1","0","0","0","1","28","28","28","28","28","Wed Jun 28 15:18:15 2017","Forced-choice identification task with a practice and an experimental phase","yes","NAP-FC_GER_AA_ver-1.osexp","/Users/aviadalbert/Documents/Academisch/UoC/Dissertation/Experiment/OpenSesame/NAP-FC/NAP-FC_GER_AA/GER_AA_ver-1","yes","no","sans","no","20","no","black","no","Next","yes","768","legacy","18","9","0","/Users/aviadalbert/Documents/Academisch/UoC/Dissertation/Experiment/OpenSesame/NAP-FC/NAP-FC_GER_AA/GER_AA_ver-1/subject-3.csv","xpyriment","Jazzy James","3.1.6","yes","yes","59504085b83f69022b47a751","595041f76c613b022ae3ecdb","no","no","0","f","f","space","NA","space","space","f","2179","4340","18774","NA","28294","38806","2179","2","legacy","1024","1","44100","-16","experiment","mnal","28","Ulm","2","0","1","German","English, French","3","odd","Cologne","1032394","1013335","NA","1036735","1032390","NA","684051","1032167","684051","684051","896572","924871","1099875","1098372","1102056","980566","963952","1013334","807894","875011","1011667","963738","1032394","963956","NA","1099875","1099875","1061424","1061420","1098368","NAP perception","12","30585","19","yes","1024"
"65","yes","65","1595.35","1595.35","white","no","xpyriment","I have read and understood the information shown above","legacy","legacy","0","uniform","1","0","0","undefined","undefined","1","j","1","0","NA","0","0","0","0","0","0","0","0","0","29","29","29","0","0","0","0","0","1","0","0","0","1","29","29","29","29","29","Wed Jun 28 15:18:15 2017","Forced-choice identification task with a practice and an experimental phase","yes","NAP-FC_GER_AA_ver-1.osexp","/Users/aviadalbert/Documents/Academisch/UoC/Dissertation/Experiment/OpenSesame/NAP-FC/NAP-FC_GER_AA/GER_AA_ver-1","yes","no","sans","no","20","no","black","no","Next","yes","768","legacy","19","9","0","/Users/aviadalbert/Documents/Academisch/UoC/Dissertation/Experiment/OpenSesame/NAP-FC/NAP-FC_GER_AA/GER_AA_ver-1/subject-3.csv","xpyriment","Jazzy James","3.1.6","yes","yes","59504085b83f69022b47a751","595041f76c613b022ae3ecdb","no","no","0","j","f","space","NA","space","space","j","1322","4340","18774","NA","28294","38806","1322","2","legacy","1024","1","44100","-16","experiment","vezal","28","Ulm","2","0","1","German","English, French","3","odd","Cologne","1032394","1013335","NA","1036735","1032390","NA","684051","1032167","684051","684051","896572","924871","1103837","1102333","1105161","980566","963952","1013334","807894","875011","1011667","963738","1032394","963956","NA","1103837","1103837","1061424","1061420","1102329","NAP perception","13","31907","20","yes","1024"
"61.9047619048","yes","61.9047619048","1601.04761905","1601.04761905","white","no","xpyriment","I have read and understood the information shown above","legacy","legacy","0","uniform","0","0","0","undefined","undefined","0","f","1","0","NA","0","0","0","0","0","0","0","0","0","30","30","30","0","0","0","0","0","1","0","0","0","1","30","30","30","30","30","Wed Jun 28 15:18:15 2017","Forced-choice identification task with a practice and an experimental phase","yes","NAP-FC_GER_AA_ver-1.osexp","/Users/aviadalbert/Documents/Academisch/UoC/Dissertation/Experiment/OpenSesame/NAP-FC/NAP-FC_GER_AA/GER_AA_ver-1","yes","no","sans","no","20","no","black","no","Next","yes","768","legacy","20","9","0","/Users/aviadalbert/Documents/Academisch/UoC/Dissertation/Experiment/OpenSesame/NAP-FC/NAP-FC_GER_AA/GER_AA_ver-1/subject-3.csv","xpyriment","Jazzy James","3.1.6","yes","yes","59504085b83f69022b47a751","595041f76c613b022ae3ecdb","no","no","0","j","f","space","NA","space","space","j","1715","4340","18774","NA","28294","38806","1715","2","legacy","1024","1","44100","-16","experiment","msal","28","Ulm","2","0","1","German","English, French","3","odd","Cologne","1032394","1013335","NA","1036735","1032390","NA","684051","1032167","684051","684051","896572","924871","1106937","1105433","1108654","980566","963952","1013334","807894","875011","1011667","963738","1032394","963956","NA","1106937","1106937","1061424","1061420","1105429","NAP perception","13","33622","21","yes","1024"
"63.6363636364","yes","63.6363636364","1643.40909091","1643.40909091","white","no","xpyriment","I have read and understood the information shown above","legacy","legacy","0","uniform","1","0","0","undefined","undefined","1","f","1","0","NA","0","0","0","0","0","0","0","0","0","31","31","31","0","0","0","0","0","1","0","0","0","1","31","31","31","31","31","Wed Jun 28 15:18:15 2017","Forced-choice identification task with a practice and an experimental phase","yes","NAP-FC_GER_AA_ver-1.osexp","/Users/aviadalbert/Documents/Academisch/UoC/Dissertation/Experiment/OpenSesame/NAP-FC/NAP-FC_GER_AA/GER_AA_ver-1","yes","no","sans","no","20","no","black","no","Next","yes","768","legacy","21","9","0","/Users/aviadalbert/Documents/Academisch/UoC/Dissertation/Experiment/OpenSesame/NAP-FC/NAP-FC_GER_AA/GER_AA_ver-1/subject-3.csv","xpyriment","Jazzy James","3.1.6","yes","yes","59504085b83f69022b47a751","595041f76c613b022ae3ecdb","no","no","0","f","f","space","NA","space","space","f","2533","4340","18774","NA","28294","38806","2533","2","legacy","1024","1","44100","-16","experiment","wsal","28","Ulm","2","0","1","German","English, French","3","odd","Cologne","1032394","1013335","NA","1036735","1032390","NA","684051","1032167","684051","684051","896572","924871","1110423","1108920","1112958","980566","963952","1013334","807894","875011","1011667","963738","1032394","963956","NA","1110423","1110423","1061424","1061420","1108916","NAP perception","14","36155","22","yes","1024"
"60.8695652174","yes","60.8695652174","1624.47826087","1624.47826087","white","no","xpyriment","I have read and understood the information shown above","legacy","legacy","0","uniform","0","0","0","undefined","undefined","0","f","1","0","NA","0","0","0","0","0","0","0","0","0","32","32","32","0","0","0","0","0","1","0","0","0","1","32","32","32","32","32","Wed Jun 28 15:18:15 2017","Forced-choice identification task with a practice and an experimental phase","yes","NAP-FC_GER_AA_ver-1.osexp","/Users/aviadalbert/Documents/Academisch/UoC/Dissertation/Experiment/OpenSesame/NAP-FC/NAP-FC_GER_AA/GER_AA_ver-1","yes","no","sans","no","20","no","black","no","Next","yes","768","legacy","22","9","0","/Users/aviadalbert/Documents/Academisch/UoC/Dissertation/Experiment/OpenSesame/NAP-FC/NAP-FC_GER_AA/GER_AA_ver-1/subject-3.csv","xpyriment","Jazzy James","3.1.6","yes","yes","59504085b83f69022b47a751","595041f76c613b022ae3ecdb","no","no","0","j","f","space","NA","space","space","j","1208","4340","18774","NA","28294","38806","1208","2","legacy","1024","1","44100","-16","experiment","jmal","28","Ulm","2","0","1","German","English, French","3","odd","Cologne","1032394","1013335","NA","1036735","1032390","NA","684051","1032167","684051","684051","896572","924871","1114728","1113223","1115937","980566","963952","1013334","807894","875011","1011667","963738","1032394","963956","NA","1114727","1114727","1061424","1061420","1113219","NAP perception","14","37363","23","yes","1024"
"62.5","yes","62.5","1607.41666667","1607.41666667","white","no","xpyriment","I have read and understood the information shown above","legacy","legacy","0","uniform","1","0","0","undefined","undefined","1","j","1","0","NA","0","0","0","0","0","0","0","0","0","33","33","33","0","0","0","0","0","1","0","0","0","1","33","33","33","33","33","Wed Jun 28 15:18:15 2017","Forced-choice identification task with a practice and an experimental phase","yes","NAP-FC_GER_AA_ver-1.osexp","/Users/aviadalbert/Documents/Academisch/UoC/Dissertation/Experiment/OpenSesame/NAP-FC/NAP-FC_GER_AA/GER_AA_ver-1","yes","no","sans","no","20","no","black","no","Next","yes","768","legacy","23","9","0","/Users/aviadalbert/Documents/Academisch/UoC/Dissertation/Experiment/OpenSesame/NAP-FC/NAP-FC_GER_AA/GER_AA_ver-1/subject-3.csv","xpyriment","Jazzy James","3.1.6","yes","yes","59504085b83f69022b47a751","595041f76c613b022ae3ecdb","no","no","0","j","f","space","NA","space","space","j","1215","4340","18774","NA","28294","38806","1215","2","legacy","1024","1","44100","-16","experiment","mesal","28","Ulm","2","0","1","German","English, French","3","odd","Cologne","1032394","1013335","NA","1036735","1032390","NA","684051","1032167","684051","684051","896572","924871","1117722","1116214","1118938","980566","963952","1013334","807894","875011","1011667","963738","1032394","963956","NA","1117722","1117722","1061424","1061420","1116210","NAP perception","15","38578","24","yes","1024"
"64","yes","64","1598.96","1598.96","white","no","xpyriment","I have read and understood the information shown above","legacy","legacy","0","uniform","1","0","0","undefined","undefined","1","j","1","0","NA","0","0","0","0","0","0","0","0","0","34","34","34","0","0","0","0","0","1","0","0","0","1","34","34","34","34","34","Wed Jun 28 15:18:15 2017","Forced-choice identification task with a practice and an experimental phase","yes","NAP-FC_GER_AA_ver-1.osexp","/Users/aviadalbert/Documents/Academisch/UoC/Dissertation/Experiment/OpenSesame/NAP-FC/NAP-FC_GER_AA/GER_AA_ver-1","yes","no","sans","no","20","no","black","no","Next","yes","768","legacy","24","9","0","/Users/aviadalbert/Documents/Academisch/UoC/Dissertation/Experiment/OpenSesame/NAP-FC/NAP-FC_GER_AA/GER_AA_ver-1/subject-3.csv","xpyriment","Jazzy James","3.1.6","yes","yes","59504085b83f69022b47a751","595041f76c613b022ae3ecdb","no","no","0","j","f","space","NA","space","space","j","1396","4340","18774","NA","28294","38806","1396","2","legacy","1024","1","44100","-16","experiment","emzal","28","Ulm","2","0","1","German","English, French","3","odd","Cologne","1032394","1013335","NA","1036735","1032390","NA","684051","1032167","684051","684051","896572","924871","1120727","1119222","1122124","980566","963952","1013334","807894","875011","1011667","963738","1032394","963956","NA","1120727","1120727","1061424","1061420","1119218","NAP perception","16","39974","25","yes","1024"
"61.5384615385","yes","61.5384615385","1571.03846154","1571.03846154","white","no","xpyriment","I have read and understood the information shown above","legacy","legacy","0","uniform","0","0","0","undefined","undefined","0","f","1","0","NA","0","0","0","0","0","0","0","0","0","35","35","35","0","0","0","0","0","1","0","0","0","1","35","35","35","35","35","Wed Jun 28 15:18:15 2017","Forced-choice identification task with a practice and an experimental phase","yes","NAP-FC_GER_AA_ver-1.osexp","/Users/aviadalbert/Documents/Academisch/UoC/Dissertation/Experiment/OpenSesame/NAP-FC/NAP-FC_GER_AA/GER_AA_ver-1","yes","no","sans","no","20","no","black","no","Next","yes","768","legacy","25","9","0","/Users/aviadalbert/Documents/Academisch/UoC/Dissertation/Experiment/OpenSesame/NAP-FC/NAP-FC_GER_AA/GER_AA_ver-1/subject-3.csv","xpyriment","Jazzy James","3.1.6","yes","yes","59504085b83f69022b47a751","595041f76c613b022ae3ecdb","no","no","0","j","f","space","NA","space","space","j","873","4340","18774","NA","28294","38806","873","2","legacy","1024","1","44100","-16","experiment","jpal","28","Ulm","2","0","1","German","English, French","3","odd","Cologne","1032394","1013335","NA","1036735","1032390","NA","684051","1032167","684051","684051","896572","924871","1123897","1122391","1124771","980566","963952","1013334","807894","875011","1011667","963738","1032394","963956","NA","1123897","1123897","1061424","1061420","1122387","NAP perception","16","40847","26","yes","1024"
"62.962962963","yes","62.962962963","1559.48148148","1559.48148148","white","no","xpyriment","I have read and understood the information shown above","legacy","legacy","0","uniform","1","0","0","undefined","undefined","1","j","1","0","NA","0","0","0","0","0","0","0","0","0","36","36","36","0","0","0","0","0","1","0","0","0","1","36","36","36","36","36","Wed Jun 28 15:18:15 2017","Forced-choice identification task with a practice and an experimental phase","yes","NAP-FC_GER_AA_ver-1.osexp","/Users/aviadalbert/Documents/Academisch/UoC/Dissertation/Experiment/OpenSesame/NAP-FC/NAP-FC_GER_AA/GER_AA_ver-1","yes","no","sans","no","20","no","black","no","Next","yes","768","legacy","26","9","0","/Users/aviadalbert/Documents/Academisch/UoC/Dissertation/Experiment/OpenSesame/NAP-FC/NAP-FC_GER_AA/GER_AA_ver-1/subject-3.csv","xpyriment","Jazzy James","3.1.6","yes","yes","59504085b83f69022b47a751","595041f76c613b022ae3ecdb","no","no","0","j","f","space","NA","space","space","j","1259","4340","18774","NA","28294","38806","1259","2","legacy","1024","1","44100","-16","experiment","wesal","28","Ulm","2","0","1","German","English, French","3","odd","Cologne","1032394","1013335","NA","1036735","1032390","NA","684051","1032167","684051","684051","896572","924871","1126549","1125045","1127810","980566","963952","1013334","807894","875011","1011667","963738","1032394","963956","NA","1126549","1126549","1061424","1061420","1125041","NAP perception","17","42106","27","yes","1024"
"64.2857142857","yes","64.2857142857","1544.10714286","1544.10714286","white","no","xpyriment","I have read and understood the information shown above","legacy","legacy","0","uniform","1","0","0","undefined","undefined","1","f","1","0","NA","0","0","0","0","0","0","0","0","0","37","37","37","0","0","0","0","0","1","0","0","0","1","37","37","37","37","37","Wed Jun 28 15:18:15 2017","Forced-choice identification task with a practice and an experimental phase","yes","NAP-FC_GER_AA_ver-1.osexp","/Users/aviadalbert/Documents/Academisch/UoC/Dissertation/Experiment/OpenSesame/NAP-FC/NAP-FC_GER_AA/GER_AA_ver-1","yes","no","sans","no","20","no","black","no","Next","yes","768","legacy","27","9","0","/Users/aviadalbert/Documents/Academisch/UoC/Dissertation/Experiment/OpenSesame/NAP-FC/NAP-FC_GER_AA/GER_AA_ver-1/subject-3.csv","xpyriment","Jazzy James","3.1.6","yes","yes","59504085b83f69022b47a751","595041f76c613b022ae3ecdb","no","no","0","f","f","space","NA","space","space","f","1129","4340","18774","NA","28294","38806","1129","2","legacy","1024","1","44100","-16","experiment","vzal","28","Ulm","2","0","1","German","English, French","3","odd","Cologne","1032394","1013335","NA","1036735","1032390","NA","684051","1032167","684051","684051","896572","924871","1129579","1128076","1130709","980566","963952","1013334","807894","875011","1011667","963738","1032394","963956","NA","1129579","1129579","1061424","1061420","1128072","NAP perception","18","43235","28","yes","1024"
"65.5172413793","yes","65.5172413793","1529.27586207","1529.27586207","white","no","xpyriment","I have read and understood the information shown above","legacy","legacy","0","uniform","1","0","0","undefined","undefined","1","f","1","0","NA","0","0","0","0","0","0","0","0","0","38","38","38","0","0","0","0","0","1","0","0","0","1","38","38","38","38","38","Wed Jun 28 15:18:15 2017","Forced-choice identification task with a practice and an experimental phase","yes","NAP-FC_GER_AA_ver-1.osexp","/Users/aviadalbert/Documents/Academisch/UoC/Dissertation/Experiment/OpenSesame/NAP-FC/NAP-FC_GER_AA/GER_AA_ver-1","yes","no","sans","no","20","no","black","no","Next","yes","768","legacy","28","9","0","/Users/aviadalbert/Documents/Academisch/UoC/Dissertation/Experiment/OpenSesame/NAP-FC/NAP-FC_GER_AA/GER_AA_ver-1/subject-3.csv","xpyriment","Jazzy James","3.1.6","yes","yes","59504085b83f69022b47a751","595041f76c613b022ae3ecdb","no","no","0","f","f","space","NA","space","space","f","1114","4340","18774","NA","28294","38806","1114","2","legacy","1024","1","44100","-16","experiment","ʃfal","28","Ulm","2","0","1","German","English, French","3","odd","Cologne","1032394","1013335","NA","1036735","1032390","NA","684051","1032167","684051","684051","896572","924871","1132467","1130964","1133582","980566","963952","1013334","807894","875011","1011667","963738","1032394","963956","NA","1132467","1132467","1061424","1061420","1130960","NAP perception","19","44349","29","yes","1024"
"63.3333333333","yes","63.3333333333","1531.36666667","1531.36666667","white","no","xpyriment","I have read and understood the information shown above","legacy","legacy","0","uniform","0","0","0","undefined","undefined","0","j","1","0","NA","0","0","0","0","0","0","0","0","0","39","39","39","0","0","0","0","0","1","0","0","0","1","39","39","39","39","39","Wed Jun 28 15:18:15 2017","Forced-choice identification task with a practice and an experimental phase","yes","NAP-FC_GER_AA_ver-1.osexp","/Users/aviadalbert/Documents/Academisch/UoC/Dissertation/Experiment/OpenSesame/NAP-FC/NAP-FC_GER_AA/GER_AA_ver-1","yes","no","sans","no","20","no","black","no","Next","yes","768","legacy","29","9","0","/Users/aviadalbert/Documents/Academisch/UoC/Dissertation/Experiment/OpenSesame/NAP-FC/NAP-FC_GER_AA/GER_AA_ver-1/subject-3.csv","xpyriment","Jazzy James","3.1.6","yes","yes","59504085b83f69022b47a751","595041f76c613b022ae3ecdb","no","no","0","f","f","space","NA","space","space","f","1592","4340","18774","NA","28294","38806","1592","2","legacy","1024","1","44100","-16","experiment","eʃmal","28","Ulm","2","0","1","German","English, French","3","odd","Cologne","1032394","1013335","NA","1036735","1032390","NA","684051","1032167","684051","684051","896572","924871","1135355","1133849","1136948","980566","963952","1013334","807894","875011","1011667","963738","1032394","963956","NA","1135354","1135355","1061424","1061420","1133845","NAP perception","19","45941","30","yes","1024"
"64.5161290323","yes","64.5161290323","1525.09677419","1525.09677419","white","no","xpyriment","I have read and understood the information shown above","legacy","legacy","0","uniform","1","0","0","undefined","undefined","1","f","1","0","NA","0","0","0","0","0","0","0","0","0","40","40","40","0","0","0","0","0","1","0","0","0","1","40","40","40","40","40","Wed Jun 28 15:18:15 2017","Forced-choice identification task with a practice and an experimental phase","yes","NAP-FC_GER_AA_ver-1.osexp","/Users/aviadalbert/Documents/Academisch/UoC/Dissertation/Experiment/OpenSesame/NAP-FC/NAP-FC_GER_AA/GER_AA_ver-1","yes","no","sans","no","20","no","black","no","Next","yes","768","legacy","30","9","0","/Users/aviadalbert/Documents/Academisch/UoC/Dissertation/Experiment/OpenSesame/NAP-FC/NAP-FC_GER_AA/GER_AA_ver-1/subject-3.csv","xpyriment","Jazzy James","3.1.6","yes","yes","59504085b83f69022b47a751","595041f76c613b022ae3ecdb","no","no","0","f","f","space","NA","space","space","f","1337","4340","18774","NA","28294","38806","1337","2","legacy","1024","1","44100","-16","experiment","vnal","28","Ulm","2","0","1","German","English, French","3","odd","Cologne","1032394","1013335","NA","1036735","1032390","NA","684051","1032167","684051","684051","896572","924871","1138713","1137209","1140052","980566","963952","1013334","807894","875011","1011667","963738","1032394","963956","NA","1138713","1138713","1061424","1061420","1137205","NAP perception","20","47278","31","yes","1024"
"65.625","yes","65.625","1523.875","1523.875","white","no","xpyriment","I have read and understood the information shown above","legacy","legacy","0","uniform","1","0","0","undefined","undefined","1","f","1","0","NA","0","0","0","0","0","0","0","0","0","41","41","41","0","0","0","0","0","1","0","0","0","1","41","41","41","41","41","Wed Jun 28 15:18:15 2017","Forced-choice identification task with a practice and an experimental phase","yes","NAP-FC_GER_AA_ver-1.osexp","/Users/aviadalbert/Documents/Academisch/UoC/Dissertation/Experiment/OpenSesame/NAP-FC/NAP-FC_GER_AA/GER_AA_ver-1","yes","no","sans","no","20","no","black","no","Next","yes","768","legacy","31","9","0","/Users/aviadalbert/Documents/Academisch/UoC/Dissertation/Experiment/OpenSesame/NAP-FC/NAP-FC_GER_AA/GER_AA_ver-1/subject-3.csv","xpyriment","Jazzy James","3.1.6","yes","yes","59504085b83f69022b47a751","595041f76c613b022ae3ecdb","no","no","0","f","f","space","NA","space","space","f","1486","4340","18774","NA","28294","38806","1486","2","legacy","1024","1","44100","-16","experiment","nfal","28","Ulm","2","0","1","German","English, French","3","odd","Cologne","1032394","1013335","NA","1036735","1032390","NA","684051","1032167","684051","684051","896572","924871","1141835","1140330","1143323","980566","963952","1013334","807894","875011","1011667","963738","1032394","963956","NA","1141834","1141834","1061424","1061420","1140326","NAP perception","21","48764","32","yes","1024"
"63.6363636364","yes","63.6363636364","1514.27272727","1514.27272727","white","no","xpyriment","I have read and understood the information shown above","legacy","legacy","0","uniform","0","0","0","undefined","undefined","0","f","1","0","NA","0","0","0","0","0","0","0","0","0","42","42","42","0","0","0","0","0","1","0","0","0","1","42","42","42","42","42","Wed Jun 28 15:18:15 2017","Forced-choice identification task with a practice and an experimental phase","yes","NAP-FC_GER_AA_ver-1.osexp","/Users/aviadalbert/Documents/Academisch/UoC/Dissertation/Experiment/OpenSesame/NAP-FC/NAP-FC_GER_AA/GER_AA_ver-1","yes","no","sans","no","20","no","black","no","Next","yes","768","legacy","32","9","0","/Users/aviadalbert/Documents/Academisch/UoC/Dissertation/Experiment/OpenSesame/NAP-FC/NAP-FC_GER_AA/GER_AA_ver-1/subject-3.csv","xpyriment","Jazzy James","3.1.6","yes","yes","59504085b83f69022b47a751","595041f76c613b022ae3ecdb","no","no","0","j","f","space","NA","space","space","j","1207","4340","18774","NA","28294","38806","1207","2","legacy","1024","1","44100","-16","experiment","wzal","28","Ulm","2","0","1","German","English, French","3","odd","Cologne","1032394","1013335","NA","1036735","1032390","NA","684051","1032167","684051","684051","896572","924871","1145098","1143594","1146307","980566","963952","1013334","807894","875011","1011667","963738","1032394","963956","NA","1145098","1145098","1061424","1061420","1143590","NAP perception","21","49971","33","yes","1024"
"64.7058823529","yes","64.7058823529","1489.79411765","1489.79411765","white","no","xpyriment","I have read and understood the information shown above","legacy","legacy","0","uniform","1","0","0","undefined","undefined","1","j","1","0","NA","0","0","0","0","0","0","0","0","0","43","43","43","0","0","0","0","0","1","0","0","0","1","43","43","43","43","43","Wed Jun 28 15:18:15 2017","Forced-choice identification task with a practice and an experimental phase","yes","NAP-FC_GER_AA_ver-1.osexp","/Users/aviadalbert/Documents/Academisch/UoC/Dissertation/Experiment/OpenSesame/NAP-FC/NAP-FC_GER_AA/GER_AA_ver-1","yes","no","sans","no","20","no","black","no","Next","yes","768","legacy","33","9","0","/Users/aviadalbert/Documents/Academisch/UoC/Dissertation/Experiment/OpenSesame/NAP-FC/NAP-FC_GER_AA/GER_AA_ver-1/subject-3.csv","xpyriment","Jazzy James","3.1.6","yes","yes","59504085b83f69022b47a751","595041f76c613b022ae3ecdb","no","no","0","j","f","space","NA","space","space","j","682","4340","18774","NA","28294","38806","682","2","legacy","1024","1","44100","-16","experiment","jemal","28","Ulm","2","0","1","German","English, French","3","odd","Cologne","1032394","1013335","NA","1036735","1032390","NA","684051","1032167","684051","684051","896572","924871","1148079","1146572","1148763","980566","963952","1013334","807894","875011","1011667","963738","1032394","963956","NA","1148079","1148079","1061424","1061420","1146568","NAP perception","22","50653","34","yes","1024"
"65.7142857143","yes","65.7142857143","1500.25714286","1500.25714286","white","no","xpyriment","I have read and understood the information shown above","legacy","legacy","0","uniform","1","0","0","undefined","undefined","1","j","1","0","NA","0","0","0","0","0","0","0","0","0","44","44","44","0","0","0","0","0","1","0","0","0","1","44","44","44","44","44","Wed Jun 28 15:18:15 2017","Forced-choice identification task with a practice and an experimental phase","yes","NAP-FC_GER_AA_ver-1.osexp","/Users/aviadalbert/Documents/Academisch/UoC/Dissertation/Experiment/OpenSesame/NAP-FC/NAP-FC_GER_AA/GER_AA_ver-1","yes","no","sans","no","20","no","black","no","Next","yes","768","legacy","34","9","0","/Users/aviadalbert/Documents/Academisch/UoC/Dissertation/Experiment/OpenSesame/NAP-FC/NAP-FC_GER_AA/GER_AA_ver-1/subject-3.csv","xpyriment","Jazzy James","3.1.6","yes","yes","59504085b83f69022b47a751","595041f76c613b022ae3ecdb","no","no","0","j","f","space","NA","space","space","j","1856","4340","18774","NA","28294","38806","1856","2","legacy","1024","1","44100","-16","experiment","eʃpal","28","Ulm","2","0","1","German","English, French","3","odd","Cologne","1032394","1013335","NA","1036735","1032390","NA","684051","1032167","684051","684051","896572","924871","1150536","1149031","1152394","980566","963952","1013334","807894","875011","1011667","963738","1032394","963956","NA","1150535","1150535","1061424","1061420","1149027","NAP perception","23","52509","35","yes","1024"
"66.6666666667","yes","66.6666666667","1483.94444444","1483.94444444","white","no","xpyriment","I have read and understood the information shown above","legacy","legacy","0","uniform","1","0","0","undefined","undefined","1","j","1","0","NA","0","0","0","0","0","0","0","0","0","45","45","45","0","0","0","0","0","1","0","0","0","1","45","45","45","45","45","Wed Jun 28 15:18:15 2017","Forced-choice identification task with a practice and an experimental phase","yes","NAP-FC_GER_AA_ver-1.osexp","/Users/aviadalbert/Documents/Academisch/UoC/Dissertation/Experiment/OpenSesame/NAP-FC/NAP-FC_GER_AA/GER_AA_ver-1","yes","no","sans","no","20","no","black","no","Next","yes","768","legacy","35","9","0","/Users/aviadalbert/Documents/Academisch/UoC/Dissertation/Experiment/OpenSesame/NAP-FC/NAP-FC_GER_AA/GER_AA_ver-1/subject-3.csv","xpyriment","Jazzy James","3.1.6","yes","yes","59504085b83f69022b47a751","595041f76c613b022ae3ecdb","no","no","0","j","f","space","NA","space","space","j","913","4340","18774","NA","28294","38806","913","2","legacy","1024","1","44100","-16","experiment","neval","28","Ulm","2","0","1","German","English, French","3","odd","Cologne","1032394","1013335","NA","1036735","1032390","NA","684051","1032167","684051","684051","896572","924871","1154164","1152660","1155079","980566","963952","1013334","807894","875011","1011667","963738","1032394","963956","NA","1154163","1154164","1061424","1061420","1152656","NAP perception","24","53422","36","yes","1024"
"64.8648648649","yes","64.8648648649","1479.43243243","1479.43243243","white","no","xpyriment","I have read and understood the information shown above","legacy","legacy","0","uniform","0","0","0","undefined","undefined","0","f","1","0","NA","0","0","0","0","0","0","0","0","0","46","46","46","0","0","0","0","0","1","0","0","0","1","46","46","46","46","46","Wed Jun 28 15:18:15 2017","Forced-choice identification task with a practice and an experimental phase","yes","NAP-FC_GER_AA_ver-1.osexp","/Users/aviadalbert/Documents/Academisch/UoC/Dissertation/Experiment/OpenSesame/NAP-FC/NAP-FC_GER_AA/GER_AA_ver-1","yes","no","sans","no","20","no","black","no","Next","yes","768","legacy","36","9","0","/Users/aviadalbert/Documents/Academisch/UoC/Dissertation/Experiment/OpenSesame/NAP-FC/NAP-FC_GER_AA/GER_AA_ver-1/subject-3.csv","xpyriment","Jazzy James","3.1.6","yes","yes","59504085b83f69022b47a751","595041f76c613b022ae3ecdb","no","no","0","j","f","space","NA","space","space","j","1317","4340","18774","NA","28294","38806","1317","2","legacy","1024","1","44100","-16","experiment","lkal","28","Ulm","2","0","1","German","English, French","3","odd","Cologne","1032394","1013335","NA","1036735","1032390","NA","684051","1032167","684051","684051","896572","924871","1156852","1155346","1158170","980566","963952","1013334","807894","875011","1011667","963738","1032394","963956","NA","1156852","1156852","1061424","1061420","1155342","NAP perception","24","54739","37","yes","1024"
"65.7894736842","yes","65.7894736842","1471.71052632","1471.71052632","white","no","xpyriment","I have read and understood the information shown above","legacy","legacy","0","uniform","1","0","0","undefined","undefined","1","j","1","0","NA","0","0","0","0","0","0","0","0","0","47","47","47","0","0","0","0","0","1","0","0","0","1","47","47","47","47","47","Wed Jun 28 15:18:15 2017","Forced-choice identification task with a practice and an experimental phase","yes","NAP-FC_GER_AA_ver-1.osexp","/Users/aviadalbert/Documents/Academisch/UoC/Dissertation/Experiment/OpenSesame/NAP-FC/NAP-FC_GER_AA/GER_AA_ver-1","yes","no","sans","no","20","no","black","no","Next","yes","768","legacy","37","9","0","/Users/aviadalbert/Documents/Academisch/UoC/Dissertation/Experiment/OpenSesame/NAP-FC/NAP-FC_GER_AA/GER_AA_ver-1/subject-3.csv","xpyriment","Jazzy James","3.1.6","yes","yes","59504085b83f69022b47a751","595041f76c613b022ae3ecdb","no","no","0","j","f","space","NA","space","space","j","1186","4340","18774","NA","28294","38806","1186","2","legacy","1024","1","44100","-16","experiment","enmal","28","Ulm","2","0","1","German","English, French","3","odd","Cologne","1032394","1013335","NA","1036735","1032390","NA","684051","1032167","684051","684051","896572","924871","1159946","1158440","1161133","980566","963952","1013334","807894","875011","1011667","963738","1032394","963956","NA","1159946","1159946","1061424","1061420","1158436","NAP perception","25","55925","38","yes","1024"
"64.1025641026","yes","64.1025641026","1463.30769231","1463.30769231","white","no","xpyriment","I have read and understood the information shown above","legacy","legacy","0","uniform","0","0","0","undefined","undefined","0","f","1","0","NA","0","0","0","0","0","0","0","0","0","48","48","48","0","0","0","0","0","1","0","0","0","1","48","48","48","48","48","Wed Jun 28 15:18:15 2017","Forced-choice identification task with a practice and an experimental phase","yes","NAP-FC_GER_AA_ver-1.osexp","/Users/aviadalbert/Documents/Academisch/UoC/Dissertation/Experiment/OpenSesame/NAP-FC/NAP-FC_GER_AA/GER_AA_ver-1","yes","no","sans","no","20","no","black","no","Next","yes","768","legacy","38","9","0","/Users/aviadalbert/Documents/Academisch/UoC/Dissertation/Experiment/OpenSesame/NAP-FC/NAP-FC_GER_AA/GER_AA_ver-1/subject-3.csv","xpyriment","Jazzy James","3.1.6","yes","yes","59504085b83f69022b47a751","595041f76c613b022ae3ecdb","no","no","0","j","f","space","NA","space","space","j","1144","4340","18774","NA","28294","38806","1144","2","legacy","1024","1","44100","-16","experiment","lfal","28","Ulm","2","0","1","German","English, French","3","odd","Cologne","1032394","1013335","NA","1036735","1032390","NA","684051","1032167","684051","684051","896572","924871","1162929","1161420","1164074","980566","963952","1013334","807894","875011","1011667","963738","1032394","963956","NA","1162928","1162928","1061424","1061420","1161416","NAP perception","25","57069","39","yes","1024"
"65","yes","65","1449.2","1449.2","white","no","xpyriment","I have read and understood the information shown above","legacy","legacy","0","uniform","1","0","0","undefined","undefined","1","j","1","0","NA","0","0","0","0","0","0","0","0","0","49","49","49","0","0","0","0","0","1","0","0","0","1","49","49","49","49","49","Wed Jun 28 15:18:15 2017","Forced-choice identification task with a practice and an experimental phase","yes","NAP-FC_GER_AA_ver-1.osexp","/Users/aviadalbert/Documents/Academisch/UoC/Dissertation/Experiment/OpenSesame/NAP-FC/NAP-FC_GER_AA/GER_AA_ver-1","yes","no","sans","no","20","no","black","no","Next","yes","768","legacy","39","9","0","/Users/aviadalbert/Documents/Academisch/UoC/Dissertation/Experiment/OpenSesame/NAP-FC/NAP-FC_GER_AA/GER_AA_ver-1/subject-3.csv","xpyriment","Jazzy James","3.1.6","yes","yes","59504085b83f69022b47a751","595041f76c613b022ae3ecdb","no","no","0","j","f","space","NA","space","space","j","899","4340","18774","NA","28294","38806","899","2","legacy","1024","1","44100","-16","experiment","enfal","28","Ulm","2","0","1","German","English, French","3","odd","Cologne","1032394","1013335","NA","1036735","1032390","NA","684051","1032167","684051","684051","896572","924871","1165848","1164345","1166748","980566","963952","1013334","807894","875011","1011667","963738","1032394","963956","NA","1165848","1165848","1061424","1061420","1164341","NAP perception","26","57968","40","yes","1024"
"65.8536585366","yes","65.8536585366","1436.63414634","1436.63414634","white","no","xpyriment","I have read and understood the information shown above","legacy","legacy","0","uniform","1","0","0","undefined","undefined","1","j","1","0","NA","0","0","0","0","0","0","0","0","0","50","50","50","0","0","0","0","0","1","0","0","0","1","50","50","50","50","50","Wed Jun 28 15:18:15 2017","Forced-choice identification task with a practice and an experimental phase","yes","NAP-FC_GER_AA_ver-1.osexp","/Users/aviadalbert/Documents/Academisch/UoC/Dissertation/Experiment/OpenSesame/NAP-FC/NAP-FC_GER_AA/GER_AA_ver-1","yes","no","sans","no","20","no","black","no","Next","yes","768","legacy","40","9","0","/Users/aviadalbert/Documents/Academisch/UoC/Dissertation/Experiment/OpenSesame/NAP-FC/NAP-FC_GER_AA/GER_AA_ver-1/subject-3.csv","xpyriment","Jazzy James","3.1.6","yes","yes","59504085b83f69022b47a751","595041f76c613b022ae3ecdb","no","no","0","j","f","space","NA","space","space","j","934","4340","18774","NA","28294","38806","934","2","legacy","1024","1","44100","-16","experiment","efnal","28","Ulm","2","0","1","German","English, French","3","odd","Cologne","1032394","1013335","NA","1036735","1032390","NA","684051","1032167","684051","684051","896572","924871","1168522","1167016","1169457","980566","963952","1013334","807894","875011","1011667","963738","1032394","963956","NA","1168522","1168522","1061424","1061420","1167012","NAP perception","27","58902","41","yes","1024"
"66.6666666667","yes","66.6666666667","1423.42857143","1423.42857143","white","no","xpyriment","I have read and understood the information shown above","legacy","legacy","0","uniform","1","0","0","undefined","undefined","1","j","1","0","NA","0","0","0","0","0","0","0","0","0","51","51","51","0","0","0","0","0","1","0","0","0","1","51","51","51","51","51","Wed Jun 28 15:18:15 2017","Forced-choice identification task with a practice and an experimental phase","yes","NAP-FC_GER_AA_ver-1.osexp","/Users/aviadalbert/Documents/Academisch/UoC/Dissertation/Experiment/OpenSesame/NAP-FC/NAP-FC_GER_AA/GER_AA_ver-1","yes","no","sans","no","20","no","black","no","Next","yes","768","legacy","41","9","0","/Users/aviadalbert/Documents/Academisch/UoC/Dissertation/Experiment/OpenSesame/NAP-FC/NAP-FC_GER_AA/GER_AA_ver-1/subject-3.csv","xpyriment","Jazzy James","3.1.6","yes","yes","59504085b83f69022b47a751","595041f76c613b022ae3ecdb","no","no","0","j","f","space","NA","space","space","j","882","4340","18774","NA","28294","38806","882","2","legacy","1024","1","44100","-16","experiment","esfal","28","Ulm","2","0","1","German","English, French","3","odd","Cologne","1032394","1013335","NA","1036735","1032390","NA","684051","1032167","684051","684051","896572","924871","1171231","1169725","1172115","980566","963952","1013334","807894","875011","1011667","963738","1032394","963956","NA","1171231","1171231","1061424","1061420","1169721","NAP perception","28","59784","42","yes","1024"
"67.4418604651","yes","67.4418604651","1420.6744186","1420.6744186","white","no","xpyriment","I have read and understood the information shown above","legacy","legacy","0","uniform","1","0","0","undefined","undefined","1","f","1","0","NA","0","0","0","0","0","0","0","0","0","52","52","52","0","0","0","0","0","1","0","0","0","1","52","52","52","52","52","Wed Jun 28 15:18:15 2017","Forced-choice identification task with a practice and an experimental phase","yes","NAP-FC_GER_AA_ver-1.osexp","/Users/aviadalbert/Documents/Academisch/UoC/Dissertation/Experiment/OpenSesame/NAP-FC/NAP-FC_GER_AA/GER_AA_ver-1","yes","no","sans","no","20","no","black","no","Next","yes","768","legacy","42","9","0","/Users/aviadalbert/Documents/Academisch/UoC/Dissertation/Experiment/OpenSesame/NAP-FC/NAP-FC_GER_AA/GER_AA_ver-1/subject-3.csv","xpyriment","Jazzy James","3.1.6","yes","yes","59504085b83f69022b47a751","595041f76c613b022ae3ecdb","no","no","0","f","f","space","NA","space","space","f","1305","4340","18774","NA","28294","38806","1305","2","legacy","1024","1","44100","-16","experiment","mlal","28","Ulm","2","0","1","German","English, French","3","odd","Cologne","1032394","1013335","NA","1036735","1032390","NA","684051","1032167","684051","684051","896572","924871","1173896","1172392","1175204","980566","963952","1013334","807894","875011","1011667","963738","1032394","963956","NA","1173896","1173896","1061424","1061420","1172388","NAP perception","29","61089","43","yes","1024"
"65.9090909091","yes","65.9090909091","1427.06818182","1427.06818182","white","no","xpyriment","I have read and understood the information shown above","legacy","legacy","0","uniform","0","0","0","undefined","undefined","0","f","1","0","NA","0","0","0","0","0","0","0","0","0","53","53","53","0","0","0","0","0","1","0","0","0","1","53","53","53","53","53","Wed Jun 28 15:18:15 2017","Forced-choice identification task with a practice and an experimental phase","yes","NAP-FC_GER_AA_ver-1.osexp","/Users/aviadalbert/Documents/Academisch/UoC/Dissertation/Experiment/OpenSesame/NAP-FC/NAP-FC_GER_AA/GER_AA_ver-1","yes","no","sans","no","20","no","black","no","Next","yes","768","legacy","43","9","0","/Users/aviadalbert/Documents/Academisch/UoC/Dissertation/Experiment/OpenSesame/NAP-FC/NAP-FC_GER_AA/GER_AA_ver-1/subject-3.csv","xpyriment","Jazzy James","3.1.6","yes","yes","59504085b83f69022b47a751","595041f76c613b022ae3ecdb","no","no","0","j","f","space","NA","space","space","j","1702","4340","18774","NA","28294","38806","1702","2","legacy","1024","1","44100","-16","experiment","ftal","28","Ulm","2","0","1","German","English, French","3","odd","Cologne","1032394","1013335","NA","1036735","1032390","NA","684051","1032167","684051","684051","896572","924871","1176983","1175478","1178687","980566","963952","1013334","807894","875011","1011667","963738","1032394","963956","NA","1176983","1176983","1061424","1061420","1175474","NAP perception","29","62791","44","yes","1024"
"66.6666666667","yes","66.6666666667","1419.08888889","1419.08888889","white","no","xpyriment","I have read and understood the information shown above","legacy","legacy","0","uniform","1","0","0","undefined","undefined","1","j","1","0","NA","0","0","0","0","0","0","0","0","0","54","54","54","0","0","0","0","0","1","0","0","0","1","54","54","54","54","54","Wed Jun 28 15:18:15 2017","Forced-choice identification task with a practice and an experimental phase","yes","NAP-FC_GER_AA_ver-1.osexp","/Users/aviadalbert/Documents/Academisch/UoC/Dissertation/Experiment/OpenSesame/NAP-FC/NAP-FC_GER_AA/GER_AA_ver-1","yes","no","sans","no","20","no","black","no","Next","yes","768","legacy","44","9","0","/Users/aviadalbert/Documents/Academisch/UoC/Dissertation/Experiment/OpenSesame/NAP-FC/NAP-FC_GER_AA/GER_AA_ver-1/subject-3.csv","xpyriment","Jazzy James","3.1.6","yes","yes","59504085b83f69022b47a751","595041f76c613b022ae3ecdb","no","no","0","j","f","space","NA","space","space","j","1068","4340","18774","NA","28294","38806","1068","2","legacy","1024","1","44100","-16","experiment","emlal","28","Ulm","2","0","1","German","English, French","3","odd","Cologne","1032394","1013335","NA","1036735","1032390","NA","684051","1032167","684051","684051","896572","924871","1180466","1178962","1181536","980566","963952","1013334","807894","875011","1011667","963738","1032394","963956","NA","1180466","1180466","1061424","1061420","1178958","NAP perception","30","63859","45","yes","1024"
"67.3913043478","yes","67.3913043478","1412.54347826","1412.54347826","white","no","xpyriment","I have read and understood the information shown above","legacy","legacy","0","uniform","1","0","0","undefined","undefined","1","f","1","0","NA","0","0","0","0","0","0","0","0","0","55","55","55","0","0","0","0","0","1","0","0","0","1","55","55","55","55","55","Wed Jun 28 15:18:15 2017","Forced-choice identification task with a practice and an experimental phase","yes","NAP-FC_GER_AA_ver-1.osexp","/Users/aviadalbert/Documents/Academisch/UoC/Dissertation/Experiment/OpenSesame/NAP-FC/NAP-FC_GER_AA/GER_AA_ver-1","yes","no","sans","no","20","no","black","no","Next","yes","768","legacy","45","9","0","/Users/aviadalbert/Documents/Academisch/UoC/Dissertation/Experiment/OpenSesame/NAP-FC/NAP-FC_GER_AA/GER_AA_ver-1/subject-3.csv","xpyriment","Jazzy James","3.1.6","yes","yes","59504085b83f69022b47a751","595041f76c613b022ae3ecdb","no","no","0","f","f","space","NA","space","space","f","1118","4340","18774","NA","28294","38806","1118","2","legacy","1024","1","44100","-16","experiment","spal","28","Ulm","2","0","1","German","English, French","3","odd","Cologne","1032394","1013335","NA","1036735","1032390","NA","684051","1032167","684051","684051","896572","924871","1183313","1181810","1184433","980566","963952","1013334","807894","875011","1011667","963738","1032394","963956","NA","1183313","1183313","1061424","1061420","1181805","NAP perception","31","64977","46","yes","1024"
"68.085106383","yes","68.085106383","1421.10638298","1421.10638298","white","no","xpyriment","I have read and understood the information shown above","legacy","legacy","0","uniform","1","0","0","undefined","undefined","1","j","1","0","NA","0","0","0","0","0","0","0","0","0","56","56","56","0","0","0","0","0","1","0","0","0","1","56","56","56","56","56","Wed Jun 28 15:18:15 2017","Forced-choice identification task with a practice and an experimental phase","yes","NAP-FC_GER_AA_ver-1.osexp","/Users/aviadalbert/Documents/Academisch/UoC/Dissertation/Experiment/OpenSesame/NAP-FC/NAP-FC_GER_AA/GER_AA_ver-1","yes","no","sans","no","20","no","black","no","Next","yes","768","legacy","46","9","0","/Users/aviadalbert/Documents/Academisch/UoC/Dissertation/Experiment/OpenSesame/NAP-FC/NAP-FC_GER_AA/GER_AA_ver-1/subject-3.csv","xpyriment","Jazzy James","3.1.6","yes","yes","59504085b83f69022b47a751","595041f76c613b022ae3ecdb","no","no","0","j","f","space","NA","space","space","j","1815","4340","18774","NA","28294","38806","1815","2","legacy","1024","1","44100","-16","experiment","wezal","28","Ulm","2","0","1","German","English, French","3","odd","Cologne","1032394","1013335","NA","1036735","1032390","NA","684051","1032167","684051","684051","896572","924871","1186198","1184695","1188015","980566","963952","1013334","807894","875011","1011667","963738","1032394","963956","NA","1186198","1186198","1061424","1061420","1184691","NAP perception","32","66792","47","yes","1024"
"68.75","yes","68.75","1427.75","1427.75","white","no","xpyriment","I have read and understood the information shown above","legacy","legacy","0","uniform","1","0","0","undefined","undefined","1","j","1","0","NA","0","0","0","0","0","0","0","0","0","57","57","57","0","0","0","0","0","1","0","0","0","1","57","57","57","57","57","Wed Jun 28 15:18:15 2017","Forced-choice identification task with a practice and an experimental phase","yes","NAP-FC_GER_AA_ver-1.osexp","/Users/aviadalbert/Documents/Academisch/UoC/Dissertation/Experiment/OpenSesame/NAP-FC/NAP-FC_GER_AA/GER_AA_ver-1","yes","no","sans","no","20","no","black","no","Next","yes","768","legacy","47","9","0","/Users/aviadalbert/Documents/Academisch/UoC/Dissertation/Experiment/OpenSesame/NAP-FC/NAP-FC_GER_AA/GER_AA_ver-1/subject-3.csv","xpyriment","Jazzy James","3.1.6","yes","yes","59504085b83f69022b47a751","595041f76c613b022ae3ecdb","no","no","0","j","f","space","NA","space","space","j","1740","4340","18774","NA","28294","38806","1740","2","legacy","1024","1","44100","-16","experiment","wetal","28","Ulm","2","0","1","German","English, French","3","odd","Cologne","1032394","1013335","NA","1036735","1032390","NA","684051","1032167","684051","684051","896572","924871","1189797","1188293","1191538","980566","963952","1013334","807894","875011","1011667","963738","1032394","963956","NA","1189796","1189796","1061424","1061420","1188289","NAP perception","33","68532","48","yes","1024"
"69.387755102","yes","69.387755102","1417.71428571","1417.71428571","white","no","xpyriment","I have read and understood the information shown above","legacy","legacy","0","uniform","1","0","0","undefined","undefined","1","f","1","0","NA","0","0","0","0","0","0","0","0","0","58","58","58","0","0","0","0","0","1","0","0","0","1","58","58","58","58","58","Wed Jun 28 15:18:15 2017","Forced-choice identification task with a practice and an experimental phase","yes","NAP-FC_GER_AA_ver-1.osexp","/Users/aviadalbert/Documents/Academisch/UoC/Dissertation/Experiment/OpenSesame/NAP-FC/NAP-FC_GER_AA/GER_AA_ver-1","yes","no","sans","no","20","no","black","no","Next","yes","768","legacy","48","9","0","/Users/aviadalbert/Documents/Academisch/UoC/Dissertation/Experiment/OpenSesame/NAP-FC/NAP-FC_GER_AA/GER_AA_ver-1/subject-3.csv","xpyriment","Jazzy James","3.1.6","yes","yes","59504085b83f69022b47a751","595041f76c613b022ae3ecdb","no","no","0","f","f","space","NA","space","space","f","936","4340","18774","NA","28294","38806","936","2","legacy","1024","1","44100","-16","experiment","zmal","28","Ulm","2","0","1","German","English, French","3","odd","Cologne","1032394","1013335","NA","1036735","1032390","NA","684051","1032167","684051","684051","896572","924871","1193315","1191812","1194253","980566","963952","1013334","807894","875011","1011667","963738","1032394","963956","NA","1193315","1193315","1061424","1061420","1191808","NAP perception","34","69468","49","yes","1024"
"70","yes","70","1413.16","1413.16","white","no","xpyriment","I have read and understood the information shown above","legacy","legacy","0","uniform","1","0","0","undefined","undefined","1","j","1","0","NA","0","0","0","0","0","0","0","0","0","59","59","59","0","0","0","0","0","1","0","0","0","1","59","59","59","59","59","Wed Jun 28 15:18:15 2017","Forced-choice identification task with a practice and an experimental phase","yes","NAP-FC_GER_AA_ver-1.osexp","/Users/aviadalbert/Documents/Academisch/UoC/Dissertation/Experiment/OpenSesame/NAP-FC/NAP-FC_GER_AA/GER_AA_ver-1","yes","no","sans","no","20","no","black","no","Next","yes","768","legacy","49","9","0","/Users/aviadalbert/Documents/Academisch/UoC/Dissertation/Experiment/OpenSesame/NAP-FC/NAP-FC_GER_AA/GER_AA_ver-1/subject-3.csv","xpyriment","Jazzy James","3.1.6","yes","yes","59504085b83f69022b47a751","595041f76c613b022ae3ecdb","no","no","0","j","f","space","NA","space","space","j","1190","4340","18774","NA","28294","38806","1190","2","legacy","1024","1","44100","-16","experiment","felal","28","Ulm","2","0","1","German","English, French","3","odd","Cologne","1032394","1013335","NA","1036735","1032390","NA","684051","1032167","684051","684051","896572","924871","1196033","1194529","1197224","980566","963952","1013334","807894","875011","1011667","963738","1032394","963956","NA","1196033","1196033","1061424","1061420","1194525","NAP perception","35","70658","50","yes","1024"
"70.5882352941","yes","70.5882352941","1412.15686275","1412.15686275","white","no","xpyriment","I have read and understood the information shown above","legacy","legacy","0","uniform","1","0","0","undefined","undefined","1","f","1","0","NA","0","0","0","0","0","0","0","0","0","60","60","60","0","0","0","0","0","1","0","0","0","1","60","60","60","60","60","Wed Jun 28 15:18:15 2017","Forced-choice identification task with a practice and an experimental phase","yes","NAP-FC_GER_AA_ver-1.osexp","/Users/aviadalbert/Documents/Academisch/UoC/Dissertation/Experiment/OpenSesame/NAP-FC/NAP-FC_GER_AA/GER_AA_ver-1","yes","no","sans","no","20","no","black","no","Next","yes","768","legacy","50","9","0","/Users/aviadalbert/Documents/Academisch/UoC/Dissertation/Experiment/OpenSesame/NAP-FC/NAP-FC_GER_AA/GER_AA_ver-1/subject-3.csv","xpyriment","Jazzy James","3.1.6","yes","yes","59504085b83f69022b47a751","595041f76c613b022ae3ecdb","no","no","0","f","f","space","NA","space","space","f","1362","4340","18774","NA","28294","38806","1362","2","legacy","1024","1","44100","-16","experiment","smal","28","Ulm","2","0","1","German","English, French","3","odd","Cologne","1032394","1013335","NA","1036735","1032390","NA","684051","1032167","684051","684051","896572","924871","1198991","1197488","1200354","980566","963952","1013334","807894","875011","1011667","963738","1032394","963956","NA","1198991","1198991","1061424","1061420","1197484","NAP perception","36","72020","51","yes","1024"
"71.1538461538","yes","71.1538461538","1403.63461538","1403.63461538","white","no","xpyriment","I have read and understood the information shown above","legacy","legacy","0","uniform","1","0","0","undefined","undefined","1","j","1","0","NA","0","0","0","0","0","0","0","0","0","61","61","61","0","0","0","0","0","1","0","0","0","1","61","61","61","61","61","Wed Jun 28 15:18:15 2017","Forced-choice identification task with a practice and an experimental phase","yes","NAP-FC_GER_AA_ver-1.osexp","/Users/aviadalbert/Documents/Academisch/UoC/Dissertation/Experiment/OpenSesame/NAP-FC/NAP-FC_GER_AA/GER_AA_ver-1","yes","no","sans","no","20","no","black","no","Next","yes","768","legacy","51","9","0","/Users/aviadalbert/Documents/Academisch/UoC/Dissertation/Experiment/OpenSesame/NAP-FC/NAP-FC_GER_AA/GER_AA_ver-1/subject-3.csv","xpyriment","Jazzy James","3.1.6","yes","yes","59504085b83f69022b47a751","595041f76c613b022ae3ecdb","no","no","0","j","f","space","NA","space","space","j","969","4340","18774","NA","28294","38806","969","2","legacy","1024","1","44100","-16","experiment","nepal","28","Ulm","2","0","1","German","English, French","3","odd","Cologne","1032394","1013335","NA","1036735","1032390","NA","684051","1032167","684051","684051","896572","924871","1202140","1200635","1203111","980566","963952","1013334","807894","875011","1011667","963738","1032394","963956","NA","1202139","1202140","1061424","1061420","1200631","NAP perception","37","72989","52","yes","1024"
"71.6981132075","yes","71.6981132075","1412.64150943","1412.64150943","white","no","xpyriment","I have read and understood the information shown above","legacy","legacy","0","uniform","1","0","0","undefined","undefined","1","f","1","0","NA","0","0","0","0","0","0","0","0","0","62","62","62","0","0","0","0","0","1","0","0","0","1","62","62","62","62","62","Wed Jun 28 15:18:15 2017","Forced-choice identification task with a practice and an experimental phase","yes","NAP-FC_GER_AA_ver-1.osexp","/Users/aviadalbert/Documents/Academisch/UoC/Dissertation/Experiment/OpenSesame/NAP-FC/NAP-FC_GER_AA/GER_AA_ver-1","yes","no","sans","no","20","no","black","no","Next","yes","768","legacy","52","9","0","/Users/aviadalbert/Documents/Academisch/UoC/Dissertation/Experiment/OpenSesame/NAP-FC/NAP-FC_GER_AA/GER_AA_ver-1/subject-3.csv","xpyriment","Jazzy James","3.1.6","yes","yes","59504085b83f69022b47a751","595041f76c613b022ae3ecdb","no","no","0","f","f","space","NA","space","space","f","1881","4340","18774","NA","28294","38806","1881","2","legacy","1024","1","44100","-16","experiment","jfal","28","Ulm","2","0","1","German","English, French","3","odd","Cologne","1032394","1013335","NA","1036735","1032390","NA","684051","1032167","684051","684051","896572","924871","1204878","1203374","1206761","980566","963952","1013334","807894","875011","1011667","963738","1032394","963956","NA","1204878","1204878","1061424","1061420","1203370","NAP perception","38","74870","53","yes","1024"
"72.2222222222","yes","72.2222222222","1410.12962963","1410.12962963","white","no","xpyriment","I have read and understood the information shown above","legacy","legacy","0","uniform","1","0","0","undefined","undefined","1","j","1","0","NA","0","0","0","0","0","0","0","0","0","63","63","63","0","0","0","0","0","1","0","0","0","1","63","63","63","63","63","Wed Jun 28 15:18:15 2017","Forced-choice identification task with a practice and an experimental phase","yes","NAP-FC_GER_AA_ver-1.osexp","/Users/aviadalbert/Documents/Academisch/UoC/Dissertation/Experiment/OpenSesame/NAP-FC/NAP-FC_GER_AA/GER_AA_ver-1","yes","no","sans","no","20","no","black","no","Next","yes","768","legacy","53","9","0","/Users/aviadalbert/Documents/Academisch/UoC/Dissertation/Experiment/OpenSesame/NAP-FC/NAP-FC_GER_AA/GER_AA_ver-1/subject-3.csv","xpyriment","Jazzy James","3.1.6","yes","yes","59504085b83f69022b47a751","595041f76c613b022ae3ecdb","no","no","0","j","f","space","NA","space","space","j","1277","4340","18774","NA","28294","38806","1277","2","legacy","1024","1","44100","-16","experiment","welal","28","Ulm","2","0","1","German","English, French","3","odd","Cologne","1032394","1013335","NA","1036735","1032390","NA","684051","1032167","684051","684051","896572","924871","1208527","1207022","1209806","980566","963952","1013334","807894","875011","1011667","963738","1032394","963956","NA","1208526","1208526","1061424","1061420","1207018","NAP perception","39","76147","54","yes","1024"
"72.7272727273","yes","72.7272727273","1400.23636364","1400.23636364","white","no","xpyriment","I have read and understood the information shown above","legacy","legacy","0","uniform","1","0","0","undefined","undefined","1","j","1","0","NA","0","0","0","0","0","0","0","0","0","64","64","64","0","0","0","0","0","1","0","0","0","1","64","64","64","64","64","Wed Jun 28 15:18:15 2017","Forced-choice identification task with a practice and an experimental phase","yes","NAP-FC_GER_AA_ver-1.osexp","/Users/aviadalbert/Documents/Academisch/UoC/Dissertation/Experiment/OpenSesame/NAP-FC/NAP-FC_GER_AA/GER_AA_ver-1","yes","no","sans","no","20","no","black","no","Next","yes","768","legacy","54","9","0","/Users/aviadalbert/Documents/Academisch/UoC/Dissertation/Experiment/OpenSesame/NAP-FC/NAP-FC_GER_AA/GER_AA_ver-1/subject-3.csv","xpyriment","Jazzy James","3.1.6","yes","yes","59504085b83f69022b47a751","595041f76c613b022ae3ecdb","no","no","0","j","f","space","NA","space","space","j","866","4340","18774","NA","28294","38806","866","2","legacy","1024","1","44100","-16","experiment","lefal","28","Ulm","2","0","1","German","English, French","3","odd","Cologne","1032394","1013335","NA","1036735","1032390","NA","684051","1032167","684051","684051","896572","924871","1211558","1210055","1212426","980566","963952","1013334","807894","875011","1011667","963738","1032394","963956","NA","1211558","1211558","1061424","1061420","1210051","NAP perception","40","77013","55","yes","1024"
"73.2142857143","yes","73.2142857143","1390.64285714","1390.64285714","white","no","xpyriment","I have read and understood the information shown above","legacy","legacy","0","uniform","1","0","0","undefined","undefined","1","j","1","0","NA","0","0","0","0","0","0","0","0","0","65","65","65","0","0","0","0","0","1","0","0","0","1","65","65","65","65","65","Wed Jun 28 15:18:15 2017","Forced-choice identification task with a practice and an experimental phase","yes","NAP-FC_GER_AA_ver-1.osexp","/Users/aviadalbert/Documents/Academisch/UoC/Dissertation/Experiment/OpenSesame/NAP-FC/NAP-FC_GER_AA/GER_AA_ver-1","yes","no","sans","no","20","no","black","no","Next","yes","768","legacy","55","9","0","/Users/aviadalbert/Documents/Academisch/UoC/Dissertation/Experiment/OpenSesame/NAP-FC/NAP-FC_GER_AA/GER_AA_ver-1/subject-3.csv","xpyriment","Jazzy James","3.1.6","yes","yes","59504085b83f69022b47a751","595041f76c613b022ae3ecdb","no","no","0","j","f","space","NA","space","space","j","863","4340","18774","NA","28294","38806","863","2","legacy","1024","1","44100","-16","experiment","emtal","28","Ulm","2","0","1","German","English, French","3","odd","Cologne","1032394","1013335","NA","1036735","1032390","NA","684051","1032167","684051","684051","896572","924871","1214204","1212699","1215069","980566","963952","1013334","807894","875011","1011667","963738","1032394","963956","NA","1214203","1214204","1061424","1061420","1212695","NAP perception","41","77876","56","yes","1024"
