"acc","accept_status","accuracy","average_response_time","avg_rt","background","bidi","canvas_backend","checkbox_status","clock_backend","color_backend","compensation","coordinates","correct","correct_block_activation","correct_block_exit","correct_instructions_1","correct_instructions_2","correct_keyboard_response","correct_response","count_block_activation","count_block_exit","count_block_info_QA","count_e_block_loop","count_e_block_sequence","count_end_of_experiment","count_experiment","count_experimental_loop","count_form_consent","count_info_forms","count_instructions_1","count_instructions_2","count_keyboard_response","count_listen_message","count_logger","count_p_block_loop","count_p_block_sequence","count_p_feedback","count_personal_details_form_1","count_personal_details_form_2","count_post_loop_blank","count_practice_loop","count_pre_e_block_message","count_pre_p_block_message","count_reset_feedback","count_stimulus_image","count_stimulus_sound","count_timeout_message","count_timeout_sound","count_trial_sequence","datetime","description","disable_garbage_collection","experiment_file","experiment_path","expyriment_opengl","font_bold","font_family","font_italic","font_size","font_underline","foreground","form_clicks","form_response","fullscreen","height","keyboard_backend","live_row","live_row_p_block_loop","live_row_practice_loop","logfile","mouse_backend","opensesame_codename","opensesame_version","osf_always_upload_data","osf_always_upload_experiment","osf_datanode_id","osf_id","practice","pygame_doublebuf","repeat_cycle","response","response_block_activation","response_block_exit","response_block_info_QA","response_instructions_1","response_instructions_2","response_keyboard_response","response_time","response_time_block_activation","response_time_block_exit","response_time_block_info_QA","response_time_instructions_1","response_time_instructions_2","response_time_keyboard_response","round_decimals","sampler_backend","sound_buf_size","sound_channels","sound_freq","sound_sample_size","start","stimulus","subject_age","subject_birth","subject_education","subject_gender","subject_handedness","subject_language_native","subject_language_other","subject_nr","subject_parity","subject_residence","time_block_activation","time_block_exit","time_block_info_QA","time_e_block_loop","time_e_block_sequence","time_end_of_experiment","time_experiment","time_experimental_loop","time_form_consent","time_info_forms","time_instructions_1","time_instructions_2","time_keyboard_response","time_listen_message","time_logger","time_p_block_loop","time_p_block_sequence","time_p_feedback","time_personal_details_form_1","time_personal_details_form_2","time_post_loop_blank","time_practice_loop","time_pre_e_block_message","time_pre_p_block_message","time_reset_feedback","time_stimulus_image","time_stimulus_sound","time_timeout_message","time_timeout_sound","time_trial_sequence","title","total_correct","total_response_time","total_responses","uniform_coordinates","width"
"100","yes","100","2165","2165","white","no","xpyriment","I have read and understood the information shown above","legacy","legacy","0","uniform","1","0","NA","undefined","undefined","1","f","0","0","NA","NA","NA","NA","0","0","0","0","0","0","0","0","0","0","0","NA","0","0","0","0","NA","0","0","0","0","0","0","0","Wed Jun 28 15:55:47 2017","Forced-choice identification task with a practice and an experimental phase","yes","NAP-FC_GER_AA_ver-1.osexp","/Users/aviadalbert/Documents/Academisch/UoC/Dissertation/Experiment/OpenSesame/NAP-FC/NAP-FC_GER_AA/GER_AA_ver-1","yes","no","sans","no","20","no","black","no","Next","yes","768","legacy","0","0","0","/Users/aviadalbert/Documents/Academisch/UoC/Dissertation/Experiment/OpenSesame/NAP-FC/NAP-FC_GER_AA/GER_AA_ver-1/subject-4.csv","xpyriment","Jazzy James","3.1.6","yes","yes","59504085b83f69022b47a751","595041f76c613b022ae3ecdb","yes","no","0","f","f","NA","NA",";","o","f","2165","8403","NA","NA","48139","14675","2165","2","legacy","1024","1","44100","-16","experiment","flal","30","Arnstadt","2","1","1","German","English","4","even","Köln","3123290","NA","NA","NA","NA","NA","2935912","NA","2935912","2935912","3060201","3108345","3133420","3131917","3135586","3131694","3123286","NA","2963951","3046395","NA","3123084","NA","3123290","NA","3133420","3133420","NA","NA","3131913","NAP perception","1","2165","1","yes","1024"
"100","yes","100","1811","1811","white","no","xpyriment","I have read and understood the information shown above","legacy","legacy","0","uniform","1","0","NA","undefined","undefined","1","j","0","0","NA","NA","NA","NA","0","0","0","0","0","0","1","1","1","0","0","NA","0","0","0","0","NA","0","0","1","1","1","1","1","Wed Jun 28 15:55:47 2017","Forced-choice identification task with a practice and an experimental phase","yes","NAP-FC_GER_AA_ver-1.osexp","/Users/aviadalbert/Documents/Academisch/UoC/Dissertation/Experiment/OpenSesame/NAP-FC/NAP-FC_GER_AA/GER_AA_ver-1","yes","no","sans","no","20","no","black","no","Next","yes","768","legacy","1","1","0","/Users/aviadalbert/Documents/Academisch/UoC/Dissertation/Experiment/OpenSesame/NAP-FC/NAP-FC_GER_AA/GER_AA_ver-1/subject-4.csv","xpyriment","Jazzy James","3.1.6","yes","yes","59504085b83f69022b47a751","595041f76c613b022ae3ecdb","yes","no","0","j","f","NA","NA",";","o","j","1457","8403","NA","NA","48139","14675","1457","2","legacy","1024","1","44100","-16","experiment","lepal","30","Arnstadt","2","1","1","German","English","4","even","Köln","3123290","NA","NA","NA","NA","NA","2935912","NA","2935912","2935912","3060201","3108345","3137397","3135894","3138855","3131694","3123286","NA","2963951","3046395","NA","3123084","NA","3123290","NA","3137397","3137397","NA","NA","3135890","NAP perception","2","3622","2","yes","1024"
"100","yes","100","1521","1521","white","no","xpyriment","I have read and understood the information shown above","legacy","legacy","0","uniform","1","0","NA","undefined","undefined","1","j","0","0","NA","NA","NA","NA","0","0","0","0","0","0","2","2","2","0","0","NA","0","0","0","0","NA","0","0","2","2","2","2","2","Wed Jun 28 15:55:47 2017","Forced-choice identification task with a practice and an experimental phase","yes","NAP-FC_GER_AA_ver-1.osexp","/Users/aviadalbert/Documents/Academisch/UoC/Dissertation/Experiment/OpenSesame/NAP-FC/NAP-FC_GER_AA/GER_AA_ver-1","yes","no","sans","no","20","no","black","no","Next","yes","768","legacy","2","2","0","/Users/aviadalbert/Documents/Academisch/UoC/Dissertation/Experiment/OpenSesame/NAP-FC/NAP-FC_GER_AA/GER_AA_ver-1/subject-4.csv","xpyriment","Jazzy James","3.1.6","yes","yes","59504085b83f69022b47a751","595041f76c613b022ae3ecdb","yes","no","0","j","f","NA","NA",";","o","j","941","8403","NA","NA","48139","14675","941","2","legacy","1024","1","44100","-16","experiment","emtal","30","Arnstadt","2","1","1","German","English","4","even","Köln","3123290","NA","NA","NA","NA","NA","2935912","NA","2935912","2935912","3060201","3108345","3140631","3139126","3141573","3131694","3123286","NA","2963951","3046395","NA","3123084","NA","3123290","NA","3140631","3140631","NA","NA","3139122","NAP perception","3","4563","3","yes","1024"
"100","yes","100","1539.75","1539.75","white","no","xpyriment","I have read and understood the information shown above","legacy","legacy","0","uniform","1","0","NA","undefined","undefined","1","f","0","0","NA","NA","NA","NA","0","0","0","0","0","0","3","3","3","0","0","NA","0","0","0","0","NA","0","0","3","3","3","3","3","Wed Jun 28 15:55:47 2017","Forced-choice identification task with a practice and an experimental phase","yes","NAP-FC_GER_AA_ver-1.osexp","/Users/aviadalbert/Documents/Academisch/UoC/Dissertation/Experiment/OpenSesame/NAP-FC/NAP-FC_GER_AA/GER_AA_ver-1","yes","no","sans","no","20","no","black","no","Next","yes","768","legacy","3","3","0","/Users/aviadalbert/Documents/Academisch/UoC/Dissertation/Experiment/OpenSesame/NAP-FC/NAP-FC_GER_AA/GER_AA_ver-1/subject-4.csv","xpyriment","Jazzy James","3.1.6","yes","yes","59504085b83f69022b47a751","595041f76c613b022ae3ecdb","yes","no","0","f","f","NA","NA",";","o","f","1596","8403","NA","NA","48139","14675","1596","2","legacy","1024","1","44100","-16","experiment","ʃpal","30","Arnstadt","2","1","1","German","English","4","even","Köln","3123290","NA","NA","NA","NA","NA","2935912","NA","2935912","2935912","3060201","3108345","3143353","3141847","3144951","3131694","3123286","NA","2963951","3046395","NA","3123084","NA","3123290","NA","3143353","3143353","NA","NA","3141843","NAP perception","4","6159","4","yes","1024"
"100","yes","100","1471.8","1471.8","white","no","xpyriment","I have read and understood the information shown above","legacy","legacy","0","uniform","1","0","NA","undefined","undefined","1","j","0","0","NA","NA","NA","NA","0","0","0","0","0","0","4","4","4","0","0","NA","0","0","0","0","NA","0","0","4","4","4","4","4","Wed Jun 28 15:55:47 2017","Forced-choice identification task with a practice and an experimental phase","yes","NAP-FC_GER_AA_ver-1.osexp","/Users/aviadalbert/Documents/Academisch/UoC/Dissertation/Experiment/OpenSesame/NAP-FC/NAP-FC_GER_AA/GER_AA_ver-1","yes","no","sans","no","20","no","black","no","Next","yes","768","legacy","4","4","0","/Users/aviadalbert/Documents/Academisch/UoC/Dissertation/Experiment/OpenSesame/NAP-FC/NAP-FC_GER_AA/GER_AA_ver-1/subject-4.csv","xpyriment","Jazzy James","3.1.6","yes","yes","59504085b83f69022b47a751","595041f76c613b022ae3ecdb","yes","no","0","j","f","NA","NA",";","o","j","1200","8403","NA","NA","48139","14675","1200","2","legacy","1024","1","44100","-16","experiment","nefal","30","Arnstadt","2","1","1","German","English","4","even","Köln","3123290","NA","NA","NA","NA","NA","2935912","NA","2935912","2935912","3060201","3108345","3146726","3145220","3147927","3131694","3123286","NA","2963951","3046395","NA","3123084","NA","3123290","NA","3146726","3146726","NA","NA","3145216","NAP perception","5","7359","5","yes","1024"
"100","yes","100","1642","1642","white","no","xpyriment","I have read and understood the information shown above","legacy","legacy","0","uniform","1","0","NA","undefined","undefined","1","f","0","0","NA","NA","NA","NA","0","0","0","0","0","0","5","5","5","0","0","NA","0","0","0","0","NA","0","0","5","5","5","5","5","Wed Jun 28 15:55:47 2017","Forced-choice identification task with a practice and an experimental phase","yes","NAP-FC_GER_AA_ver-1.osexp","/Users/aviadalbert/Documents/Academisch/UoC/Dissertation/Experiment/OpenSesame/NAP-FC/NAP-FC_GER_AA/GER_AA_ver-1","yes","no","sans","no","20","no","black","no","Next","yes","768","legacy","5","5","0","/Users/aviadalbert/Documents/Academisch/UoC/Dissertation/Experiment/OpenSesame/NAP-FC/NAP-FC_GER_AA/GER_AA_ver-1/subject-4.csv","xpyriment","Jazzy James","3.1.6","yes","yes","59504085b83f69022b47a751","595041f76c613b022ae3ecdb","yes","no","0","f","f","NA","NA",";","o","f","2493","8403","NA","NA","48139","14675","2493","2","legacy","1024","1","44100","-16","experiment","sfal","30","Arnstadt","2","1","1","German","English","4","even","Köln","3123290","NA","NA","NA","NA","NA","2935912","NA","2935912","2935912","3060201","3108345","3149700","3148194","3152194","3131694","3123286","NA","2963951","3046395","NA","3123084","NA","3123290","NA","3149699","3149699","NA","NA","3148190","NAP perception","6","9852","6","yes","1024"
"85.7142857143","yes","85.7142857143","1541","1541","white","no","xpyriment","I have read and understood the information shown above","legacy","legacy","0","uniform","0","0","NA","undefined","undefined","0","f","0","0","NA","NA","NA","NA","0","0","0","0","0","0","6","6","6","0","0","NA","0","0","0","0","NA","0","0","6","6","6","6","6","Wed Jun 28 15:55:47 2017","Forced-choice identification task with a practice and an experimental phase","yes","NAP-FC_GER_AA_ver-1.osexp","/Users/aviadalbert/Documents/Academisch/UoC/Dissertation/Experiment/OpenSesame/NAP-FC/NAP-FC_GER_AA/GER_AA_ver-1","yes","no","sans","no","20","no","black","no","Next","yes","768","legacy","6","6","0","/Users/aviadalbert/Documents/Academisch/UoC/Dissertation/Experiment/OpenSesame/NAP-FC/NAP-FC_GER_AA/GER_AA_ver-1/subject-4.csv","xpyriment","Jazzy James","3.1.6","yes","yes","59504085b83f69022b47a751","595041f76c613b022ae3ecdb","yes","no","0","j","f","NA","NA",";","o","j","935","8403","NA","NA","48139","14675","935","2","legacy","1024","1","44100","-16","experiment","zmal","30","Arnstadt","2","1","1","German","English","4","even","Köln","3123290","NA","NA","NA","NA","NA","2935912","NA","2935912","2935912","3060201","3108345","3153967","3152463","3154903","3131694","3123286","NA","2963951","3046395","NA","3123084","NA","3123290","NA","3153966","3153967","NA","NA","3152459","NAP perception","6","10787","7","yes","1024"
"87.5","yes","87.5","1453.75","1453.75","white","no","xpyriment","I have read and understood the information shown above","legacy","legacy","0","uniform","1","0","NA","undefined","undefined","1","j","0","0","NA","NA","NA","NA","0","0","0","0","0","0","7","7","7","0","0","NA","0","0","0","0","NA","0","0","7","7","7","7","7","Wed Jun 28 15:55:47 2017","Forced-choice identification task with a practice and an experimental phase","yes","NAP-FC_GER_AA_ver-1.osexp","/Users/aviadalbert/Documents/Academisch/UoC/Dissertation/Experiment/OpenSesame/NAP-FC/NAP-FC_GER_AA/GER_AA_ver-1","yes","no","sans","no","20","no","black","no","Next","yes","768","legacy","7","7","0","/Users/aviadalbert/Documents/Academisch/UoC/Dissertation/Experiment/OpenSesame/NAP-FC/NAP-FC_GER_AA/GER_AA_ver-1/subject-4.csv","xpyriment","Jazzy James","3.1.6","yes","yes","59504085b83f69022b47a751","595041f76c613b022ae3ecdb","yes","no","0","j","f","NA","NA",";","o","j","843","8403","NA","NA","48139","14675","843","2","legacy","1024","1","44100","-16","experiment","jeval","30","Arnstadt","2","1","1","German","English","4","even","Köln","3123290","NA","NA","NA","NA","NA","2935912","NA","2935912","2935912","3060201","3108345","3156678","3155171","3157523","3131694","3123286","NA","2963951","3046395","NA","3123084","NA","3123290","NA","3156678","3156678","NA","NA","3155167","NAP perception","7","11630","8","yes","1024"
"88.8888888889","yes","88.8888888889","1372.11111111","1372.11111111","white","no","xpyriment","I have read and understood the information shown above","legacy","legacy","0","uniform","1","0","NA","undefined","undefined","1","j","0","0","NA","NA","NA","NA","0","0","0","0","0","0","8","8","8","0","0","NA","0","0","0","0","NA","0","0","8","8","8","8","8","Wed Jun 28 15:55:47 2017","Forced-choice identification task with a practice and an experimental phase","yes","NAP-FC_GER_AA_ver-1.osexp","/Users/aviadalbert/Documents/Academisch/UoC/Dissertation/Experiment/OpenSesame/NAP-FC/NAP-FC_GER_AA/GER_AA_ver-1","yes","no","sans","no","20","no","black","no","Next","yes","768","legacy","8","8","0","/Users/aviadalbert/Documents/Academisch/UoC/Dissertation/Experiment/OpenSesame/NAP-FC/NAP-FC_GER_AA/GER_AA_ver-1/subject-4.csv","xpyriment","Jazzy James","3.1.6","yes","yes","59504085b83f69022b47a751","595041f76c613b022ae3ecdb","yes","no","0","j","f","NA","NA",";","o","j","719","8403","NA","NA","48139","14675","719","2","legacy","1024","1","44100","-16","experiment","enval","30","Arnstadt","2","1","1","German","English","4","even","Köln","3123290","NA","NA","NA","NA","NA","2935912","NA","2935912","2935912","3060201","3108345","3159306","3157802","3160026","3131694","3123286","NA","2963951","3046395","NA","3123084","NA","3123290","NA","3159306","3159306","NA","NA","3157798","NAP perception","8","12349","9","yes","1024"
"90","yes","90","1430.9","1430.9","white","no","xpyriment","I have read and understood the information shown above","legacy","legacy","0","uniform","1","0","NA","undefined","undefined","1","f","0","0","NA","NA","NA","NA","0","0","0","0","0","0","9","9","9","0","0","NA","0","0","0","0","NA","0","0","9","9","9","9","9","Wed Jun 28 15:55:47 2017","Forced-choice identification task with a practice and an experimental phase","yes","NAP-FC_GER_AA_ver-1.osexp","/Users/aviadalbert/Documents/Academisch/UoC/Dissertation/Experiment/OpenSesame/NAP-FC/NAP-FC_GER_AA/GER_AA_ver-1","yes","no","sans","no","20","no","black","no","Next","yes","768","legacy","9","9","0","/Users/aviadalbert/Documents/Academisch/UoC/Dissertation/Experiment/OpenSesame/NAP-FC/NAP-FC_GER_AA/GER_AA_ver-1/subject-4.csv","xpyriment","Jazzy James","3.1.6","yes","yes","59504085b83f69022b47a751","595041f76c613b022ae3ecdb","yes","no","0","f","f","NA","NA",";","o","f","1960","8403","NA","NA","48139","14675","1960","2","legacy","1024","1","44100","-16","experiment","vlal","30","Arnstadt","2","1","1","German","English","4","even","Köln","3123290","NA","NA","NA","NA","NA","2935912","NA","2935912","2935912","3060201","3108345","3161815","3160311","3163776","3131694","3123286","NA","2963951","3046395","NA","3123084","NA","3123290","NA","3161815","3161815","NA","NA","3160307","NAP perception","9","14309","10","yes","1024"
"100","yes","100","1875","1875","white","no","xpyriment","I have read and understood the information shown above","legacy","legacy","0","uniform","1","0","0","undefined","undefined","1","f","1","0","NA","0","0","0","0","0","0","0","0","0","10","10","10","0","0","0","0","0","1","0","0","0","1","10","10","10","10","10","Wed Jun 28 15:55:47 2017","Forced-choice identification task with a practice and an experimental phase","yes","NAP-FC_GER_AA_ver-1.osexp","/Users/aviadalbert/Documents/Academisch/UoC/Dissertation/Experiment/OpenSesame/NAP-FC/NAP-FC_GER_AA/GER_AA_ver-1","yes","no","sans","no","20","no","black","no","Next","yes","768","legacy","0","9","0","/Users/aviadalbert/Documents/Academisch/UoC/Dissertation/Experiment/OpenSesame/NAP-FC/NAP-FC_GER_AA/GER_AA_ver-1/subject-4.csv","xpyriment","Jazzy James","3.1.6","yes","yes","59504085b83f69022b47a751","595041f76c613b022ae3ecdb","no","no","0","f","f","space","NA",";","o","f","1875","4682","10585","NA","48139","14675","1875","2","legacy","1024","1","44100","-16","experiment","lmal","30","Arnstadt","2","1","1","German","English","4","even","Köln","3176398","3165522","NA","3181081","3176394","NA","2935912","3176170","2935912","2935912","3060201","3108345","3182797","3181289","3184673","3131694","3123286","3165521","2963951","3046395","3163847","3123084","3176397","3123290","NA","3182796","3182796","NA","NA","3181286","NAP perception","1","1875","1","yes","1024"
"100","yes","100","1394.5","1394.5","white","no","xpyriment","I have read and understood the information shown above","legacy","legacy","0","uniform","1","0","0","undefined","undefined","1","j","1","0","NA","0","0","0","0","0","0","0","0","0","11","11","11","0","0","0","0","0","1","0","0","0","1","11","11","11","11","11","Wed Jun 28 15:55:47 2017","Forced-choice identification task with a practice and an experimental phase","yes","NAP-FC_GER_AA_ver-1.osexp","/Users/aviadalbert/Documents/Academisch/UoC/Dissertation/Experiment/OpenSesame/NAP-FC/NAP-FC_GER_AA/GER_AA_ver-1","yes","no","sans","no","20","no","black","no","Next","yes","768","legacy","1","9","0","/Users/aviadalbert/Documents/Academisch/UoC/Dissertation/Experiment/OpenSesame/NAP-FC/NAP-FC_GER_AA/GER_AA_ver-1/subject-4.csv","xpyriment","Jazzy James","3.1.6","yes","yes","59504085b83f69022b47a751","595041f76c613b022ae3ecdb","no","no","0","j","f","space","NA",";","o","j","914","4682","10585","NA","48139","14675","914","2","legacy","1024","1","44100","-16","experiment","wetal","30","Arnstadt","2","1","1","German","English","4","even","Köln","3176398","3165522","NA","3181081","3176394","NA","2935912","3176170","2935912","2935912","3060201","3108345","3186439","3184936","3187354","3131694","3123286","3165521","2963951","3046395","3163847","3123084","3176397","3123290","NA","3186439","3186439","NA","NA","3184932","NAP perception","2","2789","2","yes","1024"
"100","yes","100","1547.66666667","1547.66666667","white","no","xpyriment","I have read and understood the information shown above","legacy","legacy","0","uniform","1","0","0","undefined","undefined","1","f","1","0","NA","0","0","0","0","0","0","0","0","0","12","12","12","0","0","0","0","0","1","0","0","0","1","12","12","12","12","12","Wed Jun 28 15:55:47 2017","Forced-choice identification task with a practice and an experimental phase","yes","NAP-FC_GER_AA_ver-1.osexp","/Users/aviadalbert/Documents/Academisch/UoC/Dissertation/Experiment/OpenSesame/NAP-FC/NAP-FC_GER_AA/GER_AA_ver-1","yes","no","sans","no","20","no","black","no","Next","yes","768","legacy","2","9","0","/Users/aviadalbert/Documents/Academisch/UoC/Dissertation/Experiment/OpenSesame/NAP-FC/NAP-FC_GER_AA/GER_AA_ver-1/subject-4.csv","xpyriment","Jazzy James","3.1.6","yes","yes","59504085b83f69022b47a751","595041f76c613b022ae3ecdb","no","no","0","f","f","space","NA",";","o","f","1854","4682","10585","NA","48139","14675","1854","2","legacy","1024","1","44100","-16","experiment","spal","30","Arnstadt","2","1","1","German","English","4","even","Köln","3176398","3165522","NA","3181081","3176394","NA","2935912","3176170","2935912","2935912","3060201","3108345","3189138","3187634","3190993","3131694","3123286","3165521","2963951","3046395","3163847","3123084","3176397","3123290","NA","3189138","3189138","NA","NA","3187630","NAP perception","3","4643","3","yes","1024"
"75","yes","75","1719.5","1719.5","white","no","xpyriment","I have read and understood the information shown above","legacy","legacy","0","uniform","0","0","0","undefined","undefined","0","f","1","0","NA","0","0","0","0","0","0","0","0","0","13","13","13","0","0","0","0","0","1","0","0","0","1","13","13","13","13","13","Wed Jun 28 15:55:47 2017","Forced-choice identification task with a practice and an experimental phase","yes","NAP-FC_GER_AA_ver-1.osexp","/Users/aviadalbert/Documents/Academisch/UoC/Dissertation/Experiment/OpenSesame/NAP-FC/NAP-FC_GER_AA/GER_AA_ver-1","yes","no","sans","no","20","no","black","no","Next","yes","768","legacy","3","9","0","/Users/aviadalbert/Documents/Academisch/UoC/Dissertation/Experiment/OpenSesame/NAP-FC/NAP-FC_GER_AA/GER_AA_ver-1/subject-4.csv","xpyriment","Jazzy James","3.1.6","yes","yes","59504085b83f69022b47a751","595041f76c613b022ae3ecdb","no","no","0","j","f","space","NA",";","o","j","2235","4682","10585","NA","48139","14675","2235","2","legacy","1024","1","44100","-16","experiment","mlal","30","Arnstadt","2","1","1","German","English","4","even","Köln","3176398","3165522","NA","3181081","3176394","NA","2935912","3176170","2935912","2935912","3060201","3108345","3192776","3191270","3195013","3131694","3123286","3165521","2963951","3046395","3163847","3123084","3176397","3123290","NA","3192775","3192776","NA","NA","3191266","NAP perception","3","6878","4","yes","1024"
"80","yes","80","1576","1576","white","no","xpyriment","I have read and understood the information shown above","legacy","legacy","0","uniform","1","0","0","undefined","undefined","1","j","1","0","NA","0","0","0","0","0","0","0","0","0","14","14","14","0","0","0","0","0","1","0","0","0","1","14","14","14","14","14","Wed Jun 28 15:55:47 2017","Forced-choice identification task with a practice and an experimental phase","yes","NAP-FC_GER_AA_ver-1.osexp","/Users/aviadalbert/Documents/Academisch/UoC/Dissertation/Experiment/OpenSesame/NAP-FC/NAP-FC_GER_AA/GER_AA_ver-1","yes","no","sans","no","20","no","black","no","Next","yes","768","legacy","4","9","0","/Users/aviadalbert/Documents/Academisch/UoC/Dissertation/Experiment/OpenSesame/NAP-FC/NAP-FC_GER_AA/GER_AA_ver-1/subject-4.csv","xpyriment","Jazzy James","3.1.6","yes","yes","59504085b83f69022b47a751","595041f76c613b022ae3ecdb","no","no","0","j","f","space","NA",";","o","j","1002","4682","10585","NA","48139","14675","1002","2","legacy","1024","1","44100","-16","experiment","eʃpal","30","Arnstadt","2","1","1","German","English","4","even","Köln","3176398","3165522","NA","3181081","3176394","NA","2935912","3176170","2935912","2935912","3060201","3108345","3196797","3195289","3197801","3131694","3123286","3165521","2963951","3046395","3163847","3123084","3176397","3123290","NA","3196796","3196797","NA","NA","3195285","NAP perception","4","7880","5","yes","1024"
"83.3333333333","yes","83.3333333333","1451.16666667","1451.16666667","white","no","xpyriment","I have read and understood the information shown above","legacy","legacy","0","uniform","1","0","0","undefined","undefined","1","j","1","0","NA","0","0","0","0","0","0","0","0","0","15","15","15","0","0","0","0","0","1","0","0","0","1","15","15","15","15","15","Wed Jun 28 15:55:47 2017","Forced-choice identification task with a practice and an experimental phase","yes","NAP-FC_GER_AA_ver-1.osexp","/Users/aviadalbert/Documents/Academisch/UoC/Dissertation/Experiment/OpenSesame/NAP-FC/NAP-FC_GER_AA/GER_AA_ver-1","yes","no","sans","no","20","no","black","no","Next","yes","768","legacy","5","9","0","/Users/aviadalbert/Documents/Academisch/UoC/Dissertation/Experiment/OpenSesame/NAP-FC/NAP-FC_GER_AA/GER_AA_ver-1/subject-4.csv","xpyriment","Jazzy James","3.1.6","yes","yes","59504085b83f69022b47a751","595041f76c613b022ae3ecdb","no","no","0","j","f","space","NA",";","o","j","827","4682","10585","NA","48139","14675","827","2","legacy","1024","1","44100","-16","experiment","enfal","30","Arnstadt","2","1","1","German","English","4","even","Köln","3176398","3165522","NA","3181081","3176394","NA","2935912","3176170","2935912","2935912","3060201","3108345","3199587","3198083","3200415","3131694","3123286","3165521","2963951","3046395","3163847","3123084","3176397","3123290","NA","3199587","3199587","NA","NA","3198079","NAP perception","5","8707","6","yes","1024"
"85.7142857143","yes","85.7142857143","1370.14285714","1370.14285714","white","no","xpyriment","I have read and understood the information shown above","legacy","legacy","0","uniform","1","0","0","undefined","undefined","1","j","1","0","NA","0","0","0","0","0","0","0","0","0","16","16","16","0","0","0","0","0","1","0","0","0","1","16","16","16","16","16","Wed Jun 28 15:55:47 2017","Forced-choice identification task with a practice and an experimental phase","yes","NAP-FC_GER_AA_ver-1.osexp","/Users/aviadalbert/Documents/Academisch/UoC/Dissertation/Experiment/OpenSesame/NAP-FC/NAP-FC_GER_AA/GER_AA_ver-1","yes","no","sans","no","20","no","black","no","Next","yes","768","legacy","6","9","0","/Users/aviadalbert/Documents/Academisch/UoC/Dissertation/Experiment/OpenSesame/NAP-FC/NAP-FC_GER_AA/GER_AA_ver-1/subject-4.csv","xpyriment","Jazzy James","3.1.6","yes","yes","59504085b83f69022b47a751","595041f76c613b022ae3ecdb","no","no","0","j","f","space","NA",";","o","j","884","4682","10585","NA","48139","14675","884","2","legacy","1024","1","44100","-16","experiment","sepal","30","Arnstadt","2","1","1","German","English","4","even","Köln","3176398","3165522","NA","3181081","3176394","NA","2935912","3176170","2935912","2935912","3060201","3108345","3202194","3200687","3203080","3131694","3123286","3165521","2963951","3046395","3163847","3123084","3176397","3123290","NA","3202193","3202193","NA","NA","3200683","NAP perception","6","9591","7","yes","1024"
"75","yes","75","1296.125","1296.125","white","no","xpyriment","I have read and understood the information shown above","legacy","legacy","0","uniform","0","0","0","undefined","undefined","0","f","1","0","NA","0","0","0","0","0","0","0","0","0","17","17","17","0","0","0","0","0","1","0","0","0","1","17","17","17","17","17","Wed Jun 28 15:55:47 2017","Forced-choice identification task with a practice and an experimental phase","yes","NAP-FC_GER_AA_ver-1.osexp","/Users/aviadalbert/Documents/Academisch/UoC/Dissertation/Experiment/OpenSesame/NAP-FC/NAP-FC_GER_AA/GER_AA_ver-1","yes","no","sans","no","20","no","black","no","Next","yes","768","legacy","7","9","0","/Users/aviadalbert/Documents/Academisch/UoC/Dissertation/Experiment/OpenSesame/NAP-FC/NAP-FC_GER_AA/GER_AA_ver-1/subject-4.csv","xpyriment","Jazzy James","3.1.6","yes","yes","59504085b83f69022b47a751","595041f76c613b022ae3ecdb","no","no","0","j","f","space","NA",";","o","j","778","4682","10585","NA","48139","14675","778","2","legacy","1024","1","44100","-16","experiment","mtal","30","Arnstadt","2","1","1","German","English","4","even","Köln","3176398","3165522","NA","3181081","3176394","NA","2935912","3176170","2935912","2935912","3060201","3108345","3204862","3203356","3205641","3131694","3123286","3165521","2963951","3046395","3163847","3123084","3176397","3123290","NA","3204861","3204861","NA","NA","3203351","NAP perception","6","10369","8","yes","1024"
"77.7777777778","yes","77.7777777778","1261","1261","white","no","xpyriment","I have read and understood the information shown above","legacy","legacy","0","uniform","1","0","0","undefined","undefined","1","f","1","0","NA","0","0","0","0","0","0","0","0","0","18","18","18","0","0","0","0","0","1","0","0","0","1","18","18","18","18","18","Wed Jun 28 15:55:47 2017","Forced-choice identification task with a practice and an experimental phase","yes","NAP-FC_GER_AA_ver-1.osexp","/Users/aviadalbert/Documents/Academisch/UoC/Dissertation/Experiment/OpenSesame/NAP-FC/NAP-FC_GER_AA/GER_AA_ver-1","yes","no","sans","no","20","no","black","no","Next","yes","768","legacy","8","9","0","/Users/aviadalbert/Documents/Academisch/UoC/Dissertation/Experiment/OpenSesame/NAP-FC/NAP-FC_GER_AA/GER_AA_ver-1/subject-4.csv","xpyriment","Jazzy James","3.1.6","yes","yes","59504085b83f69022b47a751","595041f76c613b022ae3ecdb","no","no","0","f","f","space","NA",";","o","f","980","4682","10585","NA","48139","14675","980","2","legacy","1024","1","44100","-16","experiment","ʃfal","30","Arnstadt","2","1","1","German","English","4","even","Köln","3176398","3165522","NA","3181081","3176394","NA","2935912","3176170","2935912","2935912","3060201","3108345","3207407","3205904","3208388","3131694","3123286","3165521","2963951","3046395","3163847","3123084","3176397","3123290","NA","3207407","3207407","NA","NA","3205900","NAP perception","7","11349","9","yes","1024"
"80","yes","80","1252.3","1252.3","white","no","xpyriment","I have read and understood the information shown above","legacy","legacy","0","uniform","1","0","0","undefined","undefined","1","f","1","0","NA","0","0","0","0","0","0","0","0","0","19","19","19","0","0","0","0","0","1","0","0","0","1","19","19","19","19","19","Wed Jun 28 15:55:47 2017","Forced-choice identification task with a practice and an experimental phase","yes","NAP-FC_GER_AA_ver-1.osexp","/Users/aviadalbert/Documents/Academisch/UoC/Dissertation/Experiment/OpenSesame/NAP-FC/NAP-FC_GER_AA/GER_AA_ver-1","yes","no","sans","no","20","no","black","no","Next","yes","768","legacy","9","9","0","/Users/aviadalbert/Documents/Academisch/UoC/Dissertation/Experiment/OpenSesame/NAP-FC/NAP-FC_GER_AA/GER_AA_ver-1/subject-4.csv","xpyriment","Jazzy James","3.1.6","yes","yes","59504085b83f69022b47a751","595041f76c613b022ae3ecdb","no","no","0","f","f","space","NA",";","o","f","1174","4682","10585","NA","48139","14675","1174","2","legacy","1024","1","44100","-16","experiment","ʃpal","30","Arnstadt","2","1","1","German","English","4","even","Köln","3176398","3165522","NA","3181081","3176394","NA","2935912","3176170","2935912","2935912","3060201","3108345","3210173","3208670","3211348","3131694","3123286","3165521","2963951","3046395","3163847","3123084","3176397","3123290","NA","3210173","3210173","NA","NA","3208666","NAP perception","8","12523","10","yes","1024"
"72.7272727273","yes","72.7272727273","1332.54545455","1332.54545455","white","no","xpyriment","I have read and understood the information shown above","legacy","legacy","0","uniform","0","0","0","undefined","undefined","0","f","1","0","NA","0","0","0","0","0","0","0","0","0","20","20","20","0","0","0","0","0","1","0","0","0","1","20","20","20","20","20","Wed Jun 28 15:55:47 2017","Forced-choice identification task with a practice and an experimental phase","yes","NAP-FC_GER_AA_ver-1.osexp","/Users/aviadalbert/Documents/Academisch/UoC/Dissertation/Experiment/OpenSesame/NAP-FC/NAP-FC_GER_AA/GER_AA_ver-1","yes","no","sans","no","20","no","black","no","Next","yes","768","legacy","10","9","0","/Users/aviadalbert/Documents/Academisch/UoC/Dissertation/Experiment/OpenSesame/NAP-FC/NAP-FC_GER_AA/GER_AA_ver-1/subject-4.csv","xpyriment","Jazzy James","3.1.6","yes","yes","59504085b83f69022b47a751","595041f76c613b022ae3ecdb","no","no","0","j","f","space","NA",";","o","j","2135","4682","10585","NA","48139","14675","2135","2","legacy","1024","1","44100","-16","experiment","lfal","30","Arnstadt","2","1","1","German","English","4","even","Köln","3176398","3165522","NA","3181081","3176394","NA","2935912","3176170","2935912","2935912","3060201","3108345","3213126","3211619","3215263","3131694","3123286","3165521","2963951","3046395","3163847","3123084","3176397","3123290","NA","3213126","3213126","NA","NA","3211615","NAP perception","8","14658","11","yes","1024"
"75","yes","75","1277.5","1277.5","white","no","xpyriment","I have read and understood the information shown above","legacy","legacy","0","uniform","1","0","0","undefined","undefined","1","j","1","0","NA","0","0","0","0","0","0","0","0","0","21","21","21","0","0","0","0","0","1","0","0","0","1","21","21","21","21","21","Wed Jun 28 15:55:47 2017","Forced-choice identification task with a practice and an experimental phase","yes","NAP-FC_GER_AA_ver-1.osexp","/Users/aviadalbert/Documents/Academisch/UoC/Dissertation/Experiment/OpenSesame/NAP-FC/NAP-FC_GER_AA/GER_AA_ver-1","yes","no","sans","no","20","no","black","no","Next","yes","768","legacy","11","9","0","/Users/aviadalbert/Documents/Academisch/UoC/Dissertation/Experiment/OpenSesame/NAP-FC/NAP-FC_GER_AA/GER_AA_ver-1/subject-4.csv","xpyriment","Jazzy James","3.1.6","yes","yes","59504085b83f69022b47a751","595041f76c613b022ae3ecdb","no","no","0","j","f","space","NA",";","o","j","672","4682","10585","NA","48139","14675","672","2","legacy","1024","1","44100","-16","experiment","jepal","30","Arnstadt","2","1","1","German","English","4","even","Köln","3176398","3165522","NA","3181081","3176394","NA","2935912","3176170","2935912","2935912","3060201","3108345","3217047","3215542","3217720","3131694","3123286","3165521","2963951","3046395","3163847","3123084","3176397","3123290","NA","3217046","3217046","NA","NA","3215538","NAP perception","9","15330","12","yes","1024"
"69.2307692308","yes","69.2307692308","1233.69230769","1233.69230769","white","no","xpyriment","I have read and understood the information shown above","legacy","legacy","0","uniform","0","0","0","undefined","undefined","0","f","1","0","NA","0","0","0","0","0","0","0","0","0","22","22","22","0","0","0","0","0","1","0","0","0","1","22","22","22","22","22","Wed Jun 28 15:55:47 2017","Forced-choice identification task with a practice and an experimental phase","yes","NAP-FC_GER_AA_ver-1.osexp","/Users/aviadalbert/Documents/Academisch/UoC/Dissertation/Experiment/OpenSesame/NAP-FC/NAP-FC_GER_AA/GER_AA_ver-1","yes","no","sans","no","20","no","black","no","Next","yes","768","legacy","12","9","0","/Users/aviadalbert/Documents/Academisch/UoC/Dissertation/Experiment/OpenSesame/NAP-FC/NAP-FC_GER_AA/GER_AA_ver-1/subject-4.csv","xpyriment","Jazzy James","3.1.6","yes","yes","59504085b83f69022b47a751","595041f76c613b022ae3ecdb","no","no","0","j","f","space","NA",";","o","j","708","4682","10585","NA","48139","14675","708","2","legacy","1024","1","44100","-16","experiment","wsal","30","Arnstadt","2","1","1","German","English","4","even","Köln","3176398","3165522","NA","3181081","3176394","NA","2935912","3176170","2935912","2935912","3060201","3108345","3219499","3217996","3220209","3131694","3123286","3165521","2963951","3046395","3163847","3123084","3176397","3123290","NA","3219499","3219499","NA","NA","3217992","NAP perception","9","16038","13","yes","1024"
"64.2857142857","yes","64.2857142857","1195.85714286","1195.85714286","white","no","xpyriment","I have read and understood the information shown above","legacy","legacy","0","uniform","0","0","0","undefined","undefined","0","f","1","0","NA","0","0","0","0","0","0","0","0","0","23","23","23","0","0","0","0","0","1","0","0","0","1","23","23","23","23","23","Wed Jun 28 15:55:47 2017","Forced-choice identification task with a practice and an experimental phase","yes","NAP-FC_GER_AA_ver-1.osexp","/Users/aviadalbert/Documents/Academisch/UoC/Dissertation/Experiment/OpenSesame/NAP-FC/NAP-FC_GER_AA/GER_AA_ver-1","yes","no","sans","no","20","no","black","no","Next","yes","768","legacy","13","9","0","/Users/aviadalbert/Documents/Academisch/UoC/Dissertation/Experiment/OpenSesame/NAP-FC/NAP-FC_GER_AA/GER_AA_ver-1/subject-4.csv","xpyriment","Jazzy James","3.1.6","yes","yes","59504085b83f69022b47a751","595041f76c613b022ae3ecdb","no","no","0","j","f","space","NA",";","o","j","704","4682","10585","NA","48139","14675","704","2","legacy","1024","1","44100","-16","experiment","mzal","30","Arnstadt","2","1","1","German","English","4","even","Köln","3176398","3165522","NA","3181081","3176394","NA","2935912","3176170","2935912","2935912","3060201","3108345","3222006","3220502","3222711","3131694","3123286","3165521","2963951","3046395","3163847","3123084","3176397","3123290","NA","3222006","3222006","NA","NA","3220498","NAP perception","9","16742","14","yes","1024"
"60","yes","60","1229.33333333","1229.33333333","white","no","xpyriment","I have read and understood the information shown above","legacy","legacy","0","uniform","0","0","0","undefined","undefined","0","f","1","0","NA","0","0","0","0","0","0","0","0","0","24","24","24","0","0","0","0","0","1","0","0","0","1","24","24","24","24","24","Wed Jun 28 15:55:47 2017","Forced-choice identification task with a practice and an experimental phase","yes","NAP-FC_GER_AA_ver-1.osexp","/Users/aviadalbert/Documents/Academisch/UoC/Dissertation/Experiment/OpenSesame/NAP-FC/NAP-FC_GER_AA/GER_AA_ver-1","yes","no","sans","no","20","no","black","no","Next","yes","768","legacy","14","9","0","/Users/aviadalbert/Documents/Academisch/UoC/Dissertation/Experiment/OpenSesame/NAP-FC/NAP-FC_GER_AA/GER_AA_ver-1/subject-4.csv","xpyriment","Jazzy James","3.1.6","yes","yes","59504085b83f69022b47a751","595041f76c613b022ae3ecdb","no","no","0","j","f","space","NA",";","o","j","1698","4682","10585","NA","48139","14675","1698","2","legacy","1024","1","44100","-16","experiment","wnal","30","Arnstadt","2","1","1","German","English","4","even","Köln","3176398","3165522","NA","3181081","3176394","NA","2935912","3176170","2935912","2935912","3060201","3108345","3224496","3222990","3226196","3131694","3123286","3165521","2963951","3046395","3163847","3123084","3176397","3123290","NA","3224496","3224496","NA","NA","3222986","NAP perception","9","18440","15","yes","1024"
"62.5","yes","62.5","1204.5625","1204.5625","white","no","xpyriment","I have read and understood the information shown above","legacy","legacy","0","uniform","1","0","0","undefined","undefined","1","j","1","0","NA","0","0","0","0","0","0","0","0","0","25","25","25","0","0","0","0","0","1","0","0","0","1","25","25","25","25","25","Wed Jun 28 15:55:47 2017","Forced-choice identification task with a practice and an experimental phase","yes","NAP-FC_GER_AA_ver-1.osexp","/Users/aviadalbert/Documents/Academisch/UoC/Dissertation/Experiment/OpenSesame/NAP-FC/NAP-FC_GER_AA/GER_AA_ver-1","yes","no","sans","no","20","no","black","no","Next","yes","768","legacy","15","9","0","/Users/aviadalbert/Documents/Academisch/UoC/Dissertation/Experiment/OpenSesame/NAP-FC/NAP-FC_GER_AA/GER_AA_ver-1/subject-4.csv","xpyriment","Jazzy James","3.1.6","yes","yes","59504085b83f69022b47a751","595041f76c613b022ae3ecdb","no","no","0","j","f","space","NA",";","o","j","833","4682","10585","NA","48139","14675","833","2","legacy","1024","1","44100","-16","experiment","emlal","30","Arnstadt","2","1","1","German","English","4","even","Köln","3176398","3165522","NA","3181081","3176394","NA","2935912","3176170","2935912","2935912","3060201","3108345","3227970","3226464","3228805","3131694","3123286","3165521","2963951","3046395","3163847","3123084","3176397","3123290","NA","3227970","3227970","NA","NA","3226460","NAP perception","10","19273","16","yes","1024"
"64.7058823529","yes","64.7058823529","1228.94117647","1228.94117647","white","no","xpyriment","I have read and understood the information shown above","legacy","legacy","0","uniform","1","0","0","undefined","undefined","1","j","1","0","NA","0","0","0","0","0","0","0","0","0","26","26","26","0","0","0","0","0","1","0","0","0","1","26","26","26","26","26","Wed Jun 28 15:55:47 2017","Forced-choice identification task with a practice and an experimental phase","yes","NAP-FC_GER_AA_ver-1.osexp","/Users/aviadalbert/Documents/Academisch/UoC/Dissertation/Experiment/OpenSesame/NAP-FC/NAP-FC_GER_AA/GER_AA_ver-1","yes","no","sans","no","20","no","black","no","Next","yes","768","legacy","16","9","0","/Users/aviadalbert/Documents/Academisch/UoC/Dissertation/Experiment/OpenSesame/NAP-FC/NAP-FC_GER_AA/GER_AA_ver-1/subject-4.csv","xpyriment","Jazzy James","3.1.6","yes","yes","59504085b83f69022b47a751","595041f76c613b022ae3ecdb","no","no","0","j","f","space","NA",";","o","j","1619","4682","10585","NA","48139","14675","1619","2","legacy","1024","1","44100","-16","experiment","welal","30","Arnstadt","2","1","1","German","English","4","even","Köln","3176398","3165522","NA","3181081","3176394","NA","2935912","3176170","2935912","2935912","3060201","3108345","3230593","3229089","3232213","3131694","3123286","3165521","2963951","3046395","3163847","3123084","3176397","3123290","NA","3230593","3230593","NA","NA","3229085","NAP perception","11","20892","17","yes","1024"
"66.6666666667","yes","66.6666666667","1209.27777778","1209.27777778","white","no","xpyriment","I have read and understood the information shown above","legacy","legacy","0","uniform","1","0","0","undefined","undefined","1","j","1","0","NA","0","0","0","0","0","0","0","0","0","27","27","27","0","0","0","0","0","1","0","0","0","1","27","27","27","27","27","Wed Jun 28 15:55:47 2017","Forced-choice identification task with a practice and an experimental phase","yes","NAP-FC_GER_AA_ver-1.osexp","/Users/aviadalbert/Documents/Academisch/UoC/Dissertation/Experiment/OpenSesame/NAP-FC/NAP-FC_GER_AA/GER_AA_ver-1","yes","no","sans","no","20","no","black","no","Next","yes","768","legacy","17","9","0","/Users/aviadalbert/Documents/Academisch/UoC/Dissertation/Experiment/OpenSesame/NAP-FC/NAP-FC_GER_AA/GER_AA_ver-1/subject-4.csv","xpyriment","Jazzy James","3.1.6","yes","yes","59504085b83f69022b47a751","595041f76c613b022ae3ecdb","no","no","0","j","f","space","NA",";","o","j","875","4682","10585","NA","48139","14675","875","2","legacy","1024","1","44100","-16","experiment","elkal","30","Arnstadt","2","1","1","German","English","4","even","Köln","3176398","3165522","NA","3181081","3176394","NA","2935912","3176170","2935912","2935912","3060201","3108345","3234006","3232499","3234882","3131694","3123286","3165521","2963951","3046395","3163847","3123084","3176397","3123290","NA","3234005","3234005","NA","NA","3232495","NAP perception","12","21767","18","yes","1024"
"63.1578947368","yes","63.1578947368","1303.57894737","1303.57894737","white","no","xpyriment","I have read and understood the information shown above","legacy","legacy","0","uniform","0","0","0","undefined","undefined","0","f","1","0","NA","0","0","0","0","0","0","0","0","0","28","28","28","0","0","0","0","0","1","0","0","0","1","28","28","28","28","28","Wed Jun 28 15:55:47 2017","Forced-choice identification task with a practice and an experimental phase","yes","NAP-FC_GER_AA_ver-1.osexp","/Users/aviadalbert/Documents/Academisch/UoC/Dissertation/Experiment/OpenSesame/NAP-FC/NAP-FC_GER_AA/GER_AA_ver-1","yes","no","sans","no","20","no","black","no","Next","yes","768","legacy","18","9","0","/Users/aviadalbert/Documents/Academisch/UoC/Dissertation/Experiment/OpenSesame/NAP-FC/NAP-FC_GER_AA/GER_AA_ver-1/subject-4.csv","xpyriment","Jazzy James","3.1.6","yes","yes","59504085b83f69022b47a751","595041f76c613b022ae3ecdb","no","no","0","None","f","space","NA",";","o","None","3001","4682","10585","NA","48139","14675","3001","2","legacy","1024","1","44100","-16","experiment","lkal","30","Arnstadt","2","1","1","German","English","4","even","Köln","3176398","3165522","NA","3181081","3176394","NA","2935912","3176170","2935912","2935912","3060201","3108345","3236660","3235153","3240665","3131694","3123286","3165521","2963951","3046395","3163847","3123084","3176397","3123290","NA","3236660","3236660","3239664","3239661","3235149","NAP perception","12","24768","19","yes","1024"
"60","yes","60","1304.75","1304.75","white","no","xpyriment","I have read and understood the information shown above","legacy","legacy","0","uniform","0","0","0","undefined","undefined","0","f","1","0","NA","0","0","0","0","0","0","0","0","0","29","29","29","0","0","0","0","0","1","0","0","0","1","29","29","29","29","29","Wed Jun 28 15:55:47 2017","Forced-choice identification task with a practice and an experimental phase","yes","NAP-FC_GER_AA_ver-1.osexp","/Users/aviadalbert/Documents/Academisch/UoC/Dissertation/Experiment/OpenSesame/NAP-FC/NAP-FC_GER_AA/GER_AA_ver-1","yes","no","sans","no","20","no","black","no","Next","yes","768","legacy","19","9","0","/Users/aviadalbert/Documents/Academisch/UoC/Dissertation/Experiment/OpenSesame/NAP-FC/NAP-FC_GER_AA/GER_AA_ver-1/subject-4.csv","xpyriment","Jazzy James","3.1.6","yes","yes","59504085b83f69022b47a751","595041f76c613b022ae3ecdb","no","no","0","j","f","space","NA",";","o","j","1327","4682","10585","NA","48139","14675","1327","2","legacy","1024","1","44100","-16","experiment","lpal","30","Arnstadt","2","1","1","German","English","4","even","Köln","3176398","3165522","NA","3181081","3176394","NA","2935912","3176170","2935912","2935912","3060201","3108345","3242435","3240931","3243764","3131694","3123286","3165521","2963951","3046395","3163847","3123084","3176397","3123290","NA","3242435","3242435","3239664","3239661","3240926","NAP perception","12","26095","20","yes","1024"
"61.9047619048","yes","61.9047619048","1276.95238095","1276.95238095","white","no","xpyriment","I have read and understood the information shown above","legacy","legacy","0","uniform","1","0","0","undefined","undefined","1","j","1","0","NA","0","0","0","0","0","0","0","0","0","30","30","30","0","0","0","0","0","1","0","0","0","1","30","30","30","30","30","Wed Jun 28 15:55:47 2017","Forced-choice identification task with a practice and an experimental phase","yes","NAP-FC_GER_AA_ver-1.osexp","/Users/aviadalbert/Documents/Academisch/UoC/Dissertation/Experiment/OpenSesame/NAP-FC/NAP-FC_GER_AA/GER_AA_ver-1","yes","no","sans","no","20","no","black","no","Next","yes","768","legacy","20","9","0","/Users/aviadalbert/Documents/Academisch/UoC/Dissertation/Experiment/OpenSesame/NAP-FC/NAP-FC_GER_AA/GER_AA_ver-1/subject-4.csv","xpyriment","Jazzy James","3.1.6","yes","yes","59504085b83f69022b47a751","595041f76c613b022ae3ecdb","no","no","0","j","f","space","NA",";","o","j","721","4682","10585","NA","48139","14675","721","2","legacy","1024","1","44100","-16","experiment","emtal","30","Arnstadt","2","1","1","German","English","4","even","Köln","3176398","3165522","NA","3181081","3176394","NA","2935912","3176170","2935912","2935912","3060201","3108345","3245537","3244034","3246260","3131694","3123286","3165521","2963951","3046395","3163847","3123084","3176397","3123290","NA","3245537","3245537","3239664","3239661","3244030","NAP perception","13","26816","21","yes","1024"
"63.6363636364","yes","63.6363636364","1274.40909091","1274.40909091","white","no","xpyriment","I have read and understood the information shown above","legacy","legacy","0","uniform","1","0","0","undefined","undefined","1","f","1","0","NA","0","0","0","0","0","0","0","0","0","31","31","31","0","0","0","0","0","1","0","0","0","1","31","31","31","31","31","Wed Jun 28 15:55:47 2017","Forced-choice identification task with a practice and an experimental phase","yes","NAP-FC_GER_AA_ver-1.osexp","/Users/aviadalbert/Documents/Academisch/UoC/Dissertation/Experiment/OpenSesame/NAP-FC/NAP-FC_GER_AA/GER_AA_ver-1","yes","no","sans","no","20","no","black","no","Next","yes","768","legacy","21","9","0","/Users/aviadalbert/Documents/Academisch/UoC/Dissertation/Experiment/OpenSesame/NAP-FC/NAP-FC_GER_AA/GER_AA_ver-1/subject-4.csv","xpyriment","Jazzy James","3.1.6","yes","yes","59504085b83f69022b47a751","595041f76c613b022ae3ecdb","no","no","0","f","f","space","NA",";","o","f","1221","4682","10585","NA","48139","14675","1221","2","legacy","1024","1","44100","-16","experiment","fsal","30","Arnstadt","2","1","1","German","English","4","even","Köln","3176398","3165522","NA","3181081","3176394","NA","2935912","3176170","2935912","2935912","3060201","3108345","3248035","3246531","3249257","3131694","3123286","3165521","2963951","3046395","3163847","3123084","3176397","3123290","NA","3248035","3248035","3239664","3239661","3246527","NAP perception","14","28037","22","yes","1024"
"65.2173913043","yes","65.2173913043","1254.95652174","1254.95652174","white","no","xpyriment","I have read and understood the information shown above","legacy","legacy","0","uniform","1","0","0","undefined","undefined","1","f","1","0","NA","0","0","0","0","0","0","0","0","0","32","32","32","0","0","0","0","0","1","0","0","0","1","32","32","32","32","32","Wed Jun 28 15:55:47 2017","Forced-choice identification task with a practice and an experimental phase","yes","NAP-FC_GER_AA_ver-1.osexp","/Users/aviadalbert/Documents/Academisch/UoC/Dissertation/Experiment/OpenSesame/NAP-FC/NAP-FC_GER_AA/GER_AA_ver-1","yes","no","sans","no","20","no","black","no","Next","yes","768","legacy","22","9","0","/Users/aviadalbert/Documents/Academisch/UoC/Dissertation/Experiment/OpenSesame/NAP-FC/NAP-FC_GER_AA/GER_AA_ver-1/subject-4.csv","xpyriment","Jazzy James","3.1.6","yes","yes","59504085b83f69022b47a751","595041f76c613b022ae3ecdb","no","no","0","f","f","space","NA",";","o","f","827","4682","10585","NA","48139","14675","827","2","legacy","1024","1","44100","-16","experiment","zval","30","Arnstadt","2","1","1","German","English","4","even","Köln","3176398","3165522","NA","3181081","3176394","NA","2935912","3176170","2935912","2935912","3060201","3108345","3251039","3249536","3251868","3131694","3123286","3165521","2963951","3046395","3163847","3123084","3176397","3123290","NA","3251039","3251039","3239664","3239661","3249532","NAP perception","15","28864","23","yes","1024"
"62.5","yes","62.5","1242.29166667","1242.29166667","white","no","xpyriment","I have read and understood the information shown above","legacy","legacy","0","uniform","0","0","0","undefined","undefined","0","f","1","0","NA","0","0","0","0","0","0","0","0","0","33","33","33","0","0","0","0","0","1","0","0","0","1","33","33","33","33","33","Wed Jun 28 15:55:47 2017","Forced-choice identification task with a practice and an experimental phase","yes","NAP-FC_GER_AA_ver-1.osexp","/Users/aviadalbert/Documents/Academisch/UoC/Dissertation/Experiment/OpenSesame/NAP-FC/NAP-FC_GER_AA/GER_AA_ver-1","yes","no","sans","no","20","no","black","no","Next","yes","768","legacy","23","9","0","/Users/aviadalbert/Documents/Academisch/UoC/Dissertation/Experiment/OpenSesame/NAP-FC/NAP-FC_GER_AA/GER_AA_ver-1/subject-4.csv","xpyriment","Jazzy James","3.1.6","yes","yes","59504085b83f69022b47a751","595041f76c613b022ae3ecdb","no","no","0","j","f","space","NA",";","o","j","951","4682","10585","NA","48139","14675","951","2","legacy","1024","1","44100","-16","experiment","nfal","30","Arnstadt","2","1","1","German","English","4","even","Köln","3176398","3165522","NA","3181081","3176394","NA","2935912","3176170","2935912","2935912","3060201","3108345","3253633","3252130","3254585","3131694","3123286","3165521","2963951","3046395","3163847","3123084","3176397","3123290","NA","3253633","3253633","3239664","3239661","3252125","NAP perception","15","29815","24","yes","1024"
"64","yes","64","1228.76","1228.76","white","no","xpyriment","I have read and understood the information shown above","legacy","legacy","0","uniform","1","0","0","undefined","undefined","1","j","1","0","NA","0","0","0","0","0","0","0","0","0","34","34","34","0","0","0","0","0","1","0","0","0","1","34","34","34","34","34","Wed Jun 28 15:55:47 2017","Forced-choice identification task with a practice and an experimental phase","yes","NAP-FC_GER_AA_ver-1.osexp","/Users/aviadalbert/Documents/Academisch/UoC/Dissertation/Experiment/OpenSesame/NAP-FC/NAP-FC_GER_AA/GER_AA_ver-1","yes","no","sans","no","20","no","black","no","Next","yes","768","legacy","24","9","0","/Users/aviadalbert/Documents/Academisch/UoC/Dissertation/Experiment/OpenSesame/NAP-FC/NAP-FC_GER_AA/GER_AA_ver-1/subject-4.csv","xpyriment","Jazzy James","3.1.6","yes","yes","59504085b83f69022b47a751","595041f76c613b022ae3ecdb","no","no","0","j","f","space","NA",";","o","j","904","4682","10585","NA","48139","14675","904","2","legacy","1024","1","44100","-16","experiment","lefal","30","Arnstadt","2","1","1","German","English","4","even","Köln","3176398","3165522","NA","3181081","3176394","NA","2935912","3176170","2935912","2935912","3060201","3108345","3256358","3254855","3257263","3131694","3123286","3165521","2963951","3046395","3163847","3123084","3176397","3123290","NA","3256358","3256358","3239664","3239661","3254851","NAP perception","16","30719","25","yes","1024"
"61.5384615385","yes","61.5384615385","1260.38461538","1260.38461538","white","no","xpyriment","I have read and understood the information shown above","legacy","legacy","0","uniform","0","0","0","undefined","undefined","0","j","1","0","NA","0","0","0","0","0","0","0","0","0","35","35","35","0","0","0","0","0","1","0","0","0","1","35","35","35","35","35","Wed Jun 28 15:55:47 2017","Forced-choice identification task with a practice and an experimental phase","yes","NAP-FC_GER_AA_ver-1.osexp","/Users/aviadalbert/Documents/Academisch/UoC/Dissertation/Experiment/OpenSesame/NAP-FC/NAP-FC_GER_AA/GER_AA_ver-1","yes","no","sans","no","20","no","black","no","Next","yes","768","legacy","25","9","0","/Users/aviadalbert/Documents/Academisch/UoC/Dissertation/Experiment/OpenSesame/NAP-FC/NAP-FC_GER_AA/GER_AA_ver-1/subject-4.csv","xpyriment","Jazzy James","3.1.6","yes","yes","59504085b83f69022b47a751","595041f76c613b022ae3ecdb","no","no","0","f","f","space","NA",";","o","f","2051","4682","10585","NA","48139","14675","2051","2","legacy","1024","1","44100","-16","experiment","jeval","30","Arnstadt","2","1","1","German","English","4","even","Köln","3176398","3165522","NA","3181081","3176394","NA","2935912","3176170","2935912","2935912","3060201","3108345","3259039","3257534","3261091","3131694","3123286","3165521","2963951","3046395","3163847","3123084","3176397","3123290","NA","3259039","3259039","3239664","3239661","3257530","NAP perception","16","32770","26","yes","1024"
"62.962962963","yes","62.962962963","1245.25925926","1245.25925926","white","no","xpyriment","I have read and understood the information shown above","legacy","legacy","0","uniform","1","0","0","undefined","undefined","1","f","1","0","NA","0","0","0","0","0","0","0","0","0","36","36","36","0","0","0","0","0","1","0","0","0","1","36","36","36","36","36","Wed Jun 28 15:55:47 2017","Forced-choice identification task with a practice and an experimental phase","yes","NAP-FC_GER_AA_ver-1.osexp","/Users/aviadalbert/Documents/Academisch/UoC/Dissertation/Experiment/OpenSesame/NAP-FC/NAP-FC_GER_AA/GER_AA_ver-1","yes","no","sans","no","20","no","black","no","Next","yes","768","legacy","26","9","0","/Users/aviadalbert/Documents/Academisch/UoC/Dissertation/Experiment/OpenSesame/NAP-FC/NAP-FC_GER_AA/GER_AA_ver-1/subject-4.csv","xpyriment","Jazzy James","3.1.6","yes","yes","59504085b83f69022b47a751","595041f76c613b022ae3ecdb","no","no","0","f","f","space","NA",";","o","f","852","4682","10585","NA","48139","14675","852","2","legacy","1024","1","44100","-16","experiment","flal","30","Arnstadt","2","1","1","German","English","4","even","Köln","3176398","3165522","NA","3181081","3176394","NA","2935912","3176170","2935912","2935912","3060201","3108345","3262861","3261354","3263714","3131694","3123286","3165521","2963951","3046395","3163847","3123084","3176397","3123290","NA","3262861","3262861","3239664","3239661","3261350","NAP perception","17","33622","27","yes","1024"
"64.2857142857","yes","64.2857142857","1255.42857143","1255.42857143","white","no","xpyriment","I have read and understood the information shown above","legacy","legacy","0","uniform","1","0","0","undefined","undefined","1","j","1","0","NA","0","0","0","0","0","0","0","0","0","37","37","37","0","0","0","0","0","1","0","0","0","1","37","37","37","37","37","Wed Jun 28 15:55:47 2017","Forced-choice identification task with a practice and an experimental phase","yes","NAP-FC_GER_AA_ver-1.osexp","/Users/aviadalbert/Documents/Academisch/UoC/Dissertation/Experiment/OpenSesame/NAP-FC/NAP-FC_GER_AA/GER_AA_ver-1","yes","no","sans","no","20","no","black","no","Next","yes","768","legacy","27","9","0","/Users/aviadalbert/Documents/Academisch/UoC/Dissertation/Experiment/OpenSesame/NAP-FC/NAP-FC_GER_AA/GER_AA_ver-1/subject-4.csv","xpyriment","Jazzy James","3.1.6","yes","yes","59504085b83f69022b47a751","595041f76c613b022ae3ecdb","no","no","0","j","f","space","NA",";","o","j","1530","4682","10585","NA","48139","14675","1530","2","legacy","1024","1","44100","-16","experiment","lepal","30","Arnstadt","2","1","1","German","English","4","even","Köln","3176398","3165522","NA","3181081","3176394","NA","2935912","3176170","2935912","2935912","3060201","3108345","3265486","3263983","3267017","3131694","3123286","3165521","2963951","3046395","3163847","3123084","3176397","3123290","NA","3265486","3265486","3239664","3239661","3263979","NAP perception","18","35152","28","yes","1024"
"65.5172413793","yes","65.5172413793","1246.4137931","1246.4137931","white","no","xpyriment","I have read and understood the information shown above","legacy","legacy","0","uniform","1","0","0","undefined","undefined","1","f","1","0","NA","0","0","0","0","0","0","0","0","0","38","38","38","0","0","0","0","0","1","0","0","0","1","38","38","38","38","38","Wed Jun 28 15:55:47 2017","Forced-choice identification task with a practice and an experimental phase","yes","NAP-FC_GER_AA_ver-1.osexp","/Users/aviadalbert/Documents/Academisch/UoC/Dissertation/Experiment/OpenSesame/NAP-FC/NAP-FC_GER_AA/GER_AA_ver-1","yes","no","sans","no","20","no","black","no","Next","yes","768","legacy","28","9","0","/Users/aviadalbert/Documents/Academisch/UoC/Dissertation/Experiment/OpenSesame/NAP-FC/NAP-FC_GER_AA/GER_AA_ver-1/subject-4.csv","xpyriment","Jazzy James","3.1.6","yes","yes","59504085b83f69022b47a751","595041f76c613b022ae3ecdb","no","no","0","f","f","space","NA",";","o","f","994","4682","10585","NA","48139","14675","994","2","legacy","1024","1","44100","-16","experiment","sfal","30","Arnstadt","2","1","1","German","English","4","even","Köln","3176398","3165522","NA","3181081","3176394","NA","2935912","3176170","2935912","2935912","3060201","3108345","3268784","3267280","3269780","3131694","3123286","3165521","2963951","3046395","3163847","3123084","3176397","3123290","NA","3268784","3268784","3239664","3239661","3267276","NAP perception","19","36146","29","yes","1024"
"66.6666666667","yes","66.6666666667","1233.56666667","1233.56666667","white","no","xpyriment","I have read and understood the information shown above","legacy","legacy","0","uniform","1","0","0","undefined","undefined","1","j","1","0","NA","0","0","0","0","0","0","0","0","0","39","39","39","0","0","0","0","0","1","0","0","0","1","39","39","39","39","39","Wed Jun 28 15:55:47 2017","Forced-choice identification task with a practice and an experimental phase","yes","NAP-FC_GER_AA_ver-1.osexp","/Users/aviadalbert/Documents/Academisch/UoC/Dissertation/Experiment/OpenSesame/NAP-FC/NAP-FC_GER_AA/GER_AA_ver-1","yes","no","sans","no","20","no","black","no","Next","yes","768","legacy","29","9","0","/Users/aviadalbert/Documents/Academisch/UoC/Dissertation/Experiment/OpenSesame/NAP-FC/NAP-FC_GER_AA/GER_AA_ver-1/subject-4.csv","xpyriment","Jazzy James","3.1.6","yes","yes","59504085b83f69022b47a751","595041f76c613b022ae3ecdb","no","no","0","j","f","space","NA",";","o","j","861","4682","10585","NA","48139","14675","861","2","legacy","1024","1","44100","-16","experiment","eʃmal","30","Arnstadt","2","1","1","German","English","4","even","Köln","3176398","3165522","NA","3181081","3176394","NA","2935912","3176170","2935912","2935912","3060201","3108345","3271538","3270034","3272401","3131694","3123286","3165521","2963951","3046395","3163847","3123084","3176397","3123290","NA","3271538","3271538","3239664","3239661","3270030","NAP perception","20","37007","30","yes","1024"
"67.7419354839","yes","67.7419354839","1237.16129032","1237.16129032","white","no","xpyriment","I have read and understood the information shown above","legacy","legacy","0","uniform","1","0","0","undefined","undefined","1","j","1","0","NA","0","0","0","0","0","0","0","0","0","40","40","40","0","0","0","0","0","1","0","0","0","1","40","40","40","40","40","Wed Jun 28 15:55:47 2017","Forced-choice identification task with a practice and an experimental phase","yes","NAP-FC_GER_AA_ver-1.osexp","/Users/aviadalbert/Documents/Academisch/UoC/Dissertation/Experiment/OpenSesame/NAP-FC/NAP-FC_GER_AA/GER_AA_ver-1","yes","no","sans","no","20","no","black","no","Next","yes","768","legacy","30","9","0","/Users/aviadalbert/Documents/Academisch/UoC/Dissertation/Experiment/OpenSesame/NAP-FC/NAP-FC_GER_AA/GER_AA_ver-1/subject-4.csv","xpyriment","Jazzy James","3.1.6","yes","yes","59504085b83f69022b47a751","595041f76c613b022ae3ecdb","no","no","0","j","f","space","NA",";","o","j","1345","4682","10585","NA","48139","14675","1345","2","legacy","1024","1","44100","-16","experiment","velal","30","Arnstadt","2","1","1","German","English","4","even","Köln","3176398","3165522","NA","3181081","3176394","NA","2935912","3176170","2935912","2935912","3060201","3108345","3274182","3272678","3275529","3131694","3123286","3165521","2963951","3046395","3163847","3123084","3176397","3123290","NA","3274181","3274181","3239664","3239661","3272674","NAP perception","21","38352","31","yes","1024"
"65.625","yes","65.625","1254.34375","1254.34375","white","no","xpyriment","I have read and understood the information shown above","legacy","legacy","0","uniform","0","0","0","undefined","undefined","0","f","1","0","NA","0","0","0","0","0","0","0","0","0","41","41","41","0","0","0","0","0","1","0","0","0","1","41","41","41","41","41","Wed Jun 28 15:55:47 2017","Forced-choice identification task with a practice and an experimental phase","yes","NAP-FC_GER_AA_ver-1.osexp","/Users/aviadalbert/Documents/Academisch/UoC/Dissertation/Experiment/OpenSesame/NAP-FC/NAP-FC_GER_AA/GER_AA_ver-1","yes","no","sans","no","20","no","black","no","Next","yes","768","legacy","31","9","0","/Users/aviadalbert/Documents/Academisch/UoC/Dissertation/Experiment/OpenSesame/NAP-FC/NAP-FC_GER_AA/GER_AA_ver-1/subject-4.csv","xpyriment","Jazzy James","3.1.6","yes","yes","59504085b83f69022b47a751","595041f76c613b022ae3ecdb","no","no","0","j","f","space","NA",";","o","j","1787","4682","10585","NA","48139","14675","1787","2","legacy","1024","1","44100","-16","experiment","jmal","30","Arnstadt","2","1","1","German","English","4","even","Köln","3176398","3165522","NA","3181081","3176394","NA","2935912","3176170","2935912","2935912","3060201","3108345","3277313","3275808","3279102","3131694","3123286","3165521","2963951","3046395","3163847","3123084","3176397","3123290","NA","3277313","3277313","3239664","3239661","3275803","NAP perception","21","40139","32","yes","1024"
"66.6666666667","yes","66.6666666667","1261.72727273","1261.72727273","white","no","xpyriment","I have read and understood the information shown above","legacy","legacy","0","uniform","1","0","0","undefined","undefined","1","f","1","0","NA","0","0","0","0","0","0","0","0","0","42","42","42","0","0","0","0","0","1","0","0","0","1","42","42","42","42","42","Wed Jun 28 15:55:47 2017","Forced-choice identification task with a practice and an experimental phase","yes","NAP-FC_GER_AA_ver-1.osexp","/Users/aviadalbert/Documents/Academisch/UoC/Dissertation/Experiment/OpenSesame/NAP-FC/NAP-FC_GER_AA/GER_AA_ver-1","yes","no","sans","no","20","no","black","no","Next","yes","768","legacy","32","9","0","/Users/aviadalbert/Documents/Academisch/UoC/Dissertation/Experiment/OpenSesame/NAP-FC/NAP-FC_GER_AA/GER_AA_ver-1/subject-4.csv","xpyriment","Jazzy James","3.1.6","yes","yes","59504085b83f69022b47a751","595041f76c613b022ae3ecdb","no","no","0","f","f","space","NA",";","o","f","1498","4682","10585","NA","48139","14675","1498","2","legacy","1024","1","44100","-16","experiment","nval","30","Arnstadt","2","1","1","German","English","4","even","Köln","3176398","3165522","NA","3181081","3176394","NA","2935912","3176170","2935912","2935912","3060201","3108345","3280882","3279378","3282382","3131694","3123286","3165521","2963951","3046395","3163847","3123084","3176397","3123290","NA","3280882","3280882","3239664","3239661","3279374","NAP perception","22","41637","33","yes","1024"
"67.6470588235","yes","67.6470588235","1265.47058824","1265.47058824","white","no","xpyriment","I have read and understood the information shown above","legacy","legacy","0","uniform","1","0","0","undefined","undefined","1","j","1","0","NA","0","0","0","0","0","0","0","0","0","43","43","43","0","0","0","0","0","1","0","0","0","1","43","43","43","43","43","Wed Jun 28 15:55:47 2017","Forced-choice identification task with a practice and an experimental phase","yes","NAP-FC_GER_AA_ver-1.osexp","/Users/aviadalbert/Documents/Academisch/UoC/Dissertation/Experiment/OpenSesame/NAP-FC/NAP-FC_GER_AA/GER_AA_ver-1","yes","no","sans","no","20","no","black","no","Next","yes","768","legacy","33","9","0","/Users/aviadalbert/Documents/Academisch/UoC/Dissertation/Experiment/OpenSesame/NAP-FC/NAP-FC_GER_AA/GER_AA_ver-1/subject-4.csv","xpyriment","Jazzy James","3.1.6","yes","yes","59504085b83f69022b47a751","595041f76c613b022ae3ecdb","no","no","0","j","f","space","NA",";","o","j","1389","4682","10585","NA","48139","14675","1389","2","legacy","1024","1","44100","-16","experiment","wezal","30","Arnstadt","2","1","1","German","English","4","even","Köln","3176398","3165522","NA","3181081","3176394","NA","2935912","3176170","2935912","2935912","3060201","3108345","3284163","3282660","3285553","3131694","3123286","3165521","2963951","3046395","3163847","3123084","3176397","3123290","NA","3284163","3284163","3239664","3239661","3282656","NAP perception","23","43026","34","yes","1024"
"68.5714285714","yes","68.5714285714","1258.62857143","1258.62857143","white","no","xpyriment","I have read and understood the information shown above","legacy","legacy","0","uniform","1","0","0","undefined","undefined","1","j","1","0","NA","0","0","0","0","0","0","0","0","0","44","44","44","0","0","0","0","0","1","0","0","0","1","44","44","44","44","44","Wed Jun 28 15:55:47 2017","Forced-choice identification task with a practice and an experimental phase","yes","NAP-FC_GER_AA_ver-1.osexp","/Users/aviadalbert/Documents/Academisch/UoC/Dissertation/Experiment/OpenSesame/NAP-FC/NAP-FC_GER_AA/GER_AA_ver-1","yes","no","sans","no","20","no","black","no","Next","yes","768","legacy","34","9","0","/Users/aviadalbert/Documents/Academisch/UoC/Dissertation/Experiment/OpenSesame/NAP-FC/NAP-FC_GER_AA/GER_AA_ver-1/subject-4.csv","xpyriment","Jazzy James","3.1.6","yes","yes","59504085b83f69022b47a751","595041f76c613b022ae3ecdb","no","no","0","j","f","space","NA",";","o","j","1026","4682","10585","NA","48139","14675","1026","2","legacy","1024","1","44100","-16","experiment","wenal","30","Arnstadt","2","1","1","German","English","4","even","Köln","3176398","3165522","NA","3181081","3176394","NA","2935912","3176170","2935912","2935912","3060201","3108345","3287331","3285825","3288359","3131694","3123286","3165521","2963951","3046395","3163847","3123084","3176397","3123290","NA","3287331","3287331","3239664","3239661","3285821","NAP perception","24","44052","35","yes","1024"
"69.4444444444","yes","69.4444444444","1246.86111111","1246.86111111","white","no","xpyriment","I have read and understood the information shown above","legacy","legacy","0","uniform","1","0","0","undefined","undefined","1","j","1","0","NA","0","0","0","0","0","0","0","0","0","45","45","45","0","0","0","0","0","1","0","0","0","1","45","45","45","45","45","Wed Jun 28 15:55:47 2017","Forced-choice identification task with a practice and an experimental phase","yes","NAP-FC_GER_AA_ver-1.osexp","/Users/aviadalbert/Documents/Academisch/UoC/Dissertation/Experiment/OpenSesame/NAP-FC/NAP-FC_GER_AA/GER_AA_ver-1","yes","no","sans","no","20","no","black","no","Next","yes","768","legacy","35","9","0","/Users/aviadalbert/Documents/Academisch/UoC/Dissertation/Experiment/OpenSesame/NAP-FC/NAP-FC_GER_AA/GER_AA_ver-1/subject-4.csv","xpyriment","Jazzy James","3.1.6","yes","yes","59504085b83f69022b47a751","595041f76c613b022ae3ecdb","no","no","0","j","f","space","NA",";","o","j","835","4682","10585","NA","48139","14675","835","2","legacy","1024","1","44100","-16","experiment","ezval","30","Arnstadt","2","1","1","German","English","4","even","Köln","3176398","3165522","NA","3181081","3176394","NA","2935912","3176170","2935912","2935912","3060201","3108345","3290136","3288633","3290972","3131694","3123286","3165521","2963951","3046395","3163847","3123084","3176397","3123290","NA","3290136","3290136","3239664","3239661","3288629","NAP perception","25","44887","36","yes","1024"
"70.2702702703","yes","70.2702702703","1255.24324324","1255.24324324","white","no","xpyriment","I have read and understood the information shown above","legacy","legacy","0","uniform","1","0","0","undefined","undefined","1","f","1","0","NA","0","0","0","0","0","0","0","0","0","46","46","46","0","0","0","0","0","1","0","0","0","1","46","46","46","46","46","Wed Jun 28 15:55:47 2017","Forced-choice identification task with a practice and an experimental phase","yes","NAP-FC_GER_AA_ver-1.osexp","/Users/aviadalbert/Documents/Academisch/UoC/Dissertation/Experiment/OpenSesame/NAP-FC/NAP-FC_GER_AA/GER_AA_ver-1","yes","no","sans","no","20","no","black","no","Next","yes","768","legacy","36","9","0","/Users/aviadalbert/Documents/Academisch/UoC/Dissertation/Experiment/OpenSesame/NAP-FC/NAP-FC_GER_AA/GER_AA_ver-1/subject-4.csv","xpyriment","Jazzy James","3.1.6","yes","yes","59504085b83f69022b47a751","595041f76c613b022ae3ecdb","no","no","0","f","f","space","NA",";","o","f","1557","4682","10585","NA","48139","14675","1557","2","legacy","1024","1","44100","-16","experiment","npal","30","Arnstadt","2","1","1","German","English","4","even","Köln","3176398","3165522","NA","3181081","3176394","NA","2935912","3176170","2935912","2935912","3060201","3108345","3292759","3291255","3294318","3131694","3123286","3165521","2963951","3046395","3163847","3123084","3176397","3123290","NA","3292758","3292759","3239664","3239661","3291251","NAP perception","26","46444","37","yes","1024"
"68.4210526316","yes","68.4210526316","1255.10526316","1255.10526316","white","no","xpyriment","I have read and understood the information shown above","legacy","legacy","0","uniform","0","0","0","undefined","undefined","0","f","1","0","NA","0","0","0","0","0","0","0","0","0","47","47","47","0","0","0","0","0","1","0","0","0","1","47","47","47","47","47","Wed Jun 28 15:55:47 2017","Forced-choice identification task with a practice and an experimental phase","yes","NAP-FC_GER_AA_ver-1.osexp","/Users/aviadalbert/Documents/Academisch/UoC/Dissertation/Experiment/OpenSesame/NAP-FC/NAP-FC_GER_AA/GER_AA_ver-1","yes","no","sans","no","20","no","black","no","Next","yes","768","legacy","37","9","0","/Users/aviadalbert/Documents/Academisch/UoC/Dissertation/Experiment/OpenSesame/NAP-FC/NAP-FC_GER_AA/GER_AA_ver-1/subject-4.csv","xpyriment","Jazzy James","3.1.6","yes","yes","59504085b83f69022b47a751","595041f76c613b022ae3ecdb","no","no","0","j","f","space","NA",";","o","j","1250","4682","10585","NA","48139","14675","1250","2","legacy","1024","1","44100","-16","experiment","jpal","30","Arnstadt","2","1","1","German","English","4","even","Köln","3176398","3165522","NA","3181081","3176394","NA","2935912","3176170","2935912","2935912","3060201","3108345","3296097","3294591","3297348","3131694","3123286","3165521","2963951","3046395","3163847","3123084","3176397","3123290","NA","3296097","3296097","3239664","3239661","3294587","NAP perception","26","47694","38","yes","1024"
"69.2307692308","yes","69.2307692308","1245.46153846","1245.46153846","white","no","xpyriment","I have read and understood the information shown above","legacy","legacy","0","uniform","1","0","0","undefined","undefined","1","f","1","0","NA","0","0","0","0","0","0","0","0","0","48","48","48","0","0","0","0","0","1","0","0","0","1","48","48","48","48","48","Wed Jun 28 15:55:47 2017","Forced-choice identification task with a practice and an experimental phase","yes","NAP-FC_GER_AA_ver-1.osexp","/Users/aviadalbert/Documents/Academisch/UoC/Dissertation/Experiment/OpenSesame/NAP-FC/NAP-FC_GER_AA/GER_AA_ver-1","yes","no","sans","no","20","no","black","no","Next","yes","768","legacy","38","9","0","/Users/aviadalbert/Documents/Academisch/UoC/Dissertation/Experiment/OpenSesame/NAP-FC/NAP-FC_GER_AA/GER_AA_ver-1/subject-4.csv","xpyriment","Jazzy James","3.1.6","yes","yes","59504085b83f69022b47a751","595041f76c613b022ae3ecdb","no","no","0","f","f","space","NA",";","o","f","879","4682","10585","NA","48139","14675","879","2","legacy","1024","1","44100","-16","experiment","vlal","30","Arnstadt","2","1","1","German","English","4","even","Köln","3176398","3165522","NA","3181081","3176394","NA","2935912","3176170","2935912","2935912","3060201","3108345","3299135","3297632","3300015","3131694","3123286","3165521","2963951","3046395","3163847","3123084","3176397","3123290","NA","3299135","3299135","3239664","3239661","3297628","NAP perception","27","48573","39","yes","1024"
"67.5","yes","67.5","1273.7","1273.7","white","no","xpyriment","I have read and understood the information shown above","legacy","legacy","0","uniform","0","0","0","undefined","undefined","0","j","1","0","NA","0","0","0","0","0","0","0","0","0","49","49","49","0","0","0","0","0","1","0","0","0","1","49","49","49","49","49","Wed Jun 28 15:55:47 2017","Forced-choice identification task with a practice and an experimental phase","yes","NAP-FC_GER_AA_ver-1.osexp","/Users/aviadalbert/Documents/Academisch/UoC/Dissertation/Experiment/OpenSesame/NAP-FC/NAP-FC_GER_AA/GER_AA_ver-1","yes","no","sans","no","20","no","black","no","Next","yes","768","legacy","39","9","0","/Users/aviadalbert/Documents/Academisch/UoC/Dissertation/Experiment/OpenSesame/NAP-FC/NAP-FC_GER_AA/GER_AA_ver-1/subject-4.csv","xpyriment","Jazzy James","3.1.6","yes","yes","59504085b83f69022b47a751","595041f76c613b022ae3ecdb","no","no","0","f","f","space","NA",";","o","f","2375","4682","10585","NA","48139","14675","2375","2","legacy","1024","1","44100","-16","experiment","eftal","30","Arnstadt","2","1","1","German","English","4","even","Köln","3176398","3165522","NA","3181081","3176394","NA","2935912","3176170","2935912","2935912","3060201","3108345","3301817","3300314","3304193","3131694","3123286","3165521","2963951","3046395","3163847","3123084","3176397","3123290","NA","3301817","3301817","3239664","3239661","3300310","NAP perception","27","50948","40","yes","1024"
"68.2926829268","yes","68.2926829268","1282.31707317","1282.31707317","white","no","xpyriment","I have read and understood the information shown above","legacy","legacy","0","uniform","1","0","0","undefined","undefined","1","f","1","0","NA","0","0","0","0","0","0","0","0","0","50","50","50","0","0","0","0","0","1","0","0","0","1","50","50","50","50","50","Wed Jun 28 15:55:47 2017","Forced-choice identification task with a practice and an experimental phase","yes","NAP-FC_GER_AA_ver-1.osexp","/Users/aviadalbert/Documents/Academisch/UoC/Dissertation/Experiment/OpenSesame/NAP-FC/NAP-FC_GER_AA/GER_AA_ver-1","yes","no","sans","no","20","no","black","no","Next","yes","768","legacy","40","9","0","/Users/aviadalbert/Documents/Academisch/UoC/Dissertation/Experiment/OpenSesame/NAP-FC/NAP-FC_GER_AA/GER_AA_ver-1/subject-4.csv","xpyriment","Jazzy James","3.1.6","yes","yes","59504085b83f69022b47a751","595041f76c613b022ae3ecdb","no","no","0","f","f","space","NA",";","o","f","1627","4682","10585","NA","48139","14675","1627","2","legacy","1024","1","44100","-16","experiment","vzal","30","Arnstadt","2","1","1","German","English","4","even","Köln","3176398","3165522","NA","3181081","3176394","NA","2935912","3176170","2935912","2935912","3060201","3108345","3305971","3304467","3307599","3131694","3123286","3165521","2963951","3046395","3163847","3123084","3176397","3123290","NA","3305971","3305971","3239664","3239661","3304463","NAP perception","28","52575","41","yes","1024"
"69.0476190476","yes","69.0476190476","1269.97619048","1269.97619048","white","no","xpyriment","I have read and understood the information shown above","legacy","legacy","0","uniform","1","0","0","undefined","undefined","1","f","1","0","NA","0","0","0","0","0","0","0","0","0","51","51","51","0","0","0","0","0","1","0","0","0","1","51","51","51","51","51","Wed Jun 28 15:55:47 2017","Forced-choice identification task with a practice and an experimental phase","yes","NAP-FC_GER_AA_ver-1.osexp","/Users/aviadalbert/Documents/Academisch/UoC/Dissertation/Experiment/OpenSesame/NAP-FC/NAP-FC_GER_AA/GER_AA_ver-1","yes","no","sans","no","20","no","black","no","Next","yes","768","legacy","41","9","0","/Users/aviadalbert/Documents/Academisch/UoC/Dissertation/Experiment/OpenSesame/NAP-FC/NAP-FC_GER_AA/GER_AA_ver-1/subject-4.csv","xpyriment","Jazzy James","3.1.6","yes","yes","59504085b83f69022b47a751","595041f76c613b022ae3ecdb","no","no","0","f","f","space","NA",";","o","f","764","4682","10585","NA","48139","14675","764","2","legacy","1024","1","44100","-16","experiment","fnal","30","Arnstadt","2","1","1","German","English","4","even","Köln","3176398","3165522","NA","3181081","3176394","NA","2935912","3176170","2935912","2935912","3060201","3108345","3309380","3307875","3310145","3131694","3123286","3165521","2963951","3046395","3163847","3123084","3176397","3123290","NA","3309379","3309380","3239664","3239661","3307871","NAP perception","29","53339","42","yes","1024"
"67.4418604651","yes","67.4418604651","1256.44186047","1256.44186047","white","no","xpyriment","I have read and understood the information shown above","legacy","legacy","0","uniform","0","0","0","undefined","undefined","0","f","1","0","NA","0","0","0","0","0","0","0","0","0","52","52","52","0","0","0","0","0","1","0","0","0","1","52","52","52","52","52","Wed Jun 28 15:55:47 2017","Forced-choice identification task with a practice and an experimental phase","yes","NAP-FC_GER_AA_ver-1.osexp","/Users/aviadalbert/Documents/Academisch/UoC/Dissertation/Experiment/OpenSesame/NAP-FC/NAP-FC_GER_AA/GER_AA_ver-1","yes","no","sans","no","20","no","black","no","Next","yes","768","legacy","42","9","0","/Users/aviadalbert/Documents/Academisch/UoC/Dissertation/Experiment/OpenSesame/NAP-FC/NAP-FC_GER_AA/GER_AA_ver-1/subject-4.csv","xpyriment","Jazzy James","3.1.6","yes","yes","59504085b83f69022b47a751","595041f76c613b022ae3ecdb","no","no","0","j","f","space","NA",";","o","j","688","4682","10585","NA","48139","14675","688","2","legacy","1024","1","44100","-16","experiment","wzal","30","Arnstadt","2","1","1","German","English","4","even","Köln","3176398","3165522","NA","3181081","3176394","NA","2935912","3176170","2935912","2935912","3060201","3108345","3311930","3310423","3312619","3131694","3123286","3165521","2963951","3046395","3163847","3123084","3176397","3123290","NA","3311930","3311930","3239664","3239661","3310419","NAP perception","29","54027","43","yes","1024"
"68.1818181818","yes","68.1818181818","1249.45454545","1249.45454545","white","no","xpyriment","I have read and understood the information shown above","legacy","legacy","0","uniform","1","0","0","undefined","undefined","1","j","1","0","NA","0","0","0","0","0","0","0","0","0","53","53","53","0","0","0","0","0","1","0","0","0","1","53","53","53","53","53","Wed Jun 28 15:55:47 2017","Forced-choice identification task with a practice and an experimental phase","yes","NAP-FC_GER_AA_ver-1.osexp","/Users/aviadalbert/Documents/Academisch/UoC/Dissertation/Experiment/OpenSesame/NAP-FC/NAP-FC_GER_AA/GER_AA_ver-1","yes","no","sans","no","20","no","black","no","Next","yes","768","legacy","43","9","0","/Users/aviadalbert/Documents/Academisch/UoC/Dissertation/Experiment/OpenSesame/NAP-FC/NAP-FC_GER_AA/GER_AA_ver-1/subject-4.csv","xpyriment","Jazzy James","3.1.6","yes","yes","59504085b83f69022b47a751","595041f76c613b022ae3ecdb","no","no","0","j","f","space","NA",";","o","j","949","4682","10585","NA","48139","14675","949","2","legacy","1024","1","44100","-16","experiment","emzal","30","Arnstadt","2","1","1","German","English","4","even","Köln","3176398","3165522","NA","3181081","3176394","NA","2935912","3176170","2935912","2935912","3060201","3108345","3314396","3312891","3315347","3131694","3123286","3165521","2963951","3046395","3163847","3123084","3176397","3123290","NA","3314396","3314396","3239664","3239661","3312887","NAP perception","30","54976","44","yes","1024"
"68.8888888889","yes","68.8888888889","1237.66666667","1237.66666667","white","no","xpyriment","I have read and understood the information shown above","legacy","legacy","0","uniform","1","0","0","undefined","undefined","1","j","1","0","NA","0","0","0","0","0","0","0","0","0","54","54","54","0","0","0","0","0","1","0","0","0","1","54","54","54","54","54","Wed Jun 28 15:55:47 2017","Forced-choice identification task with a practice and an experimental phase","yes","NAP-FC_GER_AA_ver-1.osexp","/Users/aviadalbert/Documents/Academisch/UoC/Dissertation/Experiment/OpenSesame/NAP-FC/NAP-FC_GER_AA/GER_AA_ver-1","yes","no","sans","no","20","no","black","no","Next","yes","768","legacy","44","9","0","/Users/aviadalbert/Documents/Academisch/UoC/Dissertation/Experiment/OpenSesame/NAP-FC/NAP-FC_GER_AA/GER_AA_ver-1/subject-4.csv","xpyriment","Jazzy James","3.1.6","yes","yes","59504085b83f69022b47a751","595041f76c613b022ae3ecdb","no","no","0","j","f","space","NA",";","o","j","719","4682","10585","NA","48139","14675","719","2","legacy","1024","1","44100","-16","experiment","jefal","30","Arnstadt","2","1","1","German","English","4","even","Köln","3176398","3165522","NA","3181081","3176394","NA","2935912","3176170","2935912","2935912","3060201","3108345","3317115","3315611","3317836","3131694","3123286","3165521","2963951","3046395","3163847","3123084","3176397","3123290","NA","3317115","3317115","3239664","3239661","3315607","NAP perception","31","55695","45","yes","1024"
"69.5652173913","yes","69.5652173913","1226.36956522","1226.36956522","white","no","xpyriment","I have read and understood the information shown above","legacy","legacy","0","uniform","1","0","0","undefined","undefined","1","j","1","0","NA","0","0","0","0","0","0","0","0","0","55","55","55","0","0","0","0","0","1","0","0","0","1","55","55","55","55","55","Wed Jun 28 15:55:47 2017","Forced-choice identification task with a practice and an experimental phase","yes","NAP-FC_GER_AA_ver-1.osexp","/Users/aviadalbert/Documents/Academisch/UoC/Dissertation/Experiment/OpenSesame/NAP-FC/NAP-FC_GER_AA/GER_AA_ver-1","yes","no","sans","no","20","no","black","no","Next","yes","768","legacy","45","9","0","/Users/aviadalbert/Documents/Academisch/UoC/Dissertation/Experiment/OpenSesame/NAP-FC/NAP-FC_GER_AA/GER_AA_ver-1/subject-4.csv","xpyriment","Jazzy James","3.1.6","yes","yes","59504085b83f69022b47a751","595041f76c613b022ae3ecdb","no","no","0","j","f","space","NA",";","o","j","718","4682","10585","NA","48139","14675","718","2","legacy","1024","1","44100","-16","experiment","efnal","30","Arnstadt","2","1","1","German","English","4","even","Köln","3176398","3165522","NA","3181081","3176394","NA","2935912","3176170","2935912","2935912","3060201","3108345","3319605","3318100","3320325","3131694","3123286","3165521","2963951","3046395","3163847","3123084","3176397","3123290","NA","3319605","3319605","3239664","3239661","3318096","NAP perception","32","56413","46","yes","1024"
"68.085106383","yes","68.085106383","1212.61702128","1212.61702128","white","no","xpyriment","I have read and understood the information shown above","legacy","legacy","0","uniform","0","0","0","undefined","undefined","0","f","1","0","NA","0","0","0","0","0","0","0","0","0","56","56","56","0","0","0","0","0","1","0","0","0","1","56","56","56","56","56","Wed Jun 28 15:55:47 2017","Forced-choice identification task with a practice and an experimental phase","yes","NAP-FC_GER_AA_ver-1.osexp","/Users/aviadalbert/Documents/Academisch/UoC/Dissertation/Experiment/OpenSesame/NAP-FC/NAP-FC_GER_AA/GER_AA_ver-1","yes","no","sans","no","20","no","black","no","Next","yes","768","legacy","46","9","0","/Users/aviadalbert/Documents/Academisch/UoC/Dissertation/Experiment/OpenSesame/NAP-FC/NAP-FC_GER_AA/GER_AA_ver-1/subject-4.csv","xpyriment","Jazzy James","3.1.6","yes","yes","59504085b83f69022b47a751","595041f76c613b022ae3ecdb","no","no","0","j","f","space","NA",";","o","j","580","4682","10585","NA","48139","14675","580","2","legacy","1024","1","44100","-16","experiment","msal","30","Arnstadt","2","1","1","German","English","4","even","Köln","3176398","3165522","NA","3181081","3176394","NA","2935912","3176170","2935912","2935912","3060201","3108345","3322105","3320599","3322687","3131694","3123286","3165521","2963951","3046395","3163847","3123084","3176397","3123290","NA","3322105","3322105","3239664","3239661","3320595","NAP perception","32","56993","47","yes","1024"
"68.75","yes","68.75","1203.22916667","1203.22916667","white","no","xpyriment","I have read and understood the information shown above","legacy","legacy","0","uniform","1","0","0","undefined","undefined","1","f","1","0","NA","0","0","0","0","0","0","0","0","0","57","57","57","0","0","0","0","0","1","0","0","0","1","57","57","57","57","57","Wed Jun 28 15:55:47 2017","Forced-choice identification task with a practice and an experimental phase","yes","NAP-FC_GER_AA_ver-1.osexp","/Users/aviadalbert/Documents/Academisch/UoC/Dissertation/Experiment/OpenSesame/NAP-FC/NAP-FC_GER_AA/GER_AA_ver-1","yes","no","sans","no","20","no","black","no","Next","yes","768","legacy","47","9","0","/Users/aviadalbert/Documents/Academisch/UoC/Dissertation/Experiment/OpenSesame/NAP-FC/NAP-FC_GER_AA/GER_AA_ver-1/subject-4.csv","xpyriment","Jazzy James","3.1.6","yes","yes","59504085b83f69022b47a751","595041f76c613b022ae3ecdb","no","no","0","f","f","space","NA",";","o","f","762","4682","10585","NA","48139","14675","762","2","legacy","1024","1","44100","-16","experiment","zmal","30","Arnstadt","2","1","1","German","English","4","even","Köln","3176398","3165522","NA","3181081","3176394","NA","2935912","3176170","2935912","2935912","3060201","3108345","3324476","3322973","3325240","3131694","3123286","3165521","2963951","3046395","3163847","3123084","3176397","3123290","NA","3324476","3324476","3239664","3239661","3322969","NAP perception","33","57755","48","yes","1024"
"69.387755102","yes","69.387755102","1204.32653061","1204.32653061","white","no","xpyriment","I have read and understood the information shown above","legacy","legacy","0","uniform","1","0","0","undefined","undefined","1","j","1","0","NA","0","0","0","0","0","0","0","0","0","58","58","58","0","0","0","0","0","1","0","0","0","1","58","58","58","58","58","Wed Jun 28 15:55:47 2017","Forced-choice identification task with a practice and an experimental phase","yes","NAP-FC_GER_AA_ver-1.osexp","/Users/aviadalbert/Documents/Academisch/UoC/Dissertation/Experiment/OpenSesame/NAP-FC/NAP-FC_GER_AA/GER_AA_ver-1","yes","no","sans","no","20","no","black","no","Next","yes","768","legacy","48","9","0","/Users/aviadalbert/Documents/Academisch/UoC/Dissertation/Experiment/OpenSesame/NAP-FC/NAP-FC_GER_AA/GER_AA_ver-1/subject-4.csv","xpyriment","Jazzy James","3.1.6","yes","yes","59504085b83f69022b47a751","595041f76c613b022ae3ecdb","no","no","0","j","f","space","NA",";","o","j","1257","4682","10585","NA","48139","14675","1257","2","legacy","1024","1","44100","-16","experiment","ʃefal","30","Arnstadt","2","1","1","German","English","4","even","Köln","3176398","3165522","NA","3181081","3176394","NA","2935912","3176170","2935912","2935912","3060201","3108345","3327016","3325510","3328275","3131694","3123286","3165521","2963951","3046395","3163847","3123084","3176397","3123290","NA","3327016","3327016","3239664","3239661","3325506","NAP perception","34","59012","49","yes","1024"
"70","yes","70","1194.38","1194.38","white","no","xpyriment","I have read and understood the information shown above","legacy","legacy","0","uniform","1","0","0","undefined","undefined","1","j","1","0","NA","0","0","0","0","0","0","0","0","0","59","59","59","0","0","0","0","0","1","0","0","0","1","59","59","59","59","59","Wed Jun 28 15:55:47 2017","Forced-choice identification task with a practice and an experimental phase","yes","NAP-FC_GER_AA_ver-1.osexp","/Users/aviadalbert/Documents/Academisch/UoC/Dissertation/Experiment/OpenSesame/NAP-FC/NAP-FC_GER_AA/GER_AA_ver-1","yes","no","sans","no","20","no","black","no","Next","yes","768","legacy","49","9","0","/Users/aviadalbert/Documents/Academisch/UoC/Dissertation/Experiment/OpenSesame/NAP-FC/NAP-FC_GER_AA/GER_AA_ver-1/subject-4.csv","xpyriment","Jazzy James","3.1.6","yes","yes","59504085b83f69022b47a751","595041f76c613b022ae3ecdb","no","no","0","j","f","space","NA",";","o","j","707","4682","10585","NA","48139","14675","707","2","legacy","1024","1","44100","-16","experiment","elval","30","Arnstadt","2","1","1","German","English","4","even","Köln","3176398","3165522","NA","3181081","3176394","NA","2935912","3176170","2935912","2935912","3060201","3108345","3330052","3328547","3330761","3131694","3123286","3165521","2963951","3046395","3163847","3123084","3176397","3123290","NA","3330051","3330051","3239664","3239661","3328543","NAP perception","35","59719","50","yes","1024"
"70.5882352941","yes","70.5882352941","1183.17647059","1183.17647059","white","no","xpyriment","I have read and understood the information shown above","legacy","legacy","0","uniform","1","0","0","undefined","undefined","1","j","1","0","NA","0","0","0","0","0","0","0","0","0","60","60","60","0","0","0","0","0","1","0","0","0","1","60","60","60","60","60","Wed Jun 28 15:55:47 2017","Forced-choice identification task with a practice and an experimental phase","yes","NAP-FC_GER_AA_ver-1.osexp","/Users/aviadalbert/Documents/Academisch/UoC/Dissertation/Experiment/OpenSesame/NAP-FC/NAP-FC_GER_AA/GER_AA_ver-1","yes","no","sans","no","20","no","black","no","Next","yes","768","legacy","50","9","0","/Users/aviadalbert/Documents/Academisch/UoC/Dissertation/Experiment/OpenSesame/NAP-FC/NAP-FC_GER_AA/GER_AA_ver-1/subject-4.csv","xpyriment","Jazzy James","3.1.6","yes","yes","59504085b83f69022b47a751","595041f76c613b022ae3ecdb","no","no","0","j","f","space","NA",";","o","j","623","4682","10585","NA","48139","14675","623","2","legacy","1024","1","44100","-16","experiment","enmal","30","Arnstadt","2","1","1","German","English","4","even","Köln","3176398","3165522","NA","3181081","3176394","NA","2935912","3176170","2935912","2935912","3060201","3108345","3332533","3331029","3333158","3131694","3123286","3165521","2963951","3046395","3163847","3123084","3176397","3123290","NA","3332533","3332533","3239664","3239661","3331025","NAP perception","36","60342","51","yes","1024"
"71.1538461538","yes","71.1538461538","1183.40384615","1183.40384615","white","no","xpyriment","I have read and understood the information shown above","legacy","legacy","0","uniform","1","0","0","undefined","undefined","1","j","1","0","NA","0","0","0","0","0","0","0","0","0","61","61","61","0","0","0","0","0","1","0","0","0","1","61","61","61","61","61","Wed Jun 28 15:55:47 2017","Forced-choice identification task with a practice and an experimental phase","yes","NAP-FC_GER_AA_ver-1.osexp","/Users/aviadalbert/Documents/Academisch/UoC/Dissertation/Experiment/OpenSesame/NAP-FC/NAP-FC_GER_AA/GER_AA_ver-1","yes","no","sans","no","20","no","black","no","Next","yes","768","legacy","51","9","0","/Users/aviadalbert/Documents/Academisch/UoC/Dissertation/Experiment/OpenSesame/NAP-FC/NAP-FC_GER_AA/GER_AA_ver-1/subject-4.csv","xpyriment","Jazzy James","3.1.6","yes","yes","59504085b83f69022b47a751","595041f76c613b022ae3ecdb","no","no","0","j","f","space","NA",";","o","j","1195","4682","10585","NA","48139","14675","1195","2","legacy","1024","1","44100","-16","experiment","fesal","30","Arnstadt","2","1","1","German","English","4","even","Köln","3176398","3165522","NA","3181081","3176394","NA","2935912","3176170","2935912","2935912","3060201","3108345","3334947","3333440","3336145","3131694","3123286","3165521","2963951","3046395","3163847","3123084","3176397","3123290","NA","3334947","3334947","3239664","3239661","3333436","NAP perception","37","61537","52","yes","1024"
"69.8113207547","yes","69.8113207547","1175.9245283","1175.9245283","white","no","xpyriment","I have read and understood the information shown above","legacy","legacy","0","uniform","0","0","0","undefined","undefined","0","f","1","0","NA","0","0","0","0","0","0","0","0","0","62","62","62","0","0","0","0","0","1","0","0","0","1","62","62","62","62","62","Wed Jun 28 15:55:47 2017","Forced-choice identification task with a practice and an experimental phase","yes","NAP-FC_GER_AA_ver-1.osexp","/Users/aviadalbert/Documents/Academisch/UoC/Dissertation/Experiment/OpenSesame/NAP-FC/NAP-FC_GER_AA/GER_AA_ver-1","yes","no","sans","no","20","no","black","no","Next","yes","768","legacy","52","9","0","/Users/aviadalbert/Documents/Academisch/UoC/Dissertation/Experiment/OpenSesame/NAP-FC/NAP-FC_GER_AA/GER_AA_ver-1/subject-4.csv","xpyriment","Jazzy James","3.1.6","yes","yes","59504085b83f69022b47a751","595041f76c613b022ae3ecdb","no","no","0","j","f","space","NA",";","o","j","787","4682","10585","NA","48139","14675","787","2","legacy","1024","1","44100","-16","experiment","jfal","30","Arnstadt","2","1","1","German","English","4","even","Köln","3176398","3165522","NA","3181081","3176394","NA","2935912","3176170","2935912","2935912","3060201","3108345","3337928","3336421","3338717","3131694","3123286","3165521","2963951","3046395","3163847","3123084","3176397","3123290","NA","3337927","3337927","3239664","3239661","3336417","NAP perception","37","62324","53","yes","1024"
"70.3703703704","yes","70.3703703704","1174.12962963","1174.12962963","white","no","xpyriment","I have read and understood the information shown above","legacy","legacy","0","uniform","1","0","0","undefined","undefined","1","j","1","0","NA","0","0","0","0","0","0","0","0","0","63","63","63","0","0","0","0","0","1","0","0","0","1","63","63","63","63","63","Wed Jun 28 15:55:47 2017","Forced-choice identification task with a practice and an experimental phase","yes","NAP-FC_GER_AA_ver-1.osexp","/Users/aviadalbert/Documents/Academisch/UoC/Dissertation/Experiment/OpenSesame/NAP-FC/NAP-FC_GER_AA/GER_AA_ver-1","yes","no","sans","no","20","no","black","no","Next","yes","768","legacy","53","9","0","/Users/aviadalbert/Documents/Academisch/UoC/Dissertation/Experiment/OpenSesame/NAP-FC/NAP-FC_GER_AA/GER_AA_ver-1/subject-4.csv","xpyriment","Jazzy James","3.1.6","yes","yes","59504085b83f69022b47a751","595041f76c613b022ae3ecdb","no","no","0","j","f","space","NA",";","o","j","1079","4682","10585","NA","48139","14675","1079","2","legacy","1024","1","44100","-16","experiment","felal","30","Arnstadt","2","1","1","German","English","4","even","Köln","3176398","3165522","NA","3181081","3176394","NA","2935912","3176170","2935912","2935912","3060201","3108345","3340495","3338991","3341575","3131694","3123286","3165521","2963951","3046395","3163847","3123084","3176397","3123290","NA","3340495","3340495","3239664","3239661","3338987","NAP perception","38","63403","54","yes","1024"
"70.9090909091","yes","70.9090909091","1172.32727273","1172.32727273","white","no","xpyriment","I have read and understood the information shown above","legacy","legacy","0","uniform","1","0","0","undefined","undefined","1","f","1","0","NA","0","0","0","0","0","0","0","0","0","64","64","64","0","0","0","0","0","1","0","0","0","1","64","64","64","64","64","Wed Jun 28 15:55:47 2017","Forced-choice identification task with a practice and an experimental phase","yes","NAP-FC_GER_AA_ver-1.osexp","/Users/aviadalbert/Documents/Academisch/UoC/Dissertation/Experiment/OpenSesame/NAP-FC/NAP-FC_GER_AA/GER_AA_ver-1","yes","no","sans","no","20","no","black","no","Next","yes","768","legacy","54","9","0","/Users/aviadalbert/Documents/Academisch/UoC/Dissertation/Experiment/OpenSesame/NAP-FC/NAP-FC_GER_AA/GER_AA_ver-1/subject-4.csv","xpyriment","Jazzy James","3.1.6","yes","yes","59504085b83f69022b47a751","595041f76c613b022ae3ecdb","no","no","0","f","f","space","NA",";","o","f","1075","4682","10585","NA","48139","14675","1075","2","legacy","1024","1","44100","-16","experiment","mnal","30","Arnstadt","2","1","1","German","English","4","even","Köln","3176398","3165522","NA","3181081","3176394","NA","2935912","3176170","2935912","2935912","3060201","3108345","3343344","3341841","3344420","3131694","3123286","3165521","2963951","3046395","3163847","3123084","3176397","3123290","NA","3343344","3343344","3239664","3239661","3341837","NAP perception","39","64478","55","yes","1024"
"71.4285714286","yes","71.4285714286","1166.14285714","1166.14285714","white","no","xpyriment","I have read and understood the information shown above","legacy","legacy","0","uniform","1","0","0","undefined","undefined","1","j","1","0","NA","0","0","0","0","0","0","0","0","0","65","65","65","0","0","0","0","0","1","0","0","0","1","65","65","65","65","65","Wed Jun 28 15:55:47 2017","Forced-choice identification task with a practice and an experimental phase","yes","NAP-FC_GER_AA_ver-1.osexp","/Users/aviadalbert/Documents/Academisch/UoC/Dissertation/Experiment/OpenSesame/NAP-FC/NAP-FC_GER_AA/GER_AA_ver-1","yes","no","sans","no","20","no","black","no","Next","yes","768","legacy","55","9","0","/Users/aviadalbert/Documents/Academisch/UoC/Dissertation/Experiment/OpenSesame/NAP-FC/NAP-FC_GER_AA/GER_AA_ver-1/subject-4.csv","xpyriment","Jazzy James","3.1.6","yes","yes","59504085b83f69022b47a751","595041f76c613b022ae3ecdb","no","no","0","j","f","space","NA",";","o","j","826","4682","10585","NA","48139","14675","826","2","legacy","1024","1","44100","-16","experiment","vezal","30","Arnstadt","2","1","1","German","English","4","even","Köln","3176398","3165522","NA","3181081","3176394","NA","2935912","3176170","2935912","2935912","3060201","3108345","3346200","3344696","3347027","3131694","3123286","3165521","2963951","3046395","3163847","3123084","3176397","3123290","NA","3346200","3346200","3239664","3239661","3344692","NAP perception","40","65304","56","yes","1024"
