"acc","accept_status","accuracy","average_response_time","avg_rt","background","bidi","canvas_backend","checkbox_status","clock_backend","color_backend","compensation","coordinates","correct","correct_block_activation","correct_block_exit","correct_instructions_1","correct_instructions_2","correct_keyboard_response","correct_response","count_block_activation","count_block_exit","count_block_info_QA","count_e_block_loop","count_e_block_sequence","count_end_of_experiment","count_experiment","count_experimental_loop","count_form_consent","count_info_forms","count_instructions_1","count_instructions_2","count_keyboard_response","count_listen_message","count_logger","count_p_block_loop","count_p_block_sequence","count_p_feedback","count_personal_details_form_1","count_personal_details_form_2","count_post_loop_blank","count_practice_loop","count_pre_e_block_message","count_pre_p_block_message","count_reset_feedback","count_stimulus_image","count_stimulus_sound","count_timeout_message","count_timeout_sound","count_trial_sequence","datetime","description","disable_garbage_collection","experiment_file","experiment_path","expyriment_opengl","font_bold","font_family","font_italic","font_size","font_underline","foreground","form_clicks","form_response","fullscreen","height","keyboard_backend","live_row","live_row_p_block_loop","live_row_practice_loop","logfile","mouse_backend","opensesame_codename","opensesame_version","osf_always_upload_data","osf_always_upload_experiment","osf_datanode_id","osf_id","practice","pygame_doublebuf","repeat_cycle","response","response_block_activation","response_block_exit","response_block_info_QA","response_instructions_1","response_instructions_2","response_keyboard_response","response_time","response_time_block_activation","response_time_block_exit","response_time_block_info_QA","response_time_instructions_1","response_time_instructions_2","response_time_keyboard_response","round_decimals","sampler_backend","sound_buf_size","sound_channels","sound_freq","sound_sample_size","start","stimulus","subject_age","subject_birth","subject_education","subject_gender","subject_handedness","subject_language_native","subject_language_other","subject_nr","subject_parity","subject_residence","time_block_activation","time_block_exit","time_block_info_QA","time_e_block_loop","time_e_block_sequence","time_end_of_experiment","time_experiment","time_experimental_loop","time_form_consent","time_info_forms","time_instructions_1","time_instructions_2","time_keyboard_response","time_listen_message","time_logger","time_p_block_loop","time_p_block_sequence","time_p_feedback","time_personal_details_form_1","time_personal_details_form_2","time_post_loop_blank","time_practice_loop","time_pre_e_block_message","time_pre_p_block_message","time_reset_feedback","time_stimulus_image","time_stimulus_sound","time_timeout_message","time_timeout_sound","time_trial_sequence","title","total_correct","total_response_time","total_responses","uniform_coordinates","width"
"100","yes","100","1707","1707","white","no","xpyriment","I have read and understood the information shown above","legacy","legacy","0","uniform","1","0","NA","undefined","undefined","1","f","0","0","NA","NA","NA","NA","0","0","0","0","0","0","0","0","0","0","0","NA","0","0","0","0","NA","0","0","0","0","0","0","0","Wed Jun 28 16:44:10 2017","Forced-choice identification task with a practice and an experimental phase","yes","NAP-FC_GER_AA_ver-2.osexp","/Users/aviadalbert/Documents/Academisch/UoC/Dissertation/Experiment/OpenSesame/NAP-FC/NAP-FC_GER_AA/GER_AA_ver-2","yes","no","sans","no","20","no","black","no","Next","yes","768","legacy","0","0","0","/Users/aviadalbert/Documents/Academisch/UoC/Dissertation/Experiment/OpenSesame/NAP-FC/NAP-FC_GER_AA/GER_AA_ver-2/subject-4.csv","xpyriment","Jazzy James","3.1.6","yes","yes","5950408a6c613b0229e3e810","59504237594d9002288b1720","yes","no","0","f","j","NA","NA","return","return","f","1707","9235","NA","NA","34220","20087","1707","2","legacy","1024","1","44100","-16","experiment","flal","23","Munich","1","0","1","German","English, French","4","even","Cologne","6020194","NA","NA","NA","NA","NA","5838784","NA","5838784","5838784","5965591","5999816","6031144","6029637","6032852","6029431","6020190","NA","5860240","5950406","NA","6019975","NA","6020194","NA","6031144","6031144","NA","NA","6029633","NAP perception","1","1707","1","yes","1024"
"100","yes","100","1341","1341","white","no","xpyriment","I have read and understood the information shown above","legacy","legacy","0","uniform","1","0","NA","undefined","undefined","1","j","0","0","NA","NA","NA","NA","0","0","0","0","0","0","1","1","1","0","0","NA","0","0","0","0","NA","0","0","1","1","1","1","1","Wed Jun 28 16:44:10 2017","Forced-choice identification task with a practice and an experimental phase","yes","NAP-FC_GER_AA_ver-2.osexp","/Users/aviadalbert/Documents/Academisch/UoC/Dissertation/Experiment/OpenSesame/NAP-FC/NAP-FC_GER_AA/GER_AA_ver-2","yes","no","sans","no","20","no","black","no","Next","yes","768","legacy","1","1","0","/Users/aviadalbert/Documents/Academisch/UoC/Dissertation/Experiment/OpenSesame/NAP-FC/NAP-FC_GER_AA/GER_AA_ver-2/subject-4.csv","xpyriment","Jazzy James","3.1.6","yes","yes","5950408a6c613b0229e3e810","59504237594d9002288b1720","yes","no","0","j","j","NA","NA","return","return","j","975","9235","NA","NA","34220","20087","975","2","legacy","1024","1","44100","-16","experiment","lepal","23","Munich","1","0","1","German","English, French","4","even","Cologne","6020194","NA","NA","NA","NA","NA","5838784","NA","5838784","5838784","5965591","5999816","6034636","6033131","6035612","6029431","6020190","NA","5860240","5950406","NA","6019975","NA","6020194","NA","6034636","6034636","NA","NA","6033127","NAP perception","2","2682","2","yes","1024"
"100","yes","100","1227","1227","white","no","xpyriment","I have read and understood the information shown above","legacy","legacy","0","uniform","1","0","NA","undefined","undefined","1","j","0","0","NA","NA","NA","NA","0","0","0","0","0","0","2","2","2","0","0","NA","0","0","0","0","NA","0","0","2","2","2","2","2","Wed Jun 28 16:44:10 2017","Forced-choice identification task with a practice and an experimental phase","yes","NAP-FC_GER_AA_ver-2.osexp","/Users/aviadalbert/Documents/Academisch/UoC/Dissertation/Experiment/OpenSesame/NAP-FC/NAP-FC_GER_AA/GER_AA_ver-2","yes","no","sans","no","20","no","black","no","Next","yes","768","legacy","2","2","0","/Users/aviadalbert/Documents/Academisch/UoC/Dissertation/Experiment/OpenSesame/NAP-FC/NAP-FC_GER_AA/GER_AA_ver-2/subject-4.csv","xpyriment","Jazzy James","3.1.6","yes","yes","5950408a6c613b0229e3e810","59504237594d9002288b1720","yes","no","0","j","j","NA","NA","return","return","j","999","9235","NA","NA","34220","20087","999","2","legacy","1024","1","44100","-16","experiment","emtal","23","Munich","1","0","1","German","English, French","4","even","Cologne","6020194","NA","NA","NA","NA","NA","5838784","NA","5838784","5838784","5965591","5999816","6037389","6035886","6038389","6029431","6020190","NA","5860240","5950406","NA","6019975","NA","6020194","NA","6037389","6037389","NA","NA","6035882","NAP perception","3","3681","3","yes","1024"
"100","yes","100","1231.5","1231.5","white","no","xpyriment","I have read and understood the information shown above","legacy","legacy","0","uniform","1","0","NA","undefined","undefined","1","f","0","0","NA","NA","NA","NA","0","0","0","0","0","0","3","3","3","0","0","NA","0","0","0","0","NA","0","0","3","3","3","3","3","Wed Jun 28 16:44:10 2017","Forced-choice identification task with a practice and an experimental phase","yes","NAP-FC_GER_AA_ver-2.osexp","/Users/aviadalbert/Documents/Academisch/UoC/Dissertation/Experiment/OpenSesame/NAP-FC/NAP-FC_GER_AA/GER_AA_ver-2","yes","no","sans","no","20","no","black","no","Next","yes","768","legacy","3","3","0","/Users/aviadalbert/Documents/Academisch/UoC/Dissertation/Experiment/OpenSesame/NAP-FC/NAP-FC_GER_AA/GER_AA_ver-2/subject-4.csv","xpyriment","Jazzy James","3.1.6","yes","yes","5950408a6c613b0229e3e810","59504237594d9002288b1720","yes","no","0","f","j","NA","NA","return","return","f","1245","9235","NA","NA","34220","20087","1245","2","legacy","1024","1","44100","-16","experiment","ʃpal","23","Munich","1","0","1","German","English, French","4","even","Cologne","6020194","NA","NA","NA","NA","NA","5838784","NA","5838784","5838784","5965591","5999816","6040162","6038659","6041408","6029431","6020190","NA","5860240","5950406","NA","6019975","NA","6020194","NA","6040162","6040162","NA","NA","6038654","NAP perception","4","4926","4","yes","1024"
"100","yes","100","1201","1201","white","no","xpyriment","I have read and understood the information shown above","legacy","legacy","0","uniform","1","0","NA","undefined","undefined","1","j","0","0","NA","NA","NA","NA","0","0","0","0","0","0","4","4","4","0","0","NA","0","0","0","0","NA","0","0","4","4","4","4","4","Wed Jun 28 16:44:10 2017","Forced-choice identification task with a practice and an experimental phase","yes","NAP-FC_GER_AA_ver-2.osexp","/Users/aviadalbert/Documents/Academisch/UoC/Dissertation/Experiment/OpenSesame/NAP-FC/NAP-FC_GER_AA/GER_AA_ver-2","yes","no","sans","no","20","no","black","no","Next","yes","768","legacy","4","4","0","/Users/aviadalbert/Documents/Academisch/UoC/Dissertation/Experiment/OpenSesame/NAP-FC/NAP-FC_GER_AA/GER_AA_ver-2/subject-4.csv","xpyriment","Jazzy James","3.1.6","yes","yes","5950408a6c613b0229e3e810","59504237594d9002288b1720","yes","no","0","j","j","NA","NA","return","return","j","1079","9235","NA","NA","34220","20087","1079","2","legacy","1024","1","44100","-16","experiment","nefal","23","Munich","1","0","1","German","English, French","4","even","Cologne","6020194","NA","NA","NA","NA","NA","5838784","NA","5838784","5838784","5965591","5999816","6043192","6041685","6044273","6029431","6020190","NA","5860240","5950406","NA","6019975","NA","6020194","NA","6043192","6043192","NA","NA","6041681","NAP perception","5","6005","5","yes","1024"
"100","yes","100","1178.83333333","1178.83333333","white","no","xpyriment","I have read and understood the information shown above","legacy","legacy","0","uniform","1","0","NA","undefined","undefined","1","f","0","0","NA","NA","NA","NA","0","0","0","0","0","0","5","5","5","0","0","NA","0","0","0","0","NA","0","0","5","5","5","5","5","Wed Jun 28 16:44:10 2017","Forced-choice identification task with a practice and an experimental phase","yes","NAP-FC_GER_AA_ver-2.osexp","/Users/aviadalbert/Documents/Academisch/UoC/Dissertation/Experiment/OpenSesame/NAP-FC/NAP-FC_GER_AA/GER_AA_ver-2","yes","no","sans","no","20","no","black","no","Next","yes","768","legacy","5","5","0","/Users/aviadalbert/Documents/Academisch/UoC/Dissertation/Experiment/OpenSesame/NAP-FC/NAP-FC_GER_AA/GER_AA_ver-2/subject-4.csv","xpyriment","Jazzy James","3.1.6","yes","yes","5950408a6c613b0229e3e810","59504237594d9002288b1720","yes","no","0","f","j","NA","NA","return","return","f","1068","9235","NA","NA","34220","20087","1068","2","legacy","1024","1","44100","-16","experiment","sfal","23","Munich","1","0","1","German","English, French","4","even","Cologne","6020194","NA","NA","NA","NA","NA","5838784","NA","5838784","5838784","5965591","5999816","6046054","6044548","6047123","6029431","6020190","NA","5860240","5950406","NA","6019975","NA","6020194","NA","6046054","6046054","NA","NA","6044544","NAP perception","6","7073","6","yes","1024"
"100","yes","100","1180.14285714","1180.14285714","white","no","xpyriment","I have read and understood the information shown above","legacy","legacy","0","uniform","1","0","NA","undefined","undefined","1","f","0","0","NA","NA","NA","NA","0","0","0","0","0","0","6","6","6","0","0","NA","0","0","0","0","NA","0","0","6","6","6","6","6","Wed Jun 28 16:44:10 2017","Forced-choice identification task with a practice and an experimental phase","yes","NAP-FC_GER_AA_ver-2.osexp","/Users/aviadalbert/Documents/Academisch/UoC/Dissertation/Experiment/OpenSesame/NAP-FC/NAP-FC_GER_AA/GER_AA_ver-2","yes","no","sans","no","20","no","black","no","Next","yes","768","legacy","6","6","0","/Users/aviadalbert/Documents/Academisch/UoC/Dissertation/Experiment/OpenSesame/NAP-FC/NAP-FC_GER_AA/GER_AA_ver-2/subject-4.csv","xpyriment","Jazzy James","3.1.6","yes","yes","5950408a6c613b0229e3e810","59504237594d9002288b1720","yes","no","0","f","j","NA","NA","return","return","f","1188","9235","NA","NA","34220","20087","1188","2","legacy","1024","1","44100","-16","experiment","zmal","23","Munich","1","0","1","German","English, French","4","even","Cologne","6020194","NA","NA","NA","NA","NA","5838784","NA","5838784","5838784","5965591","5999816","6048904","6047397","6050093","6029431","6020190","NA","5860240","5950406","NA","6019975","NA","6020194","NA","6048903","6048903","NA","NA","6047393","NAP perception","7","8261","7","yes","1024"
"100","yes","100","1152.875","1152.875","white","no","xpyriment","I have read and understood the information shown above","legacy","legacy","0","uniform","1","0","NA","undefined","undefined","1","j","0","0","NA","NA","NA","NA","0","0","0","0","0","0","7","7","7","0","0","NA","0","0","0","0","NA","0","0","7","7","7","7","7","Wed Jun 28 16:44:10 2017","Forced-choice identification task with a practice and an experimental phase","yes","NAP-FC_GER_AA_ver-2.osexp","/Users/aviadalbert/Documents/Academisch/UoC/Dissertation/Experiment/OpenSesame/NAP-FC/NAP-FC_GER_AA/GER_AA_ver-2","yes","no","sans","no","20","no","black","no","Next","yes","768","legacy","7","7","0","/Users/aviadalbert/Documents/Academisch/UoC/Dissertation/Experiment/OpenSesame/NAP-FC/NAP-FC_GER_AA/GER_AA_ver-2/subject-4.csv","xpyriment","Jazzy James","3.1.6","yes","yes","5950408a6c613b0229e3e810","59504237594d9002288b1720","yes","no","0","j","j","NA","NA","return","return","j","962","9235","NA","NA","34220","20087","962","2","legacy","1024","1","44100","-16","experiment","jeval","23","Munich","1","0","1","German","English, French","4","even","Cologne","6020194","NA","NA","NA","NA","NA","5838784","NA","5838784","5838784","5965591","5999816","6051888","6050380","6052851","6029431","6020190","NA","5860240","5950406","NA","6019975","NA","6020194","NA","6051888","6051888","NA","NA","6050376","NAP perception","8","9223","8","yes","1024"
"100","yes","100","1123.66666667","1123.66666667","white","no","xpyriment","I have read and understood the information shown above","legacy","legacy","0","uniform","1","0","NA","undefined","undefined","1","j","0","0","NA","NA","NA","NA","0","0","0","0","0","0","8","8","8","0","0","NA","0","0","0","0","NA","0","0","8","8","8","8","8","Wed Jun 28 16:44:10 2017","Forced-choice identification task with a practice and an experimental phase","yes","NAP-FC_GER_AA_ver-2.osexp","/Users/aviadalbert/Documents/Academisch/UoC/Dissertation/Experiment/OpenSesame/NAP-FC/NAP-FC_GER_AA/GER_AA_ver-2","yes","no","sans","no","20","no","black","no","Next","yes","768","legacy","8","8","0","/Users/aviadalbert/Documents/Academisch/UoC/Dissertation/Experiment/OpenSesame/NAP-FC/NAP-FC_GER_AA/GER_AA_ver-2/subject-4.csv","xpyriment","Jazzy James","3.1.6","yes","yes","5950408a6c613b0229e3e810","59504237594d9002288b1720","yes","no","0","j","j","NA","NA","return","return","j","890","9235","NA","NA","34220","20087","890","2","legacy","1024","1","44100","-16","experiment","enval","23","Munich","1","0","1","German","English, French","4","even","Cologne","6020194","NA","NA","NA","NA","NA","5838784","NA","5838784","5838784","5965591","5999816","6054639","6053134","6055530","6029431","6020190","NA","5860240","5950406","NA","6019975","NA","6020194","NA","6054639","6054639","NA","NA","6053130","NAP perception","9","10113","9","yes","1024"
"100","yes","100","1135.1","1135.1","white","no","xpyriment","I have read and understood the information shown above","legacy","legacy","0","uniform","1","0","NA","undefined","undefined","1","f","0","0","NA","NA","NA","NA","0","0","0","0","0","0","9","9","9","0","0","NA","0","0","0","0","NA","0","0","9","9","9","9","9","Wed Jun 28 16:44:10 2017","Forced-choice identification task with a practice and an experimental phase","yes","NAP-FC_GER_AA_ver-2.osexp","/Users/aviadalbert/Documents/Academisch/UoC/Dissertation/Experiment/OpenSesame/NAP-FC/NAP-FC_GER_AA/GER_AA_ver-2","yes","no","sans","no","20","no","black","no","Next","yes","768","legacy","9","9","0","/Users/aviadalbert/Documents/Academisch/UoC/Dissertation/Experiment/OpenSesame/NAP-FC/NAP-FC_GER_AA/GER_AA_ver-2/subject-4.csv","xpyriment","Jazzy James","3.1.6","yes","yes","5950408a6c613b0229e3e810","59504237594d9002288b1720","yes","no","0","f","j","NA","NA","return","return","f","1238","9235","NA","NA","34220","20087","1238","2","legacy","1024","1","44100","-16","experiment","vlal","23","Munich","1","0","1","German","English, French","4","even","Cologne","6020194","NA","NA","NA","NA","NA","5838784","NA","5838784","5838784","5965591","5999816","6057309","6055804","6058548","6029431","6020190","NA","5860240","5950406","NA","6019975","NA","6020194","NA","6057309","6057309","NA","NA","6055800","NAP perception","10","11351","10","yes","1024"
"100","yes","100","1339","1339","white","no","xpyriment","I have read and understood the information shown above","legacy","legacy","0","uniform","1","0","0","undefined","undefined","1","j","1","0","NA","0","0","0","0","0","0","0","0","0","10","10","10","0","0","0","0","0","1","0","0","0","1","10","10","10","10","10","Wed Jun 28 16:44:10 2017","Forced-choice identification task with a practice and an experimental phase","yes","NAP-FC_GER_AA_ver-2.osexp","/Users/aviadalbert/Documents/Academisch/UoC/Dissertation/Experiment/OpenSesame/NAP-FC/NAP-FC_GER_AA/GER_AA_ver-2","yes","no","sans","no","20","no","black","no","Next","yes","768","legacy","0","9","0","/Users/aviadalbert/Documents/Academisch/UoC/Dissertation/Experiment/OpenSesame/NAP-FC/NAP-FC_GER_AA/GER_AA_ver-2/subject-4.csv","xpyriment","Jazzy James","3.1.6","yes","yes","5950408a6c613b0229e3e810","59504237594d9002288b1720","no","no","0","j","f","space","NA","return","return","j","1339","2308","14464","NA","34220","20087","1339","2","legacy","1024","1","44100","-16","experiment","nemal","23","Munich","1","0","1","German","English, French","4","even","Cologne","6075067","6060303","NA","6077376","6075063","NA","5838784","6074832","5838784","5838784","5965591","5999816","6079096","6077592","6080436","6029431","6020190","6060302","5860240","5950406","6058618","6019975","6075066","6020194","NA","6079096","6079096","NA","NA","6077588","NAP perception","1","1339","1","yes","1024"
"50","yes","50","1114.5","1114.5","white","no","xpyriment","I have read and understood the information shown above","legacy","legacy","0","uniform","0","0","0","undefined","undefined","0","f","1","0","NA","0","0","0","0","0","0","0","0","0","11","11","11","0","0","0","0","0","1","0","0","0","1","11","11","11","11","11","Wed Jun 28 16:44:10 2017","Forced-choice identification task with a practice and an experimental phase","yes","NAP-FC_GER_AA_ver-2.osexp","/Users/aviadalbert/Documents/Academisch/UoC/Dissertation/Experiment/OpenSesame/NAP-FC/NAP-FC_GER_AA/GER_AA_ver-2","yes","no","sans","no","20","no","black","no","Next","yes","768","legacy","1","9","0","/Users/aviadalbert/Documents/Academisch/UoC/Dissertation/Experiment/OpenSesame/NAP-FC/NAP-FC_GER_AA/GER_AA_ver-2/subject-4.csv","xpyriment","Jazzy James","3.1.6","yes","yes","5950408a6c613b0229e3e810","59504237594d9002288b1720","no","no","0","j","f","space","NA","return","return","j","890","2308","14464","NA","34220","20087","890","2","legacy","1024","1","44100","-16","experiment","jmal","23","Munich","1","0","1","German","English, French","4","even","Cologne","6075067","6060303","NA","6077376","6075063","NA","5838784","6074832","5838784","5838784","5965591","5999816","6082224","6080718","6083115","6029431","6020190","6060302","5860240","5950406","6058618","6019975","6075066","6020194","NA","6082223","6082224","NA","NA","6080713","NAP perception","1","2229","2","yes","1024"
"66.6666666667","yes","66.6666666667","1028.33333333","1028.33333333","white","no","xpyriment","I have read and understood the information shown above","legacy","legacy","0","uniform","1","0","0","undefined","undefined","1","j","1","0","NA","0","0","0","0","0","0","0","0","0","12","12","12","0","0","0","0","0","1","0","0","0","1","12","12","12","12","12","Wed Jun 28 16:44:10 2017","Forced-choice identification task with a practice and an experimental phase","yes","NAP-FC_GER_AA_ver-2.osexp","/Users/aviadalbert/Documents/Academisch/UoC/Dissertation/Experiment/OpenSesame/NAP-FC/NAP-FC_GER_AA/GER_AA_ver-2","yes","no","sans","no","20","no","black","no","Next","yes","768","legacy","2","9","0","/Users/aviadalbert/Documents/Academisch/UoC/Dissertation/Experiment/OpenSesame/NAP-FC/NAP-FC_GER_AA/GER_AA_ver-2/subject-4.csv","xpyriment","Jazzy James","3.1.6","yes","yes","5950408a6c613b0229e3e810","59504237594d9002288b1720","no","no","0","j","f","space","NA","return","return","j","856","2308","14464","NA","34220","20087","856","2","legacy","1024","1","44100","-16","experiment","esmal","23","Munich","1","0","1","German","English, French","4","even","Cologne","6075067","6060303","NA","6077376","6075063","NA","5838784","6074832","5838784","5838784","5965591","5999816","6084903","6083396","6085760","6029431","6020190","6060302","5860240","5950406","6058618","6019975","6075066","6020194","NA","6084903","6084903","NA","NA","6083392","NAP perception","2","3085","3","yes","1024"
"75","yes","75","1088","1088","white","no","xpyriment","I have read and understood the information shown above","legacy","legacy","0","uniform","1","0","0","undefined","undefined","1","f","1","0","NA","0","0","0","0","0","0","0","0","0","13","13","13","0","0","0","0","0","1","0","0","0","1","13","13","13","13","13","Wed Jun 28 16:44:10 2017","Forced-choice identification task with a practice and an experimental phase","yes","NAP-FC_GER_AA_ver-2.osexp","/Users/aviadalbert/Documents/Academisch/UoC/Dissertation/Experiment/OpenSesame/NAP-FC/NAP-FC_GER_AA/GER_AA_ver-2","yes","no","sans","no","20","no","black","no","Next","yes","768","legacy","3","9","0","/Users/aviadalbert/Documents/Academisch/UoC/Dissertation/Experiment/OpenSesame/NAP-FC/NAP-FC_GER_AA/GER_AA_ver-2/subject-4.csv","xpyriment","Jazzy James","3.1.6","yes","yes","5950408a6c613b0229e3e810","59504237594d9002288b1720","no","no","0","f","f","space","NA","return","return","f","1267","2308","14464","NA","34220","20087","1267","2","legacy","1024","1","44100","-16","experiment","vzal","23","Munich","1","0","1","German","English, French","4","even","Cologne","6075067","6060303","NA","6077376","6075063","NA","5838784","6074832","5838784","5838784","5965591","5999816","6087541","6086035","6088809","6029431","6020190","6060302","5860240","5950406","6058618","6019975","6075066","6020194","NA","6087541","6087541","NA","NA","6086031","NAP perception","3","4352","4","yes","1024"
"80","yes","80","1065.4","1065.4","white","no","xpyriment","I have read and understood the information shown above","legacy","legacy","0","uniform","1","0","0","undefined","undefined","1","j","1","0","NA","0","0","0","0","0","0","0","0","0","14","14","14","0","0","0","0","0","1","0","0","0","1","14","14","14","14","14","Wed Jun 28 16:44:10 2017","Forced-choice identification task with a practice and an experimental phase","yes","NAP-FC_GER_AA_ver-2.osexp","/Users/aviadalbert/Documents/Academisch/UoC/Dissertation/Experiment/OpenSesame/NAP-FC/NAP-FC_GER_AA/GER_AA_ver-2","yes","no","sans","no","20","no","black","no","Next","yes","768","legacy","4","9","0","/Users/aviadalbert/Documents/Academisch/UoC/Dissertation/Experiment/OpenSesame/NAP-FC/NAP-FC_GER_AA/GER_AA_ver-2/subject-4.csv","xpyriment","Jazzy James","3.1.6","yes","yes","5950408a6c613b0229e3e810","59504237594d9002288b1720","no","no","0","j","f","space","NA","return","return","j","975","2308","14464","NA","34220","20087","975","2","legacy","1024","1","44100","-16","experiment","nefal","23","Munich","1","0","1","German","English, French","4","even","Cologne","6075067","6060303","NA","6077376","6075063","NA","5838784","6074832","5838784","5838784","5965591","5999816","6090586","6089081","6091562","6029431","6020190","6060302","5860240","5950406","6058618","6019975","6075066","6020194","NA","6090585","6090586","NA","NA","6089077","NAP perception","4","5327","5","yes","1024"
"83.3333333333","yes","83.3333333333","1050.66666667","1050.66666667","white","no","xpyriment","I have read and understood the information shown above","legacy","legacy","0","uniform","1","0","0","undefined","undefined","1","j","1","0","NA","0","0","0","0","0","0","0","0","0","15","15","15","0","0","0","0","0","1","0","0","0","1","15","15","15","15","15","Wed Jun 28 16:44:10 2017","Forced-choice identification task with a practice and an experimental phase","yes","NAP-FC_GER_AA_ver-2.osexp","/Users/aviadalbert/Documents/Academisch/UoC/Dissertation/Experiment/OpenSesame/NAP-FC/NAP-FC_GER_AA/GER_AA_ver-2","yes","no","sans","no","20","no","black","no","Next","yes","768","legacy","5","9","0","/Users/aviadalbert/Documents/Academisch/UoC/Dissertation/Experiment/OpenSesame/NAP-FC/NAP-FC_GER_AA/GER_AA_ver-2/subject-4.csv","xpyriment","Jazzy James","3.1.6","yes","yes","5950408a6c613b0229e3e810","59504237594d9002288b1720","no","no","0","j","f","space","NA","return","return","j","977","2308","14464","NA","34220","20087","977","2","legacy","1024","1","44100","-16","experiment","lekal","23","Munich","1","0","1","German","English, French","4","even","Cologne","6075067","6060303","NA","6077376","6075063","NA","5838784","6074832","5838784","5838784","5965591","5999816","6093371","6091865","6094349","6029431","6020190","6060302","5860240","5950406","6058618","6019975","6075066","6020194","NA","6093371","6093371","NA","NA","6091861","NAP perception","5","6304","6","yes","1024"
"85.7142857143","yes","85.7142857143","1025.28571429","1025.28571429","white","no","xpyriment","I have read and understood the information shown above","legacy","legacy","0","uniform","1","0","0","undefined","undefined","1","j","1","0","NA","0","0","0","0","0","0","0","0","0","16","16","16","0","0","0","0","0","1","0","0","0","1","16","16","16","16","16","Wed Jun 28 16:44:10 2017","Forced-choice identification task with a practice and an experimental phase","yes","NAP-FC_GER_AA_ver-2.osexp","/Users/aviadalbert/Documents/Academisch/UoC/Dissertation/Experiment/OpenSesame/NAP-FC/NAP-FC_GER_AA/GER_AA_ver-2","yes","no","sans","no","20","no","black","no","Next","yes","768","legacy","6","9","0","/Users/aviadalbert/Documents/Academisch/UoC/Dissertation/Experiment/OpenSesame/NAP-FC/NAP-FC_GER_AA/GER_AA_ver-2/subject-4.csv","xpyriment","Jazzy James","3.1.6","yes","yes","5950408a6c613b0229e3e810","59504237594d9002288b1720","no","no","0","j","f","space","NA","return","return","j","873","2308","14464","NA","34220","20087","873","2","legacy","1024","1","44100","-16","experiment","elpal","23","Munich","1","0","1","German","English, French","4","even","Cologne","6075067","6060303","NA","6077376","6075063","NA","5838784","6074832","5838784","5838784","5965591","5999816","6096142","6094636","6097017","6029431","6020190","6060302","5860240","5950406","6058618","6019975","6075066","6020194","NA","6096142","6096142","NA","NA","6094632","NAP perception","6","7177","7","yes","1024"
"87.5","yes","87.5","1009.125","1009.125","white","no","xpyriment","I have read and understood the information shown above","legacy","legacy","0","uniform","1","0","0","undefined","undefined","1","f","1","0","NA","0","0","0","0","0","0","0","0","0","17","17","17","0","0","0","0","0","1","0","0","0","1","17","17","17","17","17","Wed Jun 28 16:44:10 2017","Forced-choice identification task with a practice and an experimental phase","yes","NAP-FC_GER_AA_ver-2.osexp","/Users/aviadalbert/Documents/Academisch/UoC/Dissertation/Experiment/OpenSesame/NAP-FC/NAP-FC_GER_AA/GER_AA_ver-2","yes","no","sans","no","20","no","black","no","Next","yes","768","legacy","7","9","0","/Users/aviadalbert/Documents/Academisch/UoC/Dissertation/Experiment/OpenSesame/NAP-FC/NAP-FC_GER_AA/GER_AA_ver-2/subject-4.csv","xpyriment","Jazzy James","3.1.6","yes","yes","5950408a6c613b0229e3e810","59504237594d9002288b1720","no","no","0","f","f","space","NA","return","return","f","896","2308","14464","NA","34220","20087","896","2","legacy","1024","1","44100","-16","experiment","zval","23","Munich","1","0","1","German","English, French","4","even","Cologne","6075067","6060303","NA","6077376","6075063","NA","5838784","6074832","5838784","5838784","5965591","5999816","6098798","6097291","6099696","6029431","6020190","6060302","5860240","5950406","6058618","6019975","6075066","6020194","NA","6098797","6098797","NA","NA","6097287","NAP perception","7","8073","8","yes","1024"
"77.7777777778","yes","77.7777777778","1004.77777778","1004.77777778","white","no","xpyriment","I have read and understood the information shown above","legacy","legacy","0","uniform","0","0","0","undefined","undefined","0","f","1","0","NA","0","0","0","0","0","0","0","0","0","18","18","18","0","0","0","0","0","1","0","0","0","1","18","18","18","18","18","Wed Jun 28 16:44:10 2017","Forced-choice identification task with a practice and an experimental phase","yes","NAP-FC_GER_AA_ver-2.osexp","/Users/aviadalbert/Documents/Academisch/UoC/Dissertation/Experiment/OpenSesame/NAP-FC/NAP-FC_GER_AA/GER_AA_ver-2","yes","no","sans","no","20","no","black","no","Next","yes","768","legacy","8","9","0","/Users/aviadalbert/Documents/Academisch/UoC/Dissertation/Experiment/OpenSesame/NAP-FC/NAP-FC_GER_AA/GER_AA_ver-2/subject-4.csv","xpyriment","Jazzy James","3.1.6","yes","yes","5950408a6c613b0229e3e810","59504237594d9002288b1720","no","no","0","j","f","space","NA","return","return","j","970","2308","14464","NA","34220","20087","970","2","legacy","1024","1","44100","-16","experiment","wtal","23","Munich","1","0","1","German","English, French","4","even","Cologne","6075067","6060303","NA","6077376","6075063","NA","5838784","6074832","5838784","5838784","5965591","5999816","6101478","6099974","6102449","6029431","6020190","6060302","5860240","5950406","6058618","6019975","6075066","6020194","NA","6101478","6101478","NA","NA","6099970","NAP perception","7","9043","9","yes","1024"
"80","yes","80","1060","1060","white","no","xpyriment","I have read and understood the information shown above","legacy","legacy","0","uniform","1","0","0","undefined","undefined","1","f","1","0","NA","0","0","0","0","0","0","0","0","0","19","19","19","0","0","0","0","0","1","0","0","0","1","19","19","19","19","19","Wed Jun 28 16:44:10 2017","Forced-choice identification task with a practice and an experimental phase","yes","NAP-FC_GER_AA_ver-2.osexp","/Users/aviadalbert/Documents/Academisch/UoC/Dissertation/Experiment/OpenSesame/NAP-FC/NAP-FC_GER_AA/GER_AA_ver-2","yes","no","sans","no","20","no","black","no","Next","yes","768","legacy","9","9","0","/Users/aviadalbert/Documents/Academisch/UoC/Dissertation/Experiment/OpenSesame/NAP-FC/NAP-FC_GER_AA/GER_AA_ver-2/subject-4.csv","xpyriment","Jazzy James","3.1.6","yes","yes","5950408a6c613b0229e3e810","59504237594d9002288b1720","no","no","0","f","f","space","NA","return","return","f","1557","2308","14464","NA","34220","20087","1557","2","legacy","1024","1","44100","-16","experiment","vnal","23","Munich","1","0","1","German","English, French","4","even","Cologne","6075067","6060303","NA","6077376","6075063","NA","5838784","6074832","5838784","5838784","5965591","5999816","6104242","6102739","6105800","6029431","6020190","6060302","5860240","5950406","6058618","6019975","6075066","6020194","NA","6104242","6104242","NA","NA","6102735","NAP perception","8","10600","10","yes","1024"
"72.7272727273","yes","72.7272727273","1116.18181818","1116.18181818","white","no","xpyriment","I have read and understood the information shown above","legacy","legacy","0","uniform","0","0","0","undefined","undefined","0","f","1","0","NA","0","0","0","0","0","0","0","0","0","20","20","20","0","0","0","0","0","1","0","0","0","1","20","20","20","20","20","Wed Jun 28 16:44:10 2017","Forced-choice identification task with a practice and an experimental phase","yes","NAP-FC_GER_AA_ver-2.osexp","/Users/aviadalbert/Documents/Academisch/UoC/Dissertation/Experiment/OpenSesame/NAP-FC/NAP-FC_GER_AA/GER_AA_ver-2","yes","no","sans","no","20","no","black","no","Next","yes","768","legacy","10","9","0","/Users/aviadalbert/Documents/Academisch/UoC/Dissertation/Experiment/OpenSesame/NAP-FC/NAP-FC_GER_AA/GER_AA_ver-2/subject-4.csv","xpyriment","Jazzy James","3.1.6","yes","yes","5950408a6c613b0229e3e810","59504237594d9002288b1720","no","no","0","j","f","space","NA","return","return","j","1678","2308","14464","NA","34220","20087","1678","2","legacy","1024","1","44100","-16","experiment","lpal","23","Munich","1","0","1","German","English, French","4","even","Cologne","6075067","6060303","NA","6077376","6075063","NA","5838784","6074832","5838784","5838784","5965591","5999816","6107575","6106071","6109254","6029431","6020190","6060302","5860240","5950406","6058618","6019975","6075066","6020194","NA","6107575","6107575","NA","NA","6106066","NAP perception","8","12278","11","yes","1024"
"75","yes","75","1134.16666667","1134.16666667","white","no","xpyriment","I have read and understood the information shown above","legacy","legacy","0","uniform","1","0","0","undefined","undefined","1","j","1","0","NA","0","0","0","0","0","0","0","0","0","21","21","21","0","0","0","0","0","1","0","0","0","1","21","21","21","21","21","Wed Jun 28 16:44:10 2017","Forced-choice identification task with a practice and an experimental phase","yes","NAP-FC_GER_AA_ver-2.osexp","/Users/aviadalbert/Documents/Academisch/UoC/Dissertation/Experiment/OpenSesame/NAP-FC/NAP-FC_GER_AA/GER_AA_ver-2","yes","no","sans","no","20","no","black","no","Next","yes","768","legacy","11","9","0","/Users/aviadalbert/Documents/Academisch/UoC/Dissertation/Experiment/OpenSesame/NAP-FC/NAP-FC_GER_AA/GER_AA_ver-2/subject-4.csv","xpyriment","Jazzy James","3.1.6","yes","yes","5950408a6c613b0229e3e810","59504237594d9002288b1720","no","no","0","j","f","space","NA","return","return","j","1332","2308","14464","NA","34220","20087","1332","2","legacy","1024","1","44100","-16","experiment","efsal","23","Munich","1","0","1","German","English, French","4","even","Cologne","6075067","6060303","NA","6077376","6075063","NA","5838784","6074832","5838784","5838784","5965591","5999816","6111034","6109530","6112367","6029431","6020190","6060302","5860240","5950406","6058618","6019975","6075066","6020194","NA","6111034","6111034","NA","NA","6109526","NAP perception","9","13610","12","yes","1024"
"76.9230769231","yes","76.9230769231","1114.76923077","1114.76923077","white","no","xpyriment","I have read and understood the information shown above","legacy","legacy","0","uniform","1","0","0","undefined","undefined","1","f","1","0","NA","0","0","0","0","0","0","0","0","0","22","22","22","0","0","0","0","0","1","0","0","0","1","22","22","22","22","22","Wed Jun 28 16:44:10 2017","Forced-choice identification task with a practice and an experimental phase","yes","NAP-FC_GER_AA_ver-2.osexp","/Users/aviadalbert/Documents/Academisch/UoC/Dissertation/Experiment/OpenSesame/NAP-FC/NAP-FC_GER_AA/GER_AA_ver-2","yes","no","sans","no","20","no","black","no","Next","yes","768","legacy","12","9","0","/Users/aviadalbert/Documents/Academisch/UoC/Dissertation/Experiment/OpenSesame/NAP-FC/NAP-FC_GER_AA/GER_AA_ver-2/subject-4.csv","xpyriment","Jazzy James","3.1.6","yes","yes","5950408a6c613b0229e3e810","59504237594d9002288b1720","no","no","0","f","f","space","NA","return","return","f","882","2308","14464","NA","34220","20087","882","2","legacy","1024","1","44100","-16","experiment","flal","23","Munich","1","0","1","German","English, French","4","even","Cologne","6075067","6060303","NA","6077376","6075063","NA","5838784","6074832","5838784","5838784","5965591","5999816","6114133","6112629","6115016","6029431","6020190","6060302","5860240","5950406","6058618","6019975","6075066","6020194","NA","6114133","6114133","NA","NA","6112625","NAP perception","10","14492","13","yes","1024"
"78.5714285714","yes","78.5714285714","1129.42857143","1129.42857143","white","no","xpyriment","I have read and understood the information shown above","legacy","legacy","0","uniform","1","0","0","undefined","undefined","1","f","1","0","NA","0","0","0","0","0","0","0","0","0","23","23","23","0","0","0","0","0","1","0","0","0","1","23","23","23","23","23","Wed Jun 28 16:44:10 2017","Forced-choice identification task with a practice and an experimental phase","yes","NAP-FC_GER_AA_ver-2.osexp","/Users/aviadalbert/Documents/Academisch/UoC/Dissertation/Experiment/OpenSesame/NAP-FC/NAP-FC_GER_AA/GER_AA_ver-2","yes","no","sans","no","20","no","black","no","Next","yes","768","legacy","13","9","0","/Users/aviadalbert/Documents/Academisch/UoC/Dissertation/Experiment/OpenSesame/NAP-FC/NAP-FC_GER_AA/GER_AA_ver-2/subject-4.csv","xpyriment","Jazzy James","3.1.6","yes","yes","5950408a6c613b0229e3e810","59504237594d9002288b1720","no","no","0","f","f","space","NA","return","return","f","1320","2308","14464","NA","34220","20087","1320","2","legacy","1024","1","44100","-16","experiment","lval","23","Munich","1","0","1","German","English, French","4","even","Cologne","6075067","6060303","NA","6077376","6075063","NA","5838784","6074832","5838784","5838784","5965591","5999816","6116801","6115293","6118123","6029431","6020190","6060302","5860240","5950406","6058618","6019975","6075066","6020194","NA","6116801","6116801","NA","NA","6115289","NAP perception","11","15812","14","yes","1024"
"80","yes","80","1123.33333333","1123.33333333","white","no","xpyriment","I have read and understood the information shown above","legacy","legacy","0","uniform","1","0","0","undefined","undefined","1","j","1","0","NA","0","0","0","0","0","0","0","0","0","24","24","24","0","0","0","0","0","1","0","0","0","1","24","24","24","24","24","Wed Jun 28 16:44:10 2017","Forced-choice identification task with a practice and an experimental phase","yes","NAP-FC_GER_AA_ver-2.osexp","/Users/aviadalbert/Documents/Academisch/UoC/Dissertation/Experiment/OpenSesame/NAP-FC/NAP-FC_GER_AA/GER_AA_ver-2","yes","no","sans","no","20","no","black","no","Next","yes","768","legacy","14","9","0","/Users/aviadalbert/Documents/Academisch/UoC/Dissertation/Experiment/OpenSesame/NAP-FC/NAP-FC_GER_AA/GER_AA_ver-2/subject-4.csv","xpyriment","Jazzy James","3.1.6","yes","yes","5950408a6c613b0229e3e810","59504237594d9002288b1720","no","no","0","j","f","space","NA","return","return","j","1038","2308","14464","NA","34220","20087","1038","2","legacy","1024","1","44100","-16","experiment","wesal","23","Munich","1","0","1","German","English, French","4","even","Cologne","6075067","6060303","NA","6077376","6075063","NA","5838784","6074832","5838784","5838784","5965591","5999816","6119901","6118394","6120940","6029431","6020190","6060302","5860240","5950406","6058618","6019975","6075066","6020194","NA","6119900","6119900","NA","NA","6118389","NAP perception","12","16850","15","yes","1024"
"75","yes","75","1181.3125","1181.3125","white","no","xpyriment","I have read and understood the information shown above","legacy","legacy","0","uniform","0","0","0","undefined","undefined","0","f","1","0","NA","0","0","0","0","0","0","0","0","0","25","25","25","0","0","0","0","0","1","0","0","0","1","25","25","25","25","25","Wed Jun 28 16:44:10 2017","Forced-choice identification task with a practice and an experimental phase","yes","NAP-FC_GER_AA_ver-2.osexp","/Users/aviadalbert/Documents/Academisch/UoC/Dissertation/Experiment/OpenSesame/NAP-FC/NAP-FC_GER_AA/GER_AA_ver-2","yes","no","sans","no","20","no","black","no","Next","yes","768","legacy","15","9","0","/Users/aviadalbert/Documents/Academisch/UoC/Dissertation/Experiment/OpenSesame/NAP-FC/NAP-FC_GER_AA/GER_AA_ver-2/subject-4.csv","xpyriment","Jazzy James","3.1.6","yes","yes","5950408a6c613b0229e3e810","59504237594d9002288b1720","no","no","0","j","f","space","NA","return","return","j","2051","2308","14464","NA","34220","20087","2051","2","legacy","1024","1","44100","-16","experiment","wzal","23","Munich","1","0","1","German","English, French","4","even","Cologne","6075067","6060303","NA","6077376","6075063","NA","5838784","6074832","5838784","5838784","5965591","5999816","6122722","6121216","6124774","6029431","6020190","6060302","5860240","5950406","6058618","6019975","6075066","6020194","NA","6122722","6122722","NA","NA","6121211","NAP perception","12","18901","16","yes","1024"
"76.4705882353","yes","76.4705882353","1185.23529412","1185.23529412","white","no","xpyriment","I have read and understood the information shown above","legacy","legacy","0","uniform","1","0","0","undefined","undefined","1","j","1","0","NA","0","0","0","0","0","0","0","0","0","26","26","26","0","0","0","0","0","1","0","0","0","1","26","26","26","26","26","Wed Jun 28 16:44:10 2017","Forced-choice identification task with a practice and an experimental phase","yes","NAP-FC_GER_AA_ver-2.osexp","/Users/aviadalbert/Documents/Academisch/UoC/Dissertation/Experiment/OpenSesame/NAP-FC/NAP-FC_GER_AA/GER_AA_ver-2","yes","no","sans","no","20","no","black","no","Next","yes","768","legacy","16","9","0","/Users/aviadalbert/Documents/Academisch/UoC/Dissertation/Experiment/OpenSesame/NAP-FC/NAP-FC_GER_AA/GER_AA_ver-2/subject-4.csv","xpyriment","Jazzy James","3.1.6","yes","yes","5950408a6c613b0229e3e810","59504237594d9002288b1720","no","no","0","j","f","space","NA","return","return","j","1248","2308","14464","NA","34220","20087","1248","2","legacy","1024","1","44100","-16","experiment","mezal","23","Munich","1","0","1","German","English, French","4","even","Cologne","6075067","6060303","NA","6077376","6075063","NA","5838784","6074832","5838784","5838784","5965591","5999816","6126554","6125049","6127803","6029431","6020190","6060302","5860240","5950406","6058618","6019975","6075066","6020194","NA","6126554","6126554","NA","NA","6125045","NAP perception","13","20149","17","yes","1024"
"72.2222222222","yes","72.2222222222","1196.27777778","1196.27777778","white","no","xpyriment","I have read and understood the information shown above","legacy","legacy","0","uniform","0","0","0","undefined","undefined","0","f","1","0","NA","0","0","0","0","0","0","0","0","0","27","27","27","0","0","0","0","0","1","0","0","0","1","27","27","27","27","27","Wed Jun 28 16:44:10 2017","Forced-choice identification task with a practice and an experimental phase","yes","NAP-FC_GER_AA_ver-2.osexp","/Users/aviadalbert/Documents/Academisch/UoC/Dissertation/Experiment/OpenSesame/NAP-FC/NAP-FC_GER_AA/GER_AA_ver-2","yes","no","sans","no","20","no","black","no","Next","yes","768","legacy","17","9","0","/Users/aviadalbert/Documents/Academisch/UoC/Dissertation/Experiment/OpenSesame/NAP-FC/NAP-FC_GER_AA/GER_AA_ver-2/subject-4.csv","xpyriment","Jazzy James","3.1.6","yes","yes","5950408a6c613b0229e3e810","59504237594d9002288b1720","no","no","0","j","f","space","NA","return","return","j","1384","2308","14464","NA","34220","20087","1384","2","legacy","1024","1","44100","-16","experiment","wnal","23","Munich","1","0","1","German","English, French","4","even","Cologne","6075067","6060303","NA","6077376","6075063","NA","5838784","6074832","5838784","5838784","5965591","5999816","6129597","6128093","6130982","6029431","6020190","6060302","5860240","5950406","6058618","6019975","6075066","6020194","NA","6129597","6129597","NA","NA","6128088","NAP perception","13","21533","18","yes","1024"
"73.6842105263","yes","73.6842105263","1186.42105263","1186.42105263","white","no","xpyriment","I have read and understood the information shown above","legacy","legacy","0","uniform","1","0","0","undefined","undefined","1","j","1","0","NA","0","0","0","0","0","0","0","0","0","28","28","28","0","0","0","0","0","1","0","0","0","1","28","28","28","28","28","Wed Jun 28 16:44:10 2017","Forced-choice identification task with a practice and an experimental phase","yes","NAP-FC_GER_AA_ver-2.osexp","/Users/aviadalbert/Documents/Academisch/UoC/Dissertation/Experiment/OpenSesame/NAP-FC/NAP-FC_GER_AA/GER_AA_ver-2","yes","no","sans","no","20","no","black","no","Next","yes","768","legacy","18","9","0","/Users/aviadalbert/Documents/Academisch/UoC/Dissertation/Experiment/OpenSesame/NAP-FC/NAP-FC_GER_AA/GER_AA_ver-2/subject-4.csv","xpyriment","Jazzy James","3.1.6","yes","yes","5950408a6c613b0229e3e810","59504237594d9002288b1720","no","no","0","j","f","space","NA","return","return","j","1009","2308","14464","NA","34220","20087","1009","2","legacy","1024","1","44100","-16","experiment","ʃepal","23","Munich","1","0","1","German","English, French","4","even","Cologne","6075067","6060303","NA","6077376","6075063","NA","5838784","6074832","5838784","5838784","5965591","5999816","6132768","6131264","6133779","6029431","6020190","6060302","5860240","5950406","6058618","6019975","6075066","6020194","NA","6132768","6132768","NA","NA","6131260","NAP perception","14","22542","19","yes","1024"
"75","yes","75","1187.65","1187.65","white","no","xpyriment","I have read and understood the information shown above","legacy","legacy","0","uniform","1","0","0","undefined","undefined","1","f","1","0","NA","0","0","0","0","0","0","0","0","0","29","29","29","0","0","0","0","0","1","0","0","0","1","29","29","29","29","29","Wed Jun 28 16:44:10 2017","Forced-choice identification task with a practice and an experimental phase","yes","NAP-FC_GER_AA_ver-2.osexp","/Users/aviadalbert/Documents/Academisch/UoC/Dissertation/Experiment/OpenSesame/NAP-FC/NAP-FC_GER_AA/GER_AA_ver-2","yes","no","sans","no","20","no","black","no","Next","yes","768","legacy","19","9","0","/Users/aviadalbert/Documents/Academisch/UoC/Dissertation/Experiment/OpenSesame/NAP-FC/NAP-FC_GER_AA/GER_AA_ver-2/subject-4.csv","xpyriment","Jazzy James","3.1.6","yes","yes","5950408a6c613b0229e3e810","59504237594d9002288b1720","no","no","0","f","f","space","NA","return","return","f","1211","2308","14464","NA","34220","20087","1211","2","legacy","1024","1","44100","-16","experiment","mnal","23","Munich","1","0","1","German","English, French","4","even","Cologne","6075067","6060303","NA","6077376","6075063","NA","5838784","6074832","5838784","5838784","5965591","5999816","6135563","6134057","6136776","6029431","6020190","6060302","5860240","5950406","6058618","6019975","6075066","6020194","NA","6135563","6135563","NA","NA","6134053","NAP perception","15","23753","20","yes","1024"
"76.1904761905","yes","76.1904761905","1179.95238095","1179.95238095","white","no","xpyriment","I have read and understood the information shown above","legacy","legacy","0","uniform","1","0","0","undefined","undefined","1","j","1","0","NA","0","0","0","0","0","0","0","0","0","30","30","30","0","0","0","0","0","1","0","0","0","1","30","30","30","30","30","Wed Jun 28 16:44:10 2017","Forced-choice identification task with a practice and an experimental phase","yes","NAP-FC_GER_AA_ver-2.osexp","/Users/aviadalbert/Documents/Academisch/UoC/Dissertation/Experiment/OpenSesame/NAP-FC/NAP-FC_GER_AA/GER_AA_ver-2","yes","no","sans","no","20","no","black","no","Next","yes","768","legacy","20","9","0","/Users/aviadalbert/Documents/Academisch/UoC/Dissertation/Experiment/OpenSesame/NAP-FC/NAP-FC_GER_AA/GER_AA_ver-2/subject-4.csv","xpyriment","Jazzy James","3.1.6","yes","yes","5950408a6c613b0229e3e810","59504237594d9002288b1720","no","no","0","j","f","space","NA","return","return","j","1026","2308","14464","NA","34220","20087","1026","2","legacy","1024","1","44100","-16","experiment","ezmal","23","Munich","1","0","1","German","English, French","4","even","Cologne","6075067","6060303","NA","6077376","6075063","NA","5838784","6074832","5838784","5838784","5965591","5999816","6138558","6137051","6139586","6029431","6020190","6060302","5860240","5950406","6058618","6019975","6075066","6020194","NA","6138558","6138558","NA","NA","6137047","NAP perception","16","24779","21","yes","1024"
"77.2727272727","yes","77.2727272727","1173.68181818","1173.68181818","white","no","xpyriment","I have read and understood the information shown above","legacy","legacy","0","uniform","1","0","0","undefined","undefined","1","f","1","0","NA","0","0","0","0","0","0","0","0","0","31","31","31","0","0","0","0","0","1","0","0","0","1","31","31","31","31","31","Wed Jun 28 16:44:10 2017","Forced-choice identification task with a practice and an experimental phase","yes","NAP-FC_GER_AA_ver-2.osexp","/Users/aviadalbert/Documents/Academisch/UoC/Dissertation/Experiment/OpenSesame/NAP-FC/NAP-FC_GER_AA/GER_AA_ver-2","yes","no","sans","no","20","no","black","no","Next","yes","768","legacy","21","9","0","/Users/aviadalbert/Documents/Academisch/UoC/Dissertation/Experiment/OpenSesame/NAP-FC/NAP-FC_GER_AA/GER_AA_ver-2/subject-4.csv","xpyriment","Jazzy James","3.1.6","yes","yes","5950408a6c613b0229e3e810","59504237594d9002288b1720","no","no","0","f","f","space","NA","return","return","f","1042","2308","14464","NA","34220","20087","1042","2","legacy","1024","1","44100","-16","experiment","mlal","23","Munich","1","0","1","German","English, French","4","even","Cologne","6075067","6060303","NA","6077376","6075063","NA","5838784","6074832","5838784","5838784","5965591","5999816","6141363","6139860","6142407","6029431","6020190","6060302","5860240","5950406","6058618","6019975","6075066","6020194","NA","6141363","6141363","NA","NA","6139856","NAP perception","17","25821","22","yes","1024"
"73.9130434783","yes","73.9130434783","1159.13043478","1159.13043478","white","no","xpyriment","I have read and understood the information shown above","legacy","legacy","0","uniform","0","0","0","undefined","undefined","0","f","1","0","NA","0","0","0","0","0","0","0","0","0","32","32","32","0","0","0","0","0","1","0","0","0","1","32","32","32","32","32","Wed Jun 28 16:44:10 2017","Forced-choice identification task with a practice and an experimental phase","yes","NAP-FC_GER_AA_ver-2.osexp","/Users/aviadalbert/Documents/Academisch/UoC/Dissertation/Experiment/OpenSesame/NAP-FC/NAP-FC_GER_AA/GER_AA_ver-2","yes","no","sans","no","20","no","black","no","Next","yes","768","legacy","22","9","0","/Users/aviadalbert/Documents/Academisch/UoC/Dissertation/Experiment/OpenSesame/NAP-FC/NAP-FC_GER_AA/GER_AA_ver-2/subject-4.csv","xpyriment","Jazzy James","3.1.6","yes","yes","5950408a6c613b0229e3e810","59504237594d9002288b1720","no","no","0","j","f","space","NA","return","return","j","839","2308","14464","NA","34220","20087","839","2","legacy","1024","1","44100","-16","experiment","jpal","23","Munich","1","0","1","German","English, French","4","even","Cologne","6075067","6060303","NA","6077376","6075063","NA","5838784","6074832","5838784","5838784","5965591","5999816","6144184","6142681","6145025","6029431","6020190","6060302","5860240","5950406","6058618","6019975","6075066","6020194","NA","6144184","6144184","NA","NA","6142677","NAP perception","17","26660","23","yes","1024"
"75","yes","75","1152.625","1152.625","white","no","xpyriment","I have read and understood the information shown above","legacy","legacy","0","uniform","1","0","0","undefined","undefined","1","j","1","0","NA","0","0","0","0","0","0","0","0","0","33","33","33","0","0","0","0","0","1","0","0","0","1","33","33","33","33","33","Wed Jun 28 16:44:10 2017","Forced-choice identification task with a practice and an experimental phase","yes","NAP-FC_GER_AA_ver-2.osexp","/Users/aviadalbert/Documents/Academisch/UoC/Dissertation/Experiment/OpenSesame/NAP-FC/NAP-FC_GER_AA/GER_AA_ver-2","yes","no","sans","no","20","no","black","no","Next","yes","768","legacy","23","9","0","/Users/aviadalbert/Documents/Academisch/UoC/Dissertation/Experiment/OpenSesame/NAP-FC/NAP-FC_GER_AA/GER_AA_ver-2/subject-4.csv","xpyriment","Jazzy James","3.1.6","yes","yes","5950408a6c613b0229e3e810","59504237594d9002288b1720","no","no","0","j","f","space","NA","return","return","j","1003","2308","14464","NA","34220","20087","1003","2","legacy","1024","1","44100","-16","experiment","jefal","23","Munich","1","0","1","German","English, French","4","even","Cologne","6075067","6060303","NA","6077376","6075063","NA","5838784","6074832","5838784","5838784","5965591","5999816","6146802","6145299","6147806","6029431","6020190","6060302","5860240","5950406","6058618","6019975","6075066","6020194","NA","6146802","6146802","NA","NA","6145295","NAP perception","18","27663","24","yes","1024"
"76","yes","76","1150.84","1150.84","white","no","xpyriment","I have read and understood the information shown above","legacy","legacy","0","uniform","1","0","0","undefined","undefined","1","f","1","0","NA","0","0","0","0","0","0","0","0","0","34","34","34","0","0","0","0","0","1","0","0","0","1","34","34","34","34","34","Wed Jun 28 16:44:10 2017","Forced-choice identification task with a practice and an experimental phase","yes","NAP-FC_GER_AA_ver-2.osexp","/Users/aviadalbert/Documents/Academisch/UoC/Dissertation/Experiment/OpenSesame/NAP-FC/NAP-FC_GER_AA/GER_AA_ver-2","yes","no","sans","no","20","no","black","no","Next","yes","768","legacy","24","9","0","/Users/aviadalbert/Documents/Academisch/UoC/Dissertation/Experiment/OpenSesame/NAP-FC/NAP-FC_GER_AA/GER_AA_ver-2/subject-4.csv","xpyriment","Jazzy James","3.1.6","yes","yes","5950408a6c613b0229e3e810","59504237594d9002288b1720","no","no","0","f","f","space","NA","return","return","f","1108","2308","14464","NA","34220","20087","1108","2","legacy","1024","1","44100","-16","experiment","lfal","23","Munich","1","0","1","German","English, French","4","even","Cologne","6075067","6060303","NA","6077376","6075063","NA","5838784","6074832","5838784","5838784","5965591","5999816","6149576","6148072","6150685","6029431","6020190","6060302","5860240","5950406","6058618","6019975","6075066","6020194","NA","6149576","6149576","NA","NA","6148068","NAP perception","19","28771","25","yes","1024"
"73.0769230769","yes","73.0769230769","1183.42307692","1183.42307692","white","no","xpyriment","I have read and understood the information shown above","legacy","legacy","0","uniform","0","0","0","undefined","undefined","0","j","1","0","NA","0","0","0","0","0","0","0","0","0","35","35","35","0","0","0","0","0","1","0","0","0","1","35","35","35","35","35","Wed Jun 28 16:44:10 2017","Forced-choice identification task with a practice and an experimental phase","yes","NAP-FC_GER_AA_ver-2.osexp","/Users/aviadalbert/Documents/Academisch/UoC/Dissertation/Experiment/OpenSesame/NAP-FC/NAP-FC_GER_AA/GER_AA_ver-2","yes","no","sans","no","20","no","black","no","Next","yes","768","legacy","25","9","0","/Users/aviadalbert/Documents/Academisch/UoC/Dissertation/Experiment/OpenSesame/NAP-FC/NAP-FC_GER_AA/GER_AA_ver-2/subject-4.csv","xpyriment","Jazzy James","3.1.6","yes","yes","5950408a6c613b0229e3e810","59504237594d9002288b1720","no","no","0","f","f","space","NA","return","return","f","1998","2308","14464","NA","34220","20087","1998","2","legacy","1024","1","44100","-16","experiment","elmal","23","Munich","1","0","1","German","English, French","4","even","Cologne","6075067","6060303","NA","6077376","6075063","NA","5838784","6074832","5838784","5838784","5965591","5999816","6152469","6150966","6154468","6029431","6020190","6060302","5860240","5950406","6058618","6019975","6075066","6020194","NA","6152469","6152469","NA","NA","6150962","NAP perception","19","30769","26","yes","1024"
"74.0740740741","yes","74.0740740741","1216.66666667","1216.66666667","white","no","xpyriment","I have read and understood the information shown above","legacy","legacy","0","uniform","1","0","0","undefined","undefined","1","j","1","0","NA","0","0","0","0","0","0","0","0","0","36","36","36","0","0","0","0","0","1","0","0","0","1","36","36","36","36","36","Wed Jun 28 16:44:10 2017","Forced-choice identification task with a practice and an experimental phase","yes","NAP-FC_GER_AA_ver-2.osexp","/Users/aviadalbert/Documents/Academisch/UoC/Dissertation/Experiment/OpenSesame/NAP-FC/NAP-FC_GER_AA/GER_AA_ver-2","yes","no","sans","no","20","no","black","no","Next","yes","768","legacy","26","9","0","/Users/aviadalbert/Documents/Academisch/UoC/Dissertation/Experiment/OpenSesame/NAP-FC/NAP-FC_GER_AA/GER_AA_ver-2/subject-4.csv","xpyriment","Jazzy James","3.1.6","yes","yes","5950408a6c613b0229e3e810","59504237594d9002288b1720","no","no","0","j","f","space","NA","return","return","j","2081","2308","14464","NA","34220","20087","2081","2","legacy","1024","1","44100","-16","experiment","sefal","23","Munich","1","0","1","German","English, French","4","even","Cologne","6075067","6060303","NA","6077376","6075063","NA","5838784","6074832","5838784","5838784","5965591","5999816","6156254","6154750","6158337","6029431","6020190","6060302","5860240","5950406","6058618","6019975","6075066","6020194","NA","6156253","6156254","NA","NA","6154746","NAP perception","20","32850","27","yes","1024"
"75","yes","75","1214.25","1214.25","white","no","xpyriment","I have read and understood the information shown above","legacy","legacy","0","uniform","1","0","0","undefined","undefined","1","f","1","0","NA","0","0","0","0","0","0","0","0","0","37","37","37","0","0","0","0","0","1","0","0","0","1","37","37","37","37","37","Wed Jun 28 16:44:10 2017","Forced-choice identification task with a practice and an experimental phase","yes","NAP-FC_GER_AA_ver-2.osexp","/Users/aviadalbert/Documents/Academisch/UoC/Dissertation/Experiment/OpenSesame/NAP-FC/NAP-FC_GER_AA/GER_AA_ver-2","yes","no","sans","no","20","no","black","no","Next","yes","768","legacy","27","9","0","/Users/aviadalbert/Documents/Academisch/UoC/Dissertation/Experiment/OpenSesame/NAP-FC/NAP-FC_GER_AA/GER_AA_ver-2/subject-4.csv","xpyriment","Jazzy James","3.1.6","yes","yes","5950408a6c613b0229e3e810","59504237594d9002288b1720","no","no","0","f","f","space","NA","return","return","f","1149","2308","14464","NA","34220","20087","1149","2","legacy","1024","1","44100","-16","experiment","nfal","23","Munich","1","0","1","German","English, French","4","even","Cologne","6075067","6060303","NA","6077376","6075063","NA","5838784","6074832","5838784","5838784","5965591","5999816","6160126","6158621","6161276","6029431","6020190","6060302","5860240","5950406","6058618","6019975","6075066","6020194","NA","6160126","6160126","NA","NA","6158617","NAP perception","21","33999","28","yes","1024"
"72.4137931034","yes","72.4137931034","1239.86206897","1239.86206897","white","no","xpyriment","I have read and understood the information shown above","legacy","legacy","0","uniform","0","0","0","undefined","undefined","0","f","1","0","NA","0","0","0","0","0","0","0","0","0","38","38","38","0","0","0","0","0","1","0","0","0","1","38","38","38","38","38","Wed Jun 28 16:44:10 2017","Forced-choice identification task with a practice and an experimental phase","yes","NAP-FC_GER_AA_ver-2.osexp","/Users/aviadalbert/Documents/Academisch/UoC/Dissertation/Experiment/OpenSesame/NAP-FC/NAP-FC_GER_AA/GER_AA_ver-2","yes","no","sans","no","20","no","black","no","Next","yes","768","legacy","28","9","0","/Users/aviadalbert/Documents/Academisch/UoC/Dissertation/Experiment/OpenSesame/NAP-FC/NAP-FC_GER_AA/GER_AA_ver-2/subject-4.csv","xpyriment","Jazzy James","3.1.6","yes","yes","5950408a6c613b0229e3e810","59504237594d9002288b1720","no","no","0","j","f","space","NA","return","return","j","1957","2308","14464","NA","34220","20087","1957","2","legacy","1024","1","44100","-16","experiment","jfal","23","Munich","1","0","1","German","English, French","4","even","Cologne","6075067","6060303","NA","6077376","6075063","NA","5838784","6074832","5838784","5838784","5965591","5999816","6163050","6161547","6165009","6029431","6020190","6060302","5860240","5950406","6058618","6019975","6075066","6020194","NA","6163050","6163050","NA","NA","6161542","NAP perception","21","35956","29","yes","1024"
"73.3333333333","yes","73.3333333333","1295.3","1295.3","white","no","xpyriment","I have read and understood the information shown above","legacy","legacy","0","uniform","1","0","0","undefined","undefined","1","j","1","0","NA","0","0","0","0","0","0","0","0","0","39","39","39","0","0","0","0","0","1","0","0","0","1","39","39","39","39","39","Wed Jun 28 16:44:10 2017","Forced-choice identification task with a practice and an experimental phase","yes","NAP-FC_GER_AA_ver-2.osexp","/Users/aviadalbert/Documents/Academisch/UoC/Dissertation/Experiment/OpenSesame/NAP-FC/NAP-FC_GER_AA/GER_AA_ver-2","yes","no","sans","no","20","no","black","no","Next","yes","768","legacy","29","9","0","/Users/aviadalbert/Documents/Academisch/UoC/Dissertation/Experiment/OpenSesame/NAP-FC/NAP-FC_GER_AA/GER_AA_ver-2/subject-4.csv","xpyriment","Jazzy James","3.1.6","yes","yes","5950408a6c613b0229e3e810","59504237594d9002288b1720","no","no","0","j","f","space","NA","return","return","j","2903","2308","14464","NA","34220","20087","2903","2","legacy","1024","1","44100","-16","experiment","wezal","23","Munich","1","0","1","German","English, French","4","even","Cologne","6075067","6060303","NA","6077376","6075063","NA","5838784","6074832","5838784","5838784","5965591","5999816","6166806","6165299","6169710","6029431","6020190","6060302","5860240","5950406","6058618","6019975","6075066","6020194","NA","6166806","6166806","NA","NA","6165295","NAP perception","22","38859","30","yes","1024"
"74.1935483871","yes","74.1935483871","1307.64516129","1307.64516129","white","no","xpyriment","I have read and understood the information shown above","legacy","legacy","0","uniform","1","0","0","undefined","undefined","1","j","1","0","NA","0","0","0","0","0","0","0","0","0","40","40","40","0","0","0","0","0","1","0","0","0","1","40","40","40","40","40","Wed Jun 28 16:44:10 2017","Forced-choice identification task with a practice and an experimental phase","yes","NAP-FC_GER_AA_ver-2.osexp","/Users/aviadalbert/Documents/Academisch/UoC/Dissertation/Experiment/OpenSesame/NAP-FC/NAP-FC_GER_AA/GER_AA_ver-2","yes","no","sans","no","20","no","black","no","Next","yes","768","legacy","30","9","0","/Users/aviadalbert/Documents/Academisch/UoC/Dissertation/Experiment/OpenSesame/NAP-FC/NAP-FC_GER_AA/GER_AA_ver-2/subject-4.csv","xpyriment","Jazzy James","3.1.6","yes","yes","5950408a6c613b0229e3e810","59504237594d9002288b1720","no","no","0","j","f","space","NA","return","return","j","1678","2308","14464","NA","34220","20087","1678","2","legacy","1024","1","44100","-16","experiment","enval","23","Munich","1","0","1","German","English, French","4","even","Cologne","6075067","6060303","NA","6077376","6075063","NA","5838784","6074832","5838784","5838784","5965591","5999816","6171496","6169991","6173175","6029431","6020190","6060302","5860240","5950406","6058618","6019975","6075066","6020194","NA","6171496","6171496","NA","NA","6169987","NAP perception","23","40537","31","yes","1024"
"75","yes","75","1295.875","1295.875","white","no","xpyriment","I have read and understood the information shown above","legacy","legacy","0","uniform","1","0","0","undefined","undefined","1","f","1","0","NA","0","0","0","0","0","0","0","0","0","41","41","41","0","0","0","0","0","1","0","0","0","1","41","41","41","41","41","Wed Jun 28 16:44:10 2017","Forced-choice identification task with a practice and an experimental phase","yes","NAP-FC_GER_AA_ver-2.osexp","/Users/aviadalbert/Documents/Academisch/UoC/Dissertation/Experiment/OpenSesame/NAP-FC/NAP-FC_GER_AA/GER_AA_ver-2","yes","no","sans","no","20","no","black","no","Next","yes","768","legacy","31","9","0","/Users/aviadalbert/Documents/Academisch/UoC/Dissertation/Experiment/OpenSesame/NAP-FC/NAP-FC_GER_AA/GER_AA_ver-2/subject-4.csv","xpyriment","Jazzy James","3.1.6","yes","yes","5950408a6c613b0229e3e810","59504237594d9002288b1720","no","no","0","f","f","space","NA","return","return","f","931","2308","14464","NA","34220","20087","931","2","legacy","1024","1","44100","-16","experiment","ʃmal","23","Munich","1","0","1","German","English, French","4","even","Cologne","6075067","6060303","NA","6077376","6075063","NA","5838784","6074832","5838784","5838784","5965591","5999816","6174960","6173455","6175892","6029431","6020190","6060302","5860240","5950406","6058618","6019975","6075066","6020194","NA","6174959","6174960","NA","NA","6173451","NAP perception","24","41468","32","yes","1024"
"75.7575757576","yes","75.7575757576","1324.78787879","1324.78787879","white","no","xpyriment","I have read and understood the information shown above","legacy","legacy","0","uniform","1","0","0","undefined","undefined","1","j","1","0","NA","0","0","0","0","0","0","0","0","0","42","42","42","0","0","0","0","0","1","0","0","0","1","42","42","42","42","42","Wed Jun 28 16:44:10 2017","Forced-choice identification task with a practice and an experimental phase","yes","NAP-FC_GER_AA_ver-2.osexp","/Users/aviadalbert/Documents/Academisch/UoC/Dissertation/Experiment/OpenSesame/NAP-FC/NAP-FC_GER_AA/GER_AA_ver-2","yes","no","sans","no","20","no","black","no","Next","yes","768","legacy","32","9","0","/Users/aviadalbert/Documents/Academisch/UoC/Dissertation/Experiment/OpenSesame/NAP-FC/NAP-FC_GER_AA/GER_AA_ver-2/subject-4.csv","xpyriment","Jazzy James","3.1.6","yes","yes","5950408a6c613b0229e3e810","59504237594d9002288b1720","no","no","0","j","f","space","NA","return","return","j","2250","2308","14464","NA","34220","20087","2250","2","legacy","1024","1","44100","-16","experiment","welal","23","Munich","1","0","1","German","English, French","4","even","Cologne","6075067","6060303","NA","6077376","6075063","NA","5838784","6074832","5838784","5838784","5965591","5999816","6177672","6176167","6179924","6029431","6020190","6060302","5860240","5950406","6058618","6019975","6075066","6020194","NA","6177672","6177672","NA","NA","6176163","NAP perception","25","43718","33","yes","1024"
"76.4705882353","yes","76.4705882353","1321.05882353","1321.05882353","white","no","xpyriment","I have read and understood the information shown above","legacy","legacy","0","uniform","1","0","0","undefined","undefined","1","j","1","0","NA","0","0","0","0","0","0","0","0","0","43","43","43","0","0","0","0","0","1","0","0","0","1","43","43","43","43","43","Wed Jun 28 16:44:10 2017","Forced-choice identification task with a practice and an experimental phase","yes","NAP-FC_GER_AA_ver-2.osexp","/Users/aviadalbert/Documents/Academisch/UoC/Dissertation/Experiment/OpenSesame/NAP-FC/NAP-FC_GER_AA/GER_AA_ver-2","yes","no","sans","no","20","no","black","no","Next","yes","768","legacy","33","9","0","/Users/aviadalbert/Documents/Academisch/UoC/Dissertation/Experiment/OpenSesame/NAP-FC/NAP-FC_GER_AA/GER_AA_ver-2/subject-4.csv","xpyriment","Jazzy James","3.1.6","yes","yes","5950408a6c613b0229e3e810","59504237594d9002288b1720","no","no","0","j","f","space","NA","return","return","j","1198","2308","14464","NA","34220","20087","1198","2","legacy","1024","1","44100","-16","experiment","melal","23","Munich","1","0","1","German","English, French","4","even","Cologne","6075067","6060303","NA","6077376","6075063","NA","5838784","6074832","5838784","5838784","5965591","5999816","6181701","6180198","6182900","6029431","6020190","6060302","5860240","5950406","6058618","6019975","6075066","6020194","NA","6181701","6181701","NA","NA","6180194","NAP perception","26","44916","34","yes","1024"
"77.1428571429","yes","77.1428571429","1352.6","1352.6","white","no","xpyriment","I have read and understood the information shown above","legacy","legacy","0","uniform","1","0","0","undefined","undefined","1","j","1","0","NA","0","0","0","0","0","0","0","0","0","44","44","44","0","0","0","0","0","1","0","0","0","1","44","44","44","44","44","Wed Jun 28 16:44:10 2017","Forced-choice identification task with a practice and an experimental phase","yes","NAP-FC_GER_AA_ver-2.osexp","/Users/aviadalbert/Documents/Academisch/UoC/Dissertation/Experiment/OpenSesame/NAP-FC/NAP-FC_GER_AA/GER_AA_ver-2","yes","no","sans","no","20","no","black","no","Next","yes","768","legacy","34","9","0","/Users/aviadalbert/Documents/Academisch/UoC/Dissertation/Experiment/OpenSesame/NAP-FC/NAP-FC_GER_AA/GER_AA_ver-2/subject-4.csv","xpyriment","Jazzy James","3.1.6","yes","yes","5950408a6c613b0229e3e810","59504237594d9002288b1720","no","no","0","j","f","space","NA","return","return","j","2425","2308","14464","NA","34220","20087","2425","2","legacy","1024","1","44100","-16","experiment","wetal","23","Munich","1","0","1","German","English, French","4","even","Cologne","6075067","6060303","NA","6077376","6075063","NA","5838784","6074832","5838784","5838784","5965591","5999816","6184673","6183166","6187099","6029431","6020190","6060302","5860240","5950406","6058618","6019975","6075066","6020194","NA","6184673","6184673","NA","NA","6183162","NAP perception","27","47341","35","yes","1024"
"77.7777777778","yes","77.7777777778","1369.75","1369.75","white","no","xpyriment","I have read and understood the information shown above","legacy","legacy","0","uniform","1","0","0","undefined","undefined","1","f","1","0","NA","0","0","0","0","0","0","0","0","0","45","45","45","0","0","0","0","0","1","0","0","0","1","45","45","45","45","45","Wed Jun 28 16:44:10 2017","Forced-choice identification task with a practice and an experimental phase","yes","NAP-FC_GER_AA_ver-2.osexp","/Users/aviadalbert/Documents/Academisch/UoC/Dissertation/Experiment/OpenSesame/NAP-FC/NAP-FC_GER_AA/GER_AA_ver-2","yes","no","sans","no","20","no","black","no","Next","yes","768","legacy","35","9","0","/Users/aviadalbert/Documents/Academisch/UoC/Dissertation/Experiment/OpenSesame/NAP-FC/NAP-FC_GER_AA/GER_AA_ver-2/subject-4.csv","xpyriment","Jazzy James","3.1.6","yes","yes","5950408a6c613b0229e3e810","59504237594d9002288b1720","no","no","0","f","f","space","NA","return","return","f","1970","2308","14464","NA","34220","20087","1970","2","legacy","1024","1","44100","-16","experiment","mzal","23","Munich","1","0","1","German","English, French","4","even","Cologne","6075067","6060303","NA","6077376","6075063","NA","5838784","6074832","5838784","5838784","5965591","5999816","6188878","6187374","6190850","6029431","6020190","6060302","5860240","5950406","6058618","6019975","6075066","6020194","NA","6188878","6188878","NA","NA","6187369","NAP perception","28","49311","36","yes","1024"
"78.3783783784","yes","78.3783783784","1371.2972973","1371.2972973","white","no","xpyriment","I have read and understood the information shown above","legacy","legacy","0","uniform","1","0","0","undefined","undefined","1","f","1","0","NA","0","0","0","0","0","0","0","0","0","46","46","46","0","0","0","0","0","1","0","0","0","1","46","46","46","46","46","Wed Jun 28 16:44:10 2017","Forced-choice identification task with a practice and an experimental phase","yes","NAP-FC_GER_AA_ver-2.osexp","/Users/aviadalbert/Documents/Academisch/UoC/Dissertation/Experiment/OpenSesame/NAP-FC/NAP-FC_GER_AA/GER_AA_ver-2","yes","no","sans","no","20","no","black","no","Next","yes","768","legacy","36","9","0","/Users/aviadalbert/Documents/Academisch/UoC/Dissertation/Experiment/OpenSesame/NAP-FC/NAP-FC_GER_AA/GER_AA_ver-2/subject-4.csv","xpyriment","Jazzy James","3.1.6","yes","yes","5950408a6c613b0229e3e810","59504237594d9002288b1720","no","no","0","f","f","space","NA","return","return","f","1427","2308","14464","NA","34220","20087","1427","2","legacy","1024","1","44100","-16","experiment","smal","23","Munich","1","0","1","German","English, French","4","even","Cologne","6075067","6060303","NA","6077376","6075063","NA","5838784","6074832","5838784","5838784","5965591","5999816","6192618","6191115","6194047","6029431","6020190","6060302","5860240","5950406","6058618","6019975","6075066","6020194","NA","6192618","6192618","NA","NA","6191110","NAP perception","29","50738","37","yes","1024"
"78.9473684211","yes","78.9473684211","1366.13157895","1366.13157895","white","no","xpyriment","I have read and understood the information shown above","legacy","legacy","0","uniform","1","0","0","undefined","undefined","1","f","1","0","NA","0","0","0","0","0","0","0","0","0","47","47","47","0","0","0","0","0","1","0","0","0","1","47","47","47","47","47","Wed Jun 28 16:44:10 2017","Forced-choice identification task with a practice and an experimental phase","yes","NAP-FC_GER_AA_ver-2.osexp","/Users/aviadalbert/Documents/Academisch/UoC/Dissertation/Experiment/OpenSesame/NAP-FC/NAP-FC_GER_AA/GER_AA_ver-2","yes","no","sans","no","20","no","black","no","Next","yes","768","legacy","37","9","0","/Users/aviadalbert/Documents/Academisch/UoC/Dissertation/Experiment/OpenSesame/NAP-FC/NAP-FC_GER_AA/GER_AA_ver-2/subject-4.csv","xpyriment","Jazzy James","3.1.6","yes","yes","5950408a6c613b0229e3e810","59504237594d9002288b1720","no","no","0","f","f","space","NA","return","return","f","1175","2308","14464","NA","34220","20087","1175","2","legacy","1024","1","44100","-16","experiment","ʃpal","23","Munich","1","0","1","German","English, French","4","even","Cologne","6075067","6060303","NA","6077376","6075063","NA","5838784","6074832","5838784","5838784","5965591","5999816","6195849","6194341","6197026","6029431","6020190","6060302","5860240","5950406","6058618","6019975","6075066","6020194","NA","6195849","6195849","NA","NA","6194337","NAP perception","30","51913","38","yes","1024"
"79.4871794872","yes","79.4871794872","1360.07692308","1360.07692308","white","no","xpyriment","I have read and understood the information shown above","legacy","legacy","0","uniform","1","0","0","undefined","undefined","1","j","1","0","NA","0","0","0","0","0","0","0","0","0","48","48","48","0","0","0","0","0","1","0","0","0","1","48","48","48","48","48","Wed Jun 28 16:44:10 2017","Forced-choice identification task with a practice and an experimental phase","yes","NAP-FC_GER_AA_ver-2.osexp","/Users/aviadalbert/Documents/Academisch/UoC/Dissertation/Experiment/OpenSesame/NAP-FC/NAP-FC_GER_AA/GER_AA_ver-2","yes","no","sans","no","20","no","black","no","Next","yes","768","legacy","38","9","0","/Users/aviadalbert/Documents/Academisch/UoC/Dissertation/Experiment/OpenSesame/NAP-FC/NAP-FC_GER_AA/GER_AA_ver-2/subject-4.csv","xpyriment","Jazzy James","3.1.6","yes","yes","5950408a6c613b0229e3e810","59504237594d9002288b1720","no","no","0","j","f","space","NA","return","return","j","1130","2308","14464","NA","34220","20087","1130","2","legacy","1024","1","44100","-16","experiment","venal","23","Munich","1","0","1","German","English, French","4","even","Cologne","6075067","6060303","NA","6077376","6075063","NA","5838784","6074832","5838784","5838784","5965591","5999816","6198809","6197305","6199941","6029431","6020190","6060302","5860240","5950406","6058618","6019975","6075066","6020194","NA","6198808","6198809","NA","NA","6197300","NAP perception","31","53043","39","yes","1024"
"80","yes","80","1366.05","1366.05","white","no","xpyriment","I have read and understood the information shown above","legacy","legacy","0","uniform","1","0","0","undefined","undefined","1","f","1","0","NA","0","0","0","0","0","0","0","0","0","49","49","49","0","0","0","0","0","1","0","0","0","1","49","49","49","49","49","Wed Jun 28 16:44:10 2017","Forced-choice identification task with a practice and an experimental phase","yes","NAP-FC_GER_AA_ver-2.osexp","/Users/aviadalbert/Documents/Academisch/UoC/Dissertation/Experiment/OpenSesame/NAP-FC/NAP-FC_GER_AA/GER_AA_ver-2","yes","no","sans","no","20","no","black","no","Next","yes","768","legacy","39","9","0","/Users/aviadalbert/Documents/Academisch/UoC/Dissertation/Experiment/OpenSesame/NAP-FC/NAP-FC_GER_AA/GER_AA_ver-2/subject-4.csv","xpyriment","Jazzy James","3.1.6","yes","yes","5950408a6c613b0229e3e810","59504237594d9002288b1720","no","no","0","f","f","space","NA","return","return","f","1599","2308","14464","NA","34220","20087","1599","2","legacy","1024","1","44100","-16","experiment","nval","23","Munich","1","0","1","German","English, French","4","even","Cologne","6075067","6060303","NA","6077376","6075063","NA","5838784","6074832","5838784","5838784","5965591","5999816","6201730","6200222","6203331","6029431","6020190","6060302","5860240","5950406","6058618","6019975","6075066","6020194","NA","6201730","6201730","NA","NA","6200218","NAP perception","32","54642","40","yes","1024"
"80.487804878","yes","80.487804878","1377.7804878","1377.7804878","white","no","xpyriment","I have read and understood the information shown above","legacy","legacy","0","uniform","1","0","0","undefined","undefined","1","j","1","0","NA","0","0","0","0","0","0","0","0","0","50","50","50","0","0","0","0","0","1","0","0","0","1","50","50","50","50","50","Wed Jun 28 16:44:10 2017","Forced-choice identification task with a practice and an experimental phase","yes","NAP-FC_GER_AA_ver-2.osexp","/Users/aviadalbert/Documents/Academisch/UoC/Dissertation/Experiment/OpenSesame/NAP-FC/NAP-FC_GER_AA/GER_AA_ver-2","yes","no","sans","no","20","no","black","no","Next","yes","768","legacy","40","9","0","/Users/aviadalbert/Documents/Academisch/UoC/Dissertation/Experiment/OpenSesame/NAP-FC/NAP-FC_GER_AA/GER_AA_ver-2/subject-4.csv","xpyriment","Jazzy James","3.1.6","yes","yes","5950408a6c613b0229e3e810","59504237594d9002288b1720","no","no","0","j","f","space","NA","return","return","j","1847","2308","14464","NA","34220","20087","1847","2","legacy","1024","1","44100","-16","experiment","wenal","23","Munich","1","0","1","German","English, French","4","even","Cologne","6075067","6060303","NA","6077376","6075063","NA","5838784","6074832","5838784","5838784","5965591","5999816","6205119","6203612","6206967","6029431","6020190","6060302","5860240","5950406","6058618","6019975","6075066","6020194","NA","6205119","6205119","NA","NA","6203608","NAP perception","33","56489","41","yes","1024"
"80.9523809524","yes","80.9523809524","1373.38095238","1373.38095238","white","no","xpyriment","I have read and understood the information shown above","legacy","legacy","0","uniform","1","0","0","undefined","undefined","1","j","1","0","NA","0","0","0","0","0","0","0","0","0","51","51","51","0","0","0","0","0","1","0","0","0","1","51","51","51","51","51","Wed Jun 28 16:44:10 2017","Forced-choice identification task with a practice and an experimental phase","yes","NAP-FC_GER_AA_ver-2.osexp","/Users/aviadalbert/Documents/Academisch/UoC/Dissertation/Experiment/OpenSesame/NAP-FC/NAP-FC_GER_AA/GER_AA_ver-2","yes","no","sans","no","20","no","black","no","Next","yes","768","legacy","41","9","0","/Users/aviadalbert/Documents/Academisch/UoC/Dissertation/Experiment/OpenSesame/NAP-FC/NAP-FC_GER_AA/GER_AA_ver-2/subject-4.csv","xpyriment","Jazzy James","3.1.6","yes","yes","5950408a6c613b0229e3e810","59504237594d9002288b1720","no","no","0","j","f","space","NA","return","return","j","1193","2308","14464","NA","34220","20087","1193","2","legacy","1024","1","44100","-16","experiment","metal","23","Munich","1","0","1","German","English, French","4","even","Cologne","6075067","6060303","NA","6077376","6075063","NA","5838784","6074832","5838784","5838784","5965591","5999816","6208754","6207247","6209949","6029431","6020190","6060302","5860240","5950406","6058618","6019975","6075066","6020194","NA","6208753","6208754","NA","NA","6207243","NAP perception","34","57682","42","yes","1024"
"81.3953488372","yes","81.3953488372","1366.37209302","1366.37209302","white","no","xpyriment","I have read and understood the information shown above","legacy","legacy","0","uniform","1","0","0","undefined","undefined","1","j","1","0","NA","0","0","0","0","0","0","0","0","0","52","52","52","0","0","0","0","0","1","0","0","0","1","52","52","52","52","52","Wed Jun 28 16:44:10 2017","Forced-choice identification task with a practice and an experimental phase","yes","NAP-FC_GER_AA_ver-2.osexp","/Users/aviadalbert/Documents/Academisch/UoC/Dissertation/Experiment/OpenSesame/NAP-FC/NAP-FC_GER_AA/GER_AA_ver-2","yes","no","sans","no","20","no","black","no","Next","yes","768","legacy","42","9","0","/Users/aviadalbert/Documents/Academisch/UoC/Dissertation/Experiment/OpenSesame/NAP-FC/NAP-FC_GER_AA/GER_AA_ver-2/subject-4.csv","xpyriment","Jazzy James","3.1.6","yes","yes","5950408a6c613b0229e3e810","59504237594d9002288b1720","no","no","0","j","f","space","NA","return","return","j","1072","2308","14464","NA","34220","20087","1072","2","legacy","1024","1","44100","-16","experiment","emnal","23","Munich","1","0","1","German","English, French","4","even","Cologne","6075067","6060303","NA","6077376","6075063","NA","5838784","6074832","5838784","5838784","5965591","5999816","6211744","6210239","6212817","6029431","6020190","6060302","5860240","5950406","6058618","6019975","6075066","6020194","NA","6211744","6211744","NA","NA","6210235","NAP perception","35","58754","43","yes","1024"
"81.8181818182","yes","81.8181818182","1403.04545455","1403.04545455","white","no","xpyriment","I have read and understood the information shown above","legacy","legacy","0","uniform","1","0","0","undefined","undefined","1","f","1","0","NA","0","0","0","0","0","0","0","0","0","53","53","53","0","0","0","0","0","1","0","0","0","1","53","53","53","53","53","Wed Jun 28 16:44:10 2017","Forced-choice identification task with a practice and an experimental phase","yes","NAP-FC_GER_AA_ver-2.osexp","/Users/aviadalbert/Documents/Academisch/UoC/Dissertation/Experiment/OpenSesame/NAP-FC/NAP-FC_GER_AA/GER_AA_ver-2","yes","no","sans","no","20","no","black","no","Next","yes","768","legacy","43","9","0","/Users/aviadalbert/Documents/Academisch/UoC/Dissertation/Experiment/OpenSesame/NAP-FC/NAP-FC_GER_AA/GER_AA_ver-2/subject-4.csv","xpyriment","Jazzy James","3.1.6","yes","yes","5950408a6c613b0229e3e810","59504237594d9002288b1720","no","no","0","f","f","space","NA","return","return","f","2980","2308","14464","NA","34220","20087","2980","2","legacy","1024","1","44100","-16","experiment","lmal","23","Munich","1","0","1","German","English, French","4","even","Cologne","6075067","6060303","NA","6077376","6075063","NA","5838784","6074832","5838784","5838784","5965591","5999816","6214604","6213097","6217585","6029431","6020190","6060302","5860240","5950406","6058618","6019975","6075066","6020194","NA","6214604","6214604","NA","NA","6213093","NAP perception","36","61734","44","yes","1024"
"82.2222222222","yes","82.2222222222","1408.15555556","1408.15555556","white","no","xpyriment","I have read and understood the information shown above","legacy","legacy","0","uniform","1","0","0","undefined","undefined","1","j","1","0","NA","0","0","0","0","0","0","0","0","0","54","54","54","0","0","0","0","0","1","0","0","0","1","54","54","54","54","54","Wed Jun 28 16:44:10 2017","Forced-choice identification task with a practice and an experimental phase","yes","NAP-FC_GER_AA_ver-2.osexp","/Users/aviadalbert/Documents/Academisch/UoC/Dissertation/Experiment/OpenSesame/NAP-FC/NAP-FC_GER_AA/GER_AA_ver-2","yes","no","sans","no","20","no","black","no","Next","yes","768","legacy","44","9","0","/Users/aviadalbert/Documents/Academisch/UoC/Dissertation/Experiment/OpenSesame/NAP-FC/NAP-FC_GER_AA/GER_AA_ver-2/subject-4.csv","xpyriment","Jazzy James","3.1.6","yes","yes","5950408a6c613b0229e3e810","59504237594d9002288b1720","no","no","0","j","f","space","NA","return","return","j","1633","2308","14464","NA","34220","20087","1633","2","legacy","1024","1","44100","-16","experiment","espal","23","Munich","1","0","1","German","English, French","4","even","Cologne","6075067","6060303","NA","6077376","6075063","NA","5838784","6074832","5838784","5838784","5965591","5999816","6219379","6217876","6221014","6029431","6020190","6060302","5860240","5950406","6058618","6019975","6075066","6020194","NA","6219379","6219379","NA","NA","6217872","NAP perception","37","63367","45","yes","1024"
"82.6086956522","yes","82.6086956522","1417.5","1417.5","white","no","xpyriment","I have read and understood the information shown above","legacy","legacy","0","uniform","1","0","0","undefined","undefined","1","f","1","0","NA","0","0","0","0","0","0","0","0","0","55","55","55","0","0","0","0","0","1","0","0","0","1","55","55","55","55","55","Wed Jun 28 16:44:10 2017","Forced-choice identification task with a practice and an experimental phase","yes","NAP-FC_GER_AA_ver-2.osexp","/Users/aviadalbert/Documents/Academisch/UoC/Dissertation/Experiment/OpenSesame/NAP-FC/NAP-FC_GER_AA/GER_AA_ver-2","yes","no","sans","no","20","no","black","no","Next","yes","768","legacy","45","9","0","/Users/aviadalbert/Documents/Academisch/UoC/Dissertation/Experiment/OpenSesame/NAP-FC/NAP-FC_GER_AA/GER_AA_ver-2/subject-4.csv","xpyriment","Jazzy James","3.1.6","yes","yes","5950408a6c613b0229e3e810","59504237594d9002288b1720","no","no","0","f","f","space","NA","return","return","f","1838","2308","14464","NA","34220","20087","1838","2","legacy","1024","1","44100","-16","experiment","fnal","23","Munich","1","0","1","German","English, French","4","even","Cologne","6075067","6060303","NA","6077376","6075063","NA","5838784","6074832","5838784","5838784","5965591","5999816","6222795","6221291","6224635","6029431","6020190","6060302","5860240","5950406","6058618","6019975","6075066","6020194","NA","6222795","6222795","NA","NA","6221287","NAP perception","38","65205","46","yes","1024"
"82.9787234043","yes","82.9787234043","1418.57446809","1418.57446809","white","no","xpyriment","I have read and understood the information shown above","legacy","legacy","0","uniform","1","0","0","undefined","undefined","1","j","1","0","NA","0","0","0","0","0","0","0","0","0","56","56","56","0","0","0","0","0","1","0","0","0","1","56","56","56","56","56","Wed Jun 28 16:44:10 2017","Forced-choice identification task with a practice and an experimental phase","yes","NAP-FC_GER_AA_ver-2.osexp","/Users/aviadalbert/Documents/Academisch/UoC/Dissertation/Experiment/OpenSesame/NAP-FC/NAP-FC_GER_AA/GER_AA_ver-2","yes","no","sans","no","20","no","black","no","Next","yes","768","legacy","46","9","0","/Users/aviadalbert/Documents/Academisch/UoC/Dissertation/Experiment/OpenSesame/NAP-FC/NAP-FC_GER_AA/GER_AA_ver-2/subject-4.csv","xpyriment","Jazzy James","3.1.6","yes","yes","5950408a6c613b0229e3e810","59504237594d9002288b1720","no","no","0","j","f","space","NA","return","return","j","1468","2308","14464","NA","34220","20087","1468","2","legacy","1024","1","44100","-16","experiment","ʃemal","23","Munich","1","0","1","German","English, French","4","even","Cologne","6075067","6060303","NA","6077376","6075063","NA","5838784","6074832","5838784","5838784","5965591","5999816","6226417","6224913","6227887","6029431","6020190","6060302","5860240","5950406","6058618","6019975","6075066","6020194","NA","6226417","6226417","NA","NA","6224909","NAP perception","39","66673","47","yes","1024"
"83.3333333333","yes","83.3333333333","1428.9375","1428.9375","white","no","xpyriment","I have read and understood the information shown above","legacy","legacy","0","uniform","1","0","0","undefined","undefined","1","f","1","0","NA","0","0","0","0","0","0","0","0","0","57","57","57","0","0","0","0","0","1","0","0","0","1","57","57","57","57","57","Wed Jun 28 16:44:10 2017","Forced-choice identification task with a practice and an experimental phase","yes","NAP-FC_GER_AA_ver-2.osexp","/Users/aviadalbert/Documents/Academisch/UoC/Dissertation/Experiment/OpenSesame/NAP-FC/NAP-FC_GER_AA/GER_AA_ver-2","yes","no","sans","no","20","no","black","no","Next","yes","768","legacy","47","9","0","/Users/aviadalbert/Documents/Academisch/UoC/Dissertation/Experiment/OpenSesame/NAP-FC/NAP-FC_GER_AA/GER_AA_ver-2/subject-4.csv","xpyriment","Jazzy James","3.1.6","yes","yes","5950408a6c613b0229e3e810","59504237594d9002288b1720","no","no","0","f","f","space","NA","return","return","f","1916","2308","14464","NA","34220","20087","1916","2","legacy","1024","1","44100","-16","experiment","npal","23","Munich","1","0","1","German","English, French","4","even","Cologne","6075067","6060303","NA","6077376","6075063","NA","5838784","6074832","5838784","5838784","5965591","5999816","6229657","6228154","6231574","6029431","6020190","6060302","5860240","5950406","6058618","6019975","6075066","6020194","NA","6229657","6229657","NA","NA","6228150","NAP perception","40","68589","48","yes","1024"
"83.6734693878","yes","83.6734693878","1422","1422","white","no","xpyriment","I have read and understood the information shown above","legacy","legacy","0","uniform","1","0","0","undefined","undefined","1","f","1","0","NA","0","0","0","0","0","0","0","0","0","58","58","58","0","0","0","0","0","1","0","0","0","1","58","58","58","58","58","Wed Jun 28 16:44:10 2017","Forced-choice identification task with a practice and an experimental phase","yes","NAP-FC_GER_AA_ver-2.osexp","/Users/aviadalbert/Documents/Academisch/UoC/Dissertation/Experiment/OpenSesame/NAP-FC/NAP-FC_GER_AA/GER_AA_ver-2","yes","no","sans","no","20","no","black","no","Next","yes","768","legacy","48","9","0","/Users/aviadalbert/Documents/Academisch/UoC/Dissertation/Experiment/OpenSesame/NAP-FC/NAP-FC_GER_AA/GER_AA_ver-2/subject-4.csv","xpyriment","Jazzy James","3.1.6","yes","yes","5950408a6c613b0229e3e810","59504237594d9002288b1720","no","no","0","f","f","space","NA","return","return","f","1089","2308","14464","NA","34220","20087","1089","2","legacy","1024","1","44100","-16","experiment","zmal","23","Munich","1","0","1","German","English, French","4","even","Cologne","6075067","6060303","NA","6077376","6075063","NA","5838784","6074832","5838784","5838784","5965591","5999816","6233362","6231859","6234452","6029431","6020190","6060302","5860240","5950406","6058618","6019975","6075066","6020194","NA","6233362","6233362","NA","NA","6231854","NAP perception","41","69678","49","yes","1024"
"84","yes","84","1437.12","1437.12","white","no","xpyriment","I have read and understood the information shown above","legacy","legacy","0","uniform","1","0","0","undefined","undefined","1","j","1","0","NA","0","0","0","0","0","0","0","0","0","59","59","59","0","0","0","0","0","1","0","0","0","1","59","59","59","59","59","Wed Jun 28 16:44:10 2017","Forced-choice identification task with a practice and an experimental phase","yes","NAP-FC_GER_AA_ver-2.osexp","/Users/aviadalbert/Documents/Academisch/UoC/Dissertation/Experiment/OpenSesame/NAP-FC/NAP-FC_GER_AA/GER_AA_ver-2","yes","no","sans","no","20","no","black","no","Next","yes","768","legacy","49","9","0","/Users/aviadalbert/Documents/Academisch/UoC/Dissertation/Experiment/OpenSesame/NAP-FC/NAP-FC_GER_AA/GER_AA_ver-2/subject-4.csv","xpyriment","Jazzy James","3.1.6","yes","yes","5950408a6c613b0229e3e810","59504237594d9002288b1720","no","no","0","j","f","space","NA","return","return","j","2178","2308","14464","NA","34220","20087","2178","2","legacy","1024","1","44100","-16","experiment","jemal","23","Munich","1","0","1","German","English, French","4","even","Cologne","6075067","6060303","NA","6077376","6075063","NA","5838784","6074832","5838784","5838784","5965591","5999816","6236224","6234719","6238403","6029431","6020190","6060302","5860240","5950406","6058618","6019975","6075066","6020194","NA","6236223","6236223","NA","NA","6234715","NAP perception","42","71856","50","yes","1024"
"84.3137254902","yes","84.3137254902","1434.56862745","1434.56862745","white","no","xpyriment","I have read and understood the information shown above","legacy","legacy","0","uniform","1","0","0","undefined","undefined","1","f","1","0","NA","0","0","0","0","0","0","0","0","0","60","60","60","0","0","0","0","0","1","0","0","0","1","60","60","60","60","60","Wed Jun 28 16:44:10 2017","Forced-choice identification task with a practice and an experimental phase","yes","NAP-FC_GER_AA_ver-2.osexp","/Users/aviadalbert/Documents/Academisch/UoC/Dissertation/Experiment/OpenSesame/NAP-FC/NAP-FC_GER_AA/GER_AA_ver-2","yes","no","sans","no","20","no","black","no","Next","yes","768","legacy","50","9","0","/Users/aviadalbert/Documents/Academisch/UoC/Dissertation/Experiment/OpenSesame/NAP-FC/NAP-FC_GER_AA/GER_AA_ver-2/subject-4.csv","xpyriment","Jazzy James","3.1.6","yes","yes","5950408a6c613b0229e3e810","59504237594d9002288b1720","no","no","0","f","f","space","NA","return","return","f","1307","2308","14464","NA","34220","20087","1307","2","legacy","1024","1","44100","-16","experiment","spal","23","Munich","1","0","1","German","English, French","4","even","Cologne","6075067","6060303","NA","6077376","6075063","NA","5838784","6074832","5838784","5838784","5965591","5999816","6240194","6238690","6241503","6029431","6020190","6060302","5860240","5950406","6058618","6019975","6075066","6020194","NA","6240194","6240194","NA","NA","6238686","NAP perception","43","73163","51","yes","1024"
"84.6153846154","yes","84.6153846154","1448.51923077","1448.51923077","white","no","xpyriment","I have read and understood the information shown above","legacy","legacy","0","uniform","1","0","0","undefined","undefined","1","j","1","0","NA","0","0","0","0","0","0","0","0","0","61","61","61","0","0","0","0","0","1","0","0","0","1","61","61","61","61","61","Wed Jun 28 16:44:10 2017","Forced-choice identification task with a practice and an experimental phase","yes","NAP-FC_GER_AA_ver-2.osexp","/Users/aviadalbert/Documents/Academisch/UoC/Dissertation/Experiment/OpenSesame/NAP-FC/NAP-FC_GER_AA/GER_AA_ver-2","yes","no","sans","no","20","no","black","no","Next","yes","768","legacy","51","9","0","/Users/aviadalbert/Documents/Academisch/UoC/Dissertation/Experiment/OpenSesame/NAP-FC/NAP-FC_GER_AA/GER_AA_ver-2/subject-4.csv","xpyriment","Jazzy James","3.1.6","yes","yes","5950408a6c613b0229e3e810","59504237594d9002288b1720","no","no","0","j","f","space","NA","return","return","j","2160","2308","14464","NA","34220","20087","2160","2","legacy","1024","1","44100","-16","experiment","jepal","23","Munich","1","0","1","German","English, French","4","even","Cologne","6075067","6060303","NA","6077376","6075063","NA","5838784","6074832","5838784","5838784","5965591","5999816","6243300","6241797","6245461","6029431","6020190","6060302","5860240","5950406","6058618","6019975","6075066","6020194","NA","6243300","6243300","NA","NA","6241793","NAP perception","44","75323","52","yes","1024"
"84.9056603774","yes","84.9056603774","1443.30188679","1443.30188679","white","no","xpyriment","I have read and understood the information shown above","legacy","legacy","0","uniform","1","0","0","undefined","undefined","1","j","1","0","NA","0","0","0","0","0","0","0","0","0","62","62","62","0","0","0","0","0","1","0","0","0","1","62","62","62","62","62","Wed Jun 28 16:44:10 2017","Forced-choice identification task with a practice and an experimental phase","yes","NAP-FC_GER_AA_ver-2.osexp","/Users/aviadalbert/Documents/Academisch/UoC/Dissertation/Experiment/OpenSesame/NAP-FC/NAP-FC_GER_AA/GER_AA_ver-2","yes","no","sans","no","20","no","black","no","Next","yes","768","legacy","52","9","0","/Users/aviadalbert/Documents/Academisch/UoC/Dissertation/Experiment/OpenSesame/NAP-FC/NAP-FC_GER_AA/GER_AA_ver-2/subject-4.csv","xpyriment","Jazzy James","3.1.6","yes","yes","5950408a6c613b0229e3e810","59504237594d9002288b1720","no","no","0","j","f","space","NA","return","return","j","1172","2308","14464","NA","34220","20087","1172","2","legacy","1024","1","44100","-16","experiment","fetal","23","Munich","1","0","1","German","English, French","4","even","Cologne","6075067","6060303","NA","6077376","6075063","NA","5838784","6074832","5838784","5838784","5965591","5999816","6247242","6245735","6248416","6029431","6020190","6060302","5860240","5950406","6058618","6019975","6075066","6020194","NA","6247241","6247242","NA","NA","6245731","NAP perception","45","76495","53","yes","1024"
"85.1851851852","yes","85.1851851852","1435.03703704","1435.03703704","white","no","xpyriment","I have read and understood the information shown above","legacy","legacy","0","uniform","1","0","0","undefined","undefined","1","f","1","0","NA","0","0","0","0","0","0","0","0","0","63","63","63","0","0","0","0","0","1","0","0","0","1","63","63","63","63","63","Wed Jun 28 16:44:10 2017","Forced-choice identification task with a practice and an experimental phase","yes","NAP-FC_GER_AA_ver-2.osexp","/Users/aviadalbert/Documents/Academisch/UoC/Dissertation/Experiment/OpenSesame/NAP-FC/NAP-FC_GER_AA/GER_AA_ver-2","yes","no","sans","no","20","no","black","no","Next","yes","768","legacy","53","9","0","/Users/aviadalbert/Documents/Academisch/UoC/Dissertation/Experiment/OpenSesame/NAP-FC/NAP-FC_GER_AA/GER_AA_ver-2/subject-4.csv","xpyriment","Jazzy James","3.1.6","yes","yes","5950408a6c613b0229e3e810","59504237594d9002288b1720","no","no","0","f","f","space","NA","return","return","f","997","2308","14464","NA","34220","20087","997","2","legacy","1024","1","44100","-16","experiment","ftal","23","Munich","1","0","1","German","English, French","4","even","Cologne","6075067","6060303","NA","6077376","6075063","NA","5838784","6074832","5838784","5838784","5965591","5999816","6250186","6248682","6251185","6029431","6020190","6060302","5860240","5950406","6058618","6019975","6075066","6020194","NA","6250185","6250185","NA","NA","6248678","NAP perception","46","77492","54","yes","1024"
"85.4545454545","yes","85.4545454545","1447.23636364","1447.23636364","white","no","xpyriment","I have read and understood the information shown above","legacy","legacy","0","uniform","1","0","0","undefined","undefined","1","j","1","0","NA","0","0","0","0","0","0","0","0","0","64","64","64","0","0","0","0","0","1","0","0","0","1","64","64","64","64","64","Wed Jun 28 16:44:10 2017","Forced-choice identification task with a practice and an experimental phase","yes","NAP-FC_GER_AA_ver-2.osexp","/Users/aviadalbert/Documents/Academisch/UoC/Dissertation/Experiment/OpenSesame/NAP-FC/NAP-FC_GER_AA/GER_AA_ver-2","yes","no","sans","no","20","no","black","no","Next","yes","768","legacy","54","9","0","/Users/aviadalbert/Documents/Academisch/UoC/Dissertation/Experiment/OpenSesame/NAP-FC/NAP-FC_GER_AA/GER_AA_ver-2/subject-4.csv","xpyriment","Jazzy James","3.1.6","yes","yes","5950408a6c613b0229e3e810","59504237594d9002288b1720","no","no","0","j","f","space","NA","return","return","j","2106","2308","14464","NA","34220","20087","2106","2","legacy","1024","1","44100","-16","experiment","fenal","23","Munich","1","0","1","German","English, French","4","even","Cologne","6075067","6060303","NA","6077376","6075063","NA","5838784","6074832","5838784","5838784","5965591","5999816","6252978","6251475","6255086","6029431","6020190","6060302","5860240","5950406","6058618","6019975","6075066","6020194","NA","6252978","6252978","NA","NA","6251471","NAP perception","47","79598","55","yes","1024"
"85.7142857143","yes","85.7142857143","1443.73214286","1443.73214286","white","no","xpyriment","I have read and understood the information shown above","legacy","legacy","0","uniform","1","0","0","undefined","undefined","1","f","1","0","NA","0","0","0","0","0","0","0","0","0","65","65","65","0","0","0","0","0","1","0","0","0","1","65","65","65","65","65","Wed Jun 28 16:44:10 2017","Forced-choice identification task with a practice and an experimental phase","yes","NAP-FC_GER_AA_ver-2.osexp","/Users/aviadalbert/Documents/Academisch/UoC/Dissertation/Experiment/OpenSesame/NAP-FC/NAP-FC_GER_AA/GER_AA_ver-2","yes","no","sans","no","20","no","black","no","Next","yes","768","legacy","55","9","0","/Users/aviadalbert/Documents/Academisch/UoC/Dissertation/Experiment/OpenSesame/NAP-FC/NAP-FC_GER_AA/GER_AA_ver-2/subject-4.csv","xpyriment","Jazzy James","3.1.6","yes","yes","5950408a6c613b0229e3e810","59504237594d9002288b1720","no","no","0","f","f","space","NA","return","return","f","1251","2308","14464","NA","34220","20087","1251","2","legacy","1024","1","44100","-16","experiment","vlal","23","Munich","1","0","1","German","English, French","4","even","Cologne","6075067","6060303","NA","6077376","6075063","NA","5838784","6074832","5838784","5838784","5965591","5999816","6256888","6255380","6258140","6029431","6020190","6060302","5860240","5950406","6058618","6019975","6075066","6020194","NA","6256887","6256887","NA","NA","6255376","NAP perception","48","80849","56","yes","1024"
