"acc","accept_status","accuracy","average_response_time","avg_rt","background","bidi","canvas_backend","checkbox_status","clock_backend","color_backend","compensation","coordinates","correct","correct_block_activation","correct_block_exit","correct_instructions_1","correct_instructions_2","correct_keyboard_response","correct_response","count_block_activation","count_block_exit","count_block_info_QA","count_e_block_loop","count_e_block_sequence","count_end_of_experiment","count_experiment","count_experimental_loop","count_form_consent","count_info_forms","count_instructions_1","count_instructions_2","count_keyboard_response","count_listen_message","count_logger","count_p_block_loop","count_p_block_sequence","count_p_feedback","count_personal_details_form_1","count_personal_details_form_2","count_post_loop_blank","count_practice_loop","count_pre_e_block_message","count_pre_p_block_message","count_reset_feedback","count_stimulus_image","count_stimulus_sound","count_timeout_message","count_timeout_sound","count_trial_sequence","datetime","description","disable_garbage_collection","experiment_file","experiment_path","expyriment_opengl","font_bold","font_family","font_italic","font_size","font_underline","foreground","form_clicks","form_response","fullscreen","height","keyboard_backend","live_row","live_row_p_block_loop","live_row_practice_loop","logfile","mouse_backend","opensesame_codename","opensesame_version","osf_always_upload_data","osf_always_upload_experiment","osf_datanode_id","osf_id","practice","pygame_doublebuf","repeat_cycle","response","response_block_activation","response_block_exit","response_block_info_QA","response_instructions_1","response_instructions_2","response_keyboard_response","response_time","response_time_block_activation","response_time_block_exit","response_time_block_info_QA","response_time_instructions_1","response_time_instructions_2","response_time_keyboard_response","round_decimals","sampler_backend","sound_buf_size","sound_channels","sound_freq","sound_sample_size","start","stimulus","subject_age","subject_birth","subject_education","subject_gender","subject_handedness","subject_language_native","subject_language_other","subject_nr","subject_parity","subject_residence","time_block_activation","time_block_exit","time_block_info_QA","time_e_block_loop","time_e_block_sequence","time_end_of_experiment","time_experiment","time_experimental_loop","time_form_consent","time_info_forms","time_instructions_1","time_instructions_2","time_keyboard_response","time_listen_message","time_logger","time_p_block_loop","time_p_block_sequence","time_p_feedback","time_personal_details_form_1","time_personal_details_form_2","time_post_loop_blank","time_practice_loop","time_pre_e_block_message","time_pre_p_block_message","time_reset_feedback","time_stimulus_image","time_stimulus_sound","time_timeout_message","time_timeout_sound","time_trial_sequence","title","total_correct","total_response_time","total_responses","uniform_coordinates","width"
"100","yes","100","1060","1060","white","no","xpyriment","I have read and understood the information shown above","legacy","legacy","0","uniform","1","0","NA","undefined","undefined","1","f","0","0","NA","NA","NA","NA","0","0","0","0","0","0","0","0","0","0","0","NA","0","0","0","0","NA","0","0","0","0","0","0","0","Wed Jun 28 18:02:03 2017","Forced-choice identification task with a practice and an experimental phase","yes","NAP-FC_GER_AA_ver-2.osexp","/Users/aviadalbert/Documents/Academisch/UoC/Dissertation/Experiment/OpenSesame/NAP-FC/NAP-FC_GER_AA/GER_AA_ver-2","yes","no","sans","no","20","no","black","no","Next","yes","768","legacy","0","0","0","/Users/aviadalbert/Documents/Academisch/UoC/Dissertation/Experiment/OpenSesame/NAP-FC/NAP-FC_GER_AA/GER_AA_ver-2/subject-6.csv","xpyriment","Jazzy James","3.1.6","yes","yes","5950408a6c613b0229e3e810","59504237594d9002288b1720","yes","no","0","f","j","NA","NA","space","space","f","1060","2845","NA","NA","14554","25862","1060","2","legacy","1024","1","44100","-16","experiment","flal","22","Duesseldorf","1","0","1","German","English","6","even","Duesseldorf","705062","NA","NA","NA","NA","NA","529026","NA","529027","529027","664376","678935","709627","708120","710688","707908","705058","NA","549634","644550","NA","704855","NA","705062","NA","709626","709627","NA","NA","708117","NAP perception","1","1060","1","yes","1024"
"100","yes","100","992.5","992.5","white","no","xpyriment","I have read and understood the information shown above","legacy","legacy","0","uniform","1","0","NA","undefined","undefined","1","j","0","0","NA","NA","NA","NA","0","0","0","0","0","0","1","1","1","0","0","NA","0","0","0","0","NA","0","0","1","1","1","1","1","Wed Jun 28 18:02:03 2017","Forced-choice identification task with a practice and an experimental phase","yes","NAP-FC_GER_AA_ver-2.osexp","/Users/aviadalbert/Documents/Academisch/UoC/Dissertation/Experiment/OpenSesame/NAP-FC/NAP-FC_GER_AA/GER_AA_ver-2","yes","no","sans","no","20","no","black","no","Next","yes","768","legacy","1","1","0","/Users/aviadalbert/Documents/Academisch/UoC/Dissertation/Experiment/OpenSesame/NAP-FC/NAP-FC_GER_AA/GER_AA_ver-2/subject-6.csv","xpyriment","Jazzy James","3.1.6","yes","yes","5950408a6c613b0229e3e810","59504237594d9002288b1720","yes","no","0","j","j","NA","NA","space","space","j","925","2845","NA","NA","14554","25862","925","2","legacy","1024","1","44100","-16","experiment","lepal","22","Duesseldorf","1","0","1","German","English","6","even","Duesseldorf","705062","NA","NA","NA","NA","NA","529026","NA","529027","529027","664376","678935","712486","710982","713412","707908","705058","NA","549634","644550","NA","704855","NA","705062","NA","712486","712486","NA","NA","710978","NAP perception","2","1985","2","yes","1024"
"100","yes","100","943.666666667","943.666666667","white","no","xpyriment","I have read and understood the information shown above","legacy","legacy","0","uniform","1","0","NA","undefined","undefined","1","j","0","0","NA","NA","NA","NA","0","0","0","0","0","0","2","2","2","0","0","NA","0","0","0","0","NA","0","0","2","2","2","2","2","Wed Jun 28 18:02:03 2017","Forced-choice identification task with a practice and an experimental phase","yes","NAP-FC_GER_AA_ver-2.osexp","/Users/aviadalbert/Documents/Academisch/UoC/Dissertation/Experiment/OpenSesame/NAP-FC/NAP-FC_GER_AA/GER_AA_ver-2","yes","no","sans","no","20","no","black","no","Next","yes","768","legacy","2","2","0","/Users/aviadalbert/Documents/Academisch/UoC/Dissertation/Experiment/OpenSesame/NAP-FC/NAP-FC_GER_AA/GER_AA_ver-2/subject-6.csv","xpyriment","Jazzy James","3.1.6","yes","yes","5950408a6c613b0229e3e810","59504237594d9002288b1720","yes","no","0","j","j","NA","NA","space","space","j","846","2845","NA","NA","14554","25862","846","2","legacy","1024","1","44100","-16","experiment","emtal","22","Duesseldorf","1","0","1","German","English","6","even","Duesseldorf","705062","NA","NA","NA","NA","NA","529026","NA","529027","529027","664376","678935","715183","713677","716031","707908","705058","NA","549634","644550","NA","704855","NA","705062","NA","715183","715183","NA","NA","713674","NAP perception","3","2831","3","yes","1024"
"100","yes","100","950.75","950.75","white","no","xpyriment","I have read and understood the information shown above","legacy","legacy","0","uniform","1","0","NA","undefined","undefined","1","f","0","0","NA","NA","NA","NA","0","0","0","0","0","0","3","3","3","0","0","NA","0","0","0","0","NA","0","0","3","3","3","3","3","Wed Jun 28 18:02:03 2017","Forced-choice identification task with a practice and an experimental phase","yes","NAP-FC_GER_AA_ver-2.osexp","/Users/aviadalbert/Documents/Academisch/UoC/Dissertation/Experiment/OpenSesame/NAP-FC/NAP-FC_GER_AA/GER_AA_ver-2","yes","no","sans","no","20","no","black","no","Next","yes","768","legacy","3","3","0","/Users/aviadalbert/Documents/Academisch/UoC/Dissertation/Experiment/OpenSesame/NAP-FC/NAP-FC_GER_AA/GER_AA_ver-2/subject-6.csv","xpyriment","Jazzy James","3.1.6","yes","yes","5950408a6c613b0229e3e810","59504237594d9002288b1720","yes","no","0","f","j","NA","NA","space","space","f","972","2845","NA","NA","14554","25862","972","2","legacy","1024","1","44100","-16","experiment","ʃpal","22","Duesseldorf","1","0","1","German","English","6","even","Duesseldorf","705062","NA","NA","NA","NA","NA","529026","NA","529027","529027","664376","678935","717813","716309","718786","707908","705058","NA","549634","644550","NA","704855","NA","705062","NA","717813","717813","NA","NA","716305","NAP perception","4","3803","4","yes","1024"
"100","yes","100","927","927","white","no","xpyriment","I have read and understood the information shown above","legacy","legacy","0","uniform","1","0","NA","undefined","undefined","1","j","0","0","NA","NA","NA","NA","0","0","0","0","0","0","4","4","4","0","0","NA","0","0","0","0","NA","0","0","4","4","4","4","4","Wed Jun 28 18:02:03 2017","Forced-choice identification task with a practice and an experimental phase","yes","NAP-FC_GER_AA_ver-2.osexp","/Users/aviadalbert/Documents/Academisch/UoC/Dissertation/Experiment/OpenSesame/NAP-FC/NAP-FC_GER_AA/GER_AA_ver-2","yes","no","sans","no","20","no","black","no","Next","yes","768","legacy","4","4","0","/Users/aviadalbert/Documents/Academisch/UoC/Dissertation/Experiment/OpenSesame/NAP-FC/NAP-FC_GER_AA/GER_AA_ver-2/subject-6.csv","xpyriment","Jazzy James","3.1.6","yes","yes","5950408a6c613b0229e3e810","59504237594d9002288b1720","yes","no","0","j","j","NA","NA","space","space","j","832","2845","NA","NA","14554","25862","832","2","legacy","1024","1","44100","-16","experiment","nefal","22","Duesseldorf","1","0","1","German","English","6","even","Duesseldorf","705062","NA","NA","NA","NA","NA","529026","NA","529027","529027","664376","678935","720569","719064","721402","707908","705058","NA","549634","644550","NA","704855","NA","705062","NA","720568","720569","NA","NA","719061","NAP perception","5","4635","5","yes","1024"
"100","yes","100","907.833333333","907.833333333","white","no","xpyriment","I have read and understood the information shown above","legacy","legacy","0","uniform","1","0","NA","undefined","undefined","1","f","0","0","NA","NA","NA","NA","0","0","0","0","0","0","5","5","5","0","0","NA","0","0","0","0","NA","0","0","5","5","5","5","5","Wed Jun 28 18:02:03 2017","Forced-choice identification task with a practice and an experimental phase","yes","NAP-FC_GER_AA_ver-2.osexp","/Users/aviadalbert/Documents/Academisch/UoC/Dissertation/Experiment/OpenSesame/NAP-FC/NAP-FC_GER_AA/GER_AA_ver-2","yes","no","sans","no","20","no","black","no","Next","yes","768","legacy","5","5","0","/Users/aviadalbert/Documents/Academisch/UoC/Dissertation/Experiment/OpenSesame/NAP-FC/NAP-FC_GER_AA/GER_AA_ver-2/subject-6.csv","xpyriment","Jazzy James","3.1.6","yes","yes","5950408a6c613b0229e3e810","59504237594d9002288b1720","yes","no","0","f","j","NA","NA","space","space","f","812","2845","NA","NA","14554","25862","812","2","legacy","1024","1","44100","-16","experiment","sfal","22","Duesseldorf","1","0","1","German","English","6","even","Duesseldorf","705062","NA","NA","NA","NA","NA","529026","NA","529027","529027","664376","678935","723177","721674","723990","707908","705058","NA","549634","644550","NA","704855","NA","705062","NA","723177","723177","NA","NA","721670","NAP perception","6","5447","6","yes","1024"
"100","yes","100","898.142857143","898.142857143","white","no","xpyriment","I have read and understood the information shown above","legacy","legacy","0","uniform","1","0","NA","undefined","undefined","1","f","0","0","NA","NA","NA","NA","0","0","0","0","0","0","6","6","6","0","0","NA","0","0","0","0","NA","0","0","6","6","6","6","6","Wed Jun 28 18:02:03 2017","Forced-choice identification task with a practice and an experimental phase","yes","NAP-FC_GER_AA_ver-2.osexp","/Users/aviadalbert/Documents/Academisch/UoC/Dissertation/Experiment/OpenSesame/NAP-FC/NAP-FC_GER_AA/GER_AA_ver-2","yes","no","sans","no","20","no","black","no","Next","yes","768","legacy","6","6","0","/Users/aviadalbert/Documents/Academisch/UoC/Dissertation/Experiment/OpenSesame/NAP-FC/NAP-FC_GER_AA/GER_AA_ver-2/subject-6.csv","xpyriment","Jazzy James","3.1.6","yes","yes","5950408a6c613b0229e3e810","59504237594d9002288b1720","yes","no","0","f","j","NA","NA","space","space","f","840","2845","NA","NA","14554","25862","840","2","legacy","1024","1","44100","-16","experiment","zmal","22","Duesseldorf","1","0","1","German","English","6","even","Duesseldorf","705062","NA","NA","NA","NA","NA","529026","NA","529027","529027","664376","678935","725758","724254","726599","707908","705058","NA","549634","644550","NA","704855","NA","705062","NA","725757","725757","NA","NA","724250","NAP perception","7","6287","7","yes","1024"
"100","yes","100","887.875","887.875","white","no","xpyriment","I have read and understood the information shown above","legacy","legacy","0","uniform","1","0","NA","undefined","undefined","1","j","0","0","NA","NA","NA","NA","0","0","0","0","0","0","7","7","7","0","0","NA","0","0","0","0","NA","0","0","7","7","7","7","7","Wed Jun 28 18:02:03 2017","Forced-choice identification task with a practice and an experimental phase","yes","NAP-FC_GER_AA_ver-2.osexp","/Users/aviadalbert/Documents/Academisch/UoC/Dissertation/Experiment/OpenSesame/NAP-FC/NAP-FC_GER_AA/GER_AA_ver-2","yes","no","sans","no","20","no","black","no","Next","yes","768","legacy","7","7","0","/Users/aviadalbert/Documents/Academisch/UoC/Dissertation/Experiment/OpenSesame/NAP-FC/NAP-FC_GER_AA/GER_AA_ver-2/subject-6.csv","xpyriment","Jazzy James","3.1.6","yes","yes","5950408a6c613b0229e3e810","59504237594d9002288b1720","yes","no","0","j","j","NA","NA","space","space","j","816","2845","NA","NA","14554","25862","816","2","legacy","1024","1","44100","-16","experiment","jeval","22","Duesseldorf","1","0","1","German","English","6","even","Duesseldorf","705062","NA","NA","NA","NA","NA","529026","NA","529027","529027","664376","678935","728366","726859","729183","707908","705058","NA","549634","644550","NA","704855","NA","705062","NA","728366","728366","NA","NA","726855","NAP perception","8","7103","8","yes","1024"
"100","yes","100","886","886","white","no","xpyriment","I have read and understood the information shown above","legacy","legacy","0","uniform","1","0","NA","undefined","undefined","1","j","0","0","NA","NA","NA","NA","0","0","0","0","0","0","8","8","8","0","0","NA","0","0","0","0","NA","0","0","8","8","8","8","8","Wed Jun 28 18:02:03 2017","Forced-choice identification task with a practice and an experimental phase","yes","NAP-FC_GER_AA_ver-2.osexp","/Users/aviadalbert/Documents/Academisch/UoC/Dissertation/Experiment/OpenSesame/NAP-FC/NAP-FC_GER_AA/GER_AA_ver-2","yes","no","sans","no","20","no","black","no","Next","yes","768","legacy","8","8","0","/Users/aviadalbert/Documents/Academisch/UoC/Dissertation/Experiment/OpenSesame/NAP-FC/NAP-FC_GER_AA/GER_AA_ver-2/subject-6.csv","xpyriment","Jazzy James","3.1.6","yes","yes","5950408a6c613b0229e3e810","59504237594d9002288b1720","yes","no","0","j","j","NA","NA","space","space","j","871","2845","NA","NA","14554","25862","871","2","legacy","1024","1","44100","-16","experiment","enval","22","Duesseldorf","1","0","1","German","English","6","even","Duesseldorf","705062","NA","NA","NA","NA","NA","529026","NA","529027","529027","664376","678935","730962","729456","731834","707908","705058","NA","549634","644550","NA","704855","NA","705062","NA","730962","730962","NA","NA","729452","NAP perception","9","7974","9","yes","1024"
"100","yes","100","880.3","880.3","white","no","xpyriment","I have read and understood the information shown above","legacy","legacy","0","uniform","1","0","NA","undefined","undefined","1","f","0","0","NA","NA","NA","NA","0","0","0","0","0","0","9","9","9","0","0","NA","0","0","0","0","NA","0","0","9","9","9","9","9","Wed Jun 28 18:02:03 2017","Forced-choice identification task with a practice and an experimental phase","yes","NAP-FC_GER_AA_ver-2.osexp","/Users/aviadalbert/Documents/Academisch/UoC/Dissertation/Experiment/OpenSesame/NAP-FC/NAP-FC_GER_AA/GER_AA_ver-2","yes","no","sans","no","20","no","black","no","Next","yes","768","legacy","9","9","0","/Users/aviadalbert/Documents/Academisch/UoC/Dissertation/Experiment/OpenSesame/NAP-FC/NAP-FC_GER_AA/GER_AA_ver-2/subject-6.csv","xpyriment","Jazzy James","3.1.6","yes","yes","5950408a6c613b0229e3e810","59504237594d9002288b1720","yes","no","0","f","j","NA","NA","space","space","f","829","2845","NA","NA","14554","25862","829","2","legacy","1024","1","44100","-16","experiment","vlal","22","Duesseldorf","1","0","1","German","English","6","even","Duesseldorf","705062","NA","NA","NA","NA","NA","529026","NA","529027","529027","664376","678935","733596","732092","734426","707908","705058","NA","549634","644550","NA","704855","NA","705062","NA","733596","733596","NA","NA","732088","NAP perception","10","8803","10","yes","1024"
"100","yes","100","888","888","white","no","xpyriment","I have read and understood the information shown above","legacy","legacy","0","uniform","1","0","0","undefined","undefined","1","j","1","0","NA","0","0","0","0","0","0","0","0","0","10","10","10","0","0","0","0","0","1","0","0","0","1","10","10","10","10","10","Wed Jun 28 18:02:03 2017","Forced-choice identification task with a practice and an experimental phase","yes","NAP-FC_GER_AA_ver-2.osexp","/Users/aviadalbert/Documents/Academisch/UoC/Dissertation/Experiment/OpenSesame/NAP-FC/NAP-FC_GER_AA/GER_AA_ver-2","yes","no","sans","no","20","no","black","no","Next","yes","768","legacy","0","9","0","/Users/aviadalbert/Documents/Academisch/UoC/Dissertation/Experiment/OpenSesame/NAP-FC/NAP-FC_GER_AA/GER_AA_ver-2/subject-6.csv","xpyriment","Jazzy James","3.1.6","yes","yes","5950408a6c613b0229e3e810","59504237594d9002288b1720","no","no","0","j","j","space","NA","space","space","j","888","3798","7520","NA","14554","25862","888","2","legacy","1024","1","44100","-16","experiment","ezmal","22","Duesseldorf","1","0","1","German","English","6","even","Duesseldorf","743977","736163","NA","747776","743973","NA","529026","743741","529027","529027","664376","678935","749491","747987","750380","707908","705058","736163","549634","644550","734489","704855","743977","705062","NA","749491","749491","NA","NA","747984","NAP perception","1","888","1","yes","1024"
"50","yes","50","770.5","770.5","white","no","xpyriment","I have read and understood the information shown above","legacy","legacy","0","uniform","0","0","0","undefined","undefined","0","f","1","0","NA","0","0","0","0","0","0","0","0","0","11","11","11","0","0","0","0","0","1","0","0","0","1","11","11","11","11","11","Wed Jun 28 18:02:03 2017","Forced-choice identification task with a practice and an experimental phase","yes","NAP-FC_GER_AA_ver-2.osexp","/Users/aviadalbert/Documents/Academisch/UoC/Dissertation/Experiment/OpenSesame/NAP-FC/NAP-FC_GER_AA/GER_AA_ver-2","yes","no","sans","no","20","no","black","no","Next","yes","768","legacy","1","9","0","/Users/aviadalbert/Documents/Academisch/UoC/Dissertation/Experiment/OpenSesame/NAP-FC/NAP-FC_GER_AA/GER_AA_ver-2/subject-6.csv","xpyriment","Jazzy James","3.1.6","yes","yes","5950408a6c613b0229e3e810","59504237594d9002288b1720","no","no","0","j","j","space","NA","space","space","j","653","3798","7520","NA","14554","25862","653","2","legacy","1024","1","44100","-16","experiment","jmal","22","Duesseldorf","1","0","1","German","English","6","even","Duesseldorf","743977","736163","NA","747776","743973","NA","529026","743741","529027","529027","664376","678935","752156","750652","752810","707908","705058","736163","549634","644550","734489","704855","743977","705062","NA","752156","752156","NA","NA","750648","NAP perception","1","1541","2","yes","1024"
"33.3333333333","yes","33.3333333333","747.333333333","747.333333333","white","no","xpyriment","I have read and understood the information shown above","legacy","legacy","0","uniform","0","0","0","undefined","undefined","0","f","1","0","NA","0","0","0","0","0","0","0","0","0","12","12","12","0","0","0","0","0","1","0","0","0","1","12","12","12","12","12","Wed Jun 28 18:02:03 2017","Forced-choice identification task with a practice and an experimental phase","yes","NAP-FC_GER_AA_ver-2.osexp","/Users/aviadalbert/Documents/Academisch/UoC/Dissertation/Experiment/OpenSesame/NAP-FC/NAP-FC_GER_AA/GER_AA_ver-2","yes","no","sans","no","20","no","black","no","Next","yes","768","legacy","2","9","0","/Users/aviadalbert/Documents/Academisch/UoC/Dissertation/Experiment/OpenSesame/NAP-FC/NAP-FC_GER_AA/GER_AA_ver-2/subject-6.csv","xpyriment","Jazzy James","3.1.6","yes","yes","5950408a6c613b0229e3e810","59504237594d9002288b1720","no","no","0","j","j","space","NA","space","space","j","701","3798","7520","NA","14554","25862","701","2","legacy","1024","1","44100","-16","experiment","ftal","22","Duesseldorf","1","0","1","German","English","6","even","Duesseldorf","743977","736163","NA","747776","743973","NA","529026","743741","529027","529027","664376","678935","754584","753081","755286","707908","705058","736163","549634","644550","734489","704855","743977","705062","NA","754584","754584","NA","NA","753077","NAP perception","1","2242","3","yes","1024"
"50","yes","50","717.25","717.25","white","no","xpyriment","I have read and understood the information shown above","legacy","legacy","0","uniform","1","0","0","undefined","undefined","1","j","1","0","NA","0","0","0","0","0","0","0","0","0","13","13","13","0","0","0","0","0","1","0","0","0","1","13","13","13","13","13","Wed Jun 28 18:02:03 2017","Forced-choice identification task with a practice and an experimental phase","yes","NAP-FC_GER_AA_ver-2.osexp","/Users/aviadalbert/Documents/Academisch/UoC/Dissertation/Experiment/OpenSesame/NAP-FC/NAP-FC_GER_AA/GER_AA_ver-2","yes","no","sans","no","20","no","black","no","Next","yes","768","legacy","3","9","0","/Users/aviadalbert/Documents/Academisch/UoC/Dissertation/Experiment/OpenSesame/NAP-FC/NAP-FC_GER_AA/GER_AA_ver-2/subject-6.csv","xpyriment","Jazzy James","3.1.6","yes","yes","5950408a6c613b0229e3e810","59504237594d9002288b1720","no","no","0","j","j","space","NA","space","space","j","627","3798","7520","NA","14554","25862","627","2","legacy","1024","1","44100","-16","experiment","wenal","22","Duesseldorf","1","0","1","German","English","6","even","Duesseldorf","743977","736163","NA","747776","743973","NA","529026","743741","529027","529027","664376","678935","757055","755549","757683","707908","705058","736163","549634","644550","734489","704855","743977","705062","NA","757055","757055","NA","NA","755545","NAP perception","2","2869","4","yes","1024"
"40","yes","40","704.4","704.4","white","no","xpyriment","I have read and understood the information shown above","legacy","legacy","0","uniform","0","0","0","undefined","undefined","0","f","1","0","NA","0","0","0","0","0","0","0","0","0","14","14","14","0","0","0","0","0","1","0","0","0","1","14","14","14","14","14","Wed Jun 28 18:02:03 2017","Forced-choice identification task with a practice and an experimental phase","yes","NAP-FC_GER_AA_ver-2.osexp","/Users/aviadalbert/Documents/Academisch/UoC/Dissertation/Experiment/OpenSesame/NAP-FC/NAP-FC_GER_AA/GER_AA_ver-2","yes","no","sans","no","20","no","black","no","Next","yes","768","legacy","4","9","0","/Users/aviadalbert/Documents/Academisch/UoC/Dissertation/Experiment/OpenSesame/NAP-FC/NAP-FC_GER_AA/GER_AA_ver-2/subject-6.csv","xpyriment","Jazzy James","3.1.6","yes","yes","5950408a6c613b0229e3e810","59504237594d9002288b1720","no","no","0","j","j","space","NA","space","space","j","653","3798","7520","NA","14554","25862","653","2","legacy","1024","1","44100","-16","experiment","wzal","22","Duesseldorf","1","0","1","German","English","6","even","Duesseldorf","743977","736163","NA","747776","743973","NA","529026","743741","529027","529027","664376","678935","759459","757956","760113","707908","705058","736163","549634","644550","734489","704855","743977","705062","NA","759459","759459","NA","NA","757952","NAP perception","2","3522","5","yes","1024"
"50","yes","50","718.666666667","718.666666667","white","no","xpyriment","I have read and understood the information shown above","legacy","legacy","0","uniform","1","0","0","undefined","undefined","1","j","1","0","NA","0","0","0","0","0","0","0","0","0","15","15","15","0","0","0","0","0","1","0","0","0","1","15","15","15","15","15","Wed Jun 28 18:02:03 2017","Forced-choice identification task with a practice and an experimental phase","yes","NAP-FC_GER_AA_ver-2.osexp","/Users/aviadalbert/Documents/Academisch/UoC/Dissertation/Experiment/OpenSesame/NAP-FC/NAP-FC_GER_AA/GER_AA_ver-2","yes","no","sans","no","20","no","black","no","Next","yes","768","legacy","5","9","0","/Users/aviadalbert/Documents/Academisch/UoC/Dissertation/Experiment/OpenSesame/NAP-FC/NAP-FC_GER_AA/GER_AA_ver-2/subject-6.csv","xpyriment","Jazzy James","3.1.6","yes","yes","5950408a6c613b0229e3e810","59504237594d9002288b1720","no","no","0","j","j","space","NA","space","space","j","790","3798","7520","NA","14554","25862","790","2","legacy","1024","1","44100","-16","experiment","mezal","22","Duesseldorf","1","0","1","German","English","6","even","Duesseldorf","743977","736163","NA","747776","743973","NA","529026","743741","529027","529027","664376","678935","761892","760388","762683","707908","705058","736163","549634","644550","734489","704855","743977","705062","NA","761892","761892","NA","NA","760384","NAP perception","3","4312","6","yes","1024"
"42.8571428571","yes","42.8571428571","734.714285714","734.714285714","white","no","xpyriment","I have read and understood the information shown above","legacy","legacy","0","uniform","0","0","0","undefined","undefined","0","f","1","0","NA","0","0","0","0","0","0","0","0","0","16","16","16","0","0","0","0","0","1","0","0","0","1","16","16","16","16","16","Wed Jun 28 18:02:03 2017","Forced-choice identification task with a practice and an experimental phase","yes","NAP-FC_GER_AA_ver-2.osexp","/Users/aviadalbert/Documents/Academisch/UoC/Dissertation/Experiment/OpenSesame/NAP-FC/NAP-FC_GER_AA/GER_AA_ver-2","yes","no","sans","no","20","no","black","no","Next","yes","768","legacy","6","9","0","/Users/aviadalbert/Documents/Academisch/UoC/Dissertation/Experiment/OpenSesame/NAP-FC/NAP-FC_GER_AA/GER_AA_ver-2/subject-6.csv","xpyriment","Jazzy James","3.1.6","yes","yes","5950408a6c613b0229e3e810","59504237594d9002288b1720","no","no","0","j","j","space","NA","space","space","j","831","3798","7520","NA","14554","25862","831","2","legacy","1024","1","44100","-16","experiment","lkal","22","Duesseldorf","1","0","1","German","English","6","even","Duesseldorf","743977","736163","NA","747776","743973","NA","529026","743741","529027","529027","664376","678935","764456","762951","765288","707908","705058","736163","549634","644550","734489","704855","743977","705062","NA","764456","764456","NA","NA","762947","NAP perception","3","5143","7","yes","1024"
"50","yes","50","738.25","738.25","white","no","xpyriment","I have read and understood the information shown above","legacy","legacy","0","uniform","1","0","0","undefined","undefined","1","j","1","0","NA","0","0","0","0","0","0","0","0","0","17","17","17","0","0","0","0","0","1","0","0","0","1","17","17","17","17","17","Wed Jun 28 18:02:03 2017","Forced-choice identification task with a practice and an experimental phase","yes","NAP-FC_GER_AA_ver-2.osexp","/Users/aviadalbert/Documents/Academisch/UoC/Dissertation/Experiment/OpenSesame/NAP-FC/NAP-FC_GER_AA/GER_AA_ver-2","yes","no","sans","no","20","no","black","no","Next","yes","768","legacy","7","9","0","/Users/aviadalbert/Documents/Academisch/UoC/Dissertation/Experiment/OpenSesame/NAP-FC/NAP-FC_GER_AA/GER_AA_ver-2/subject-6.csv","xpyriment","Jazzy James","3.1.6","yes","yes","5950408a6c613b0229e3e810","59504237594d9002288b1720","no","no","0","j","j","space","NA","space","space","j","763","3798","7520","NA","14554","25862","763","2","legacy","1024","1","44100","-16","experiment","melal","22","Duesseldorf","1","0","1","German","English","6","even","Duesseldorf","743977","736163","NA","747776","743973","NA","529026","743741","529027","529027","664376","678935","767064","765560","767828","707908","705058","736163","549634","644550","734489","704855","743977","705062","NA","767064","767064","NA","NA","765557","NAP perception","4","5906","8","yes","1024"
"55.5555555556","yes","55.5555555556","745.777777778","745.777777778","white","no","xpyriment","I have read and understood the information shown above","legacy","legacy","0","uniform","1","0","0","undefined","undefined","1","j","1","0","NA","0","0","0","0","0","0","0","0","0","18","18","18","0","0","0","0","0","1","0","0","0","1","18","18","18","18","18","Wed Jun 28 18:02:03 2017","Forced-choice identification task with a practice and an experimental phase","yes","NAP-FC_GER_AA_ver-2.osexp","/Users/aviadalbert/Documents/Academisch/UoC/Dissertation/Experiment/OpenSesame/NAP-FC/NAP-FC_GER_AA/GER_AA_ver-2","yes","no","sans","no","20","no","black","no","Next","yes","768","legacy","8","9","0","/Users/aviadalbert/Documents/Academisch/UoC/Dissertation/Experiment/OpenSesame/NAP-FC/NAP-FC_GER_AA/GER_AA_ver-2/subject-6.csv","xpyriment","Jazzy James","3.1.6","yes","yes","5950408a6c613b0229e3e810","59504237594d9002288b1720","no","no","0","j","j","space","NA","space","space","j","806","3798","7520","NA","14554","25862","806","2","legacy","1024","1","44100","-16","experiment","elmal","22","Duesseldorf","1","0","1","German","English","6","even","Duesseldorf","743977","736163","NA","747776","743973","NA","529026","743741","529027","529027","664376","678935","769619","768114","770426","707908","705058","736163","549634","644550","734489","704855","743977","705062","NA","769618","769618","NA","NA","768110","NAP perception","5","6712","9","yes","1024"
"50","yes","50","748.4","748.4","white","no","xpyriment","I have read and understood the information shown above","legacy","legacy","0","uniform","0","0","0","undefined","undefined","0","f","1","0","NA","0","0","0","0","0","0","0","0","0","19","19","19","0","0","0","0","0","1","0","0","0","1","19","19","19","19","19","Wed Jun 28 18:02:03 2017","Forced-choice identification task with a practice and an experimental phase","yes","NAP-FC_GER_AA_ver-2.osexp","/Users/aviadalbert/Documents/Academisch/UoC/Dissertation/Experiment/OpenSesame/NAP-FC/NAP-FC_GER_AA/GER_AA_ver-2","yes","no","sans","no","20","no","black","no","Next","yes","768","legacy","9","9","0","/Users/aviadalbert/Documents/Academisch/UoC/Dissertation/Experiment/OpenSesame/NAP-FC/NAP-FC_GER_AA/GER_AA_ver-2/subject-6.csv","xpyriment","Jazzy James","3.1.6","yes","yes","5950408a6c613b0229e3e810","59504237594d9002288b1720","no","no","0","j","j","space","NA","space","space","j","772","3798","7520","NA","14554","25862","772","2","legacy","1024","1","44100","-16","experiment","wlal","22","Duesseldorf","1","0","1","German","English","6","even","Duesseldorf","743977","736163","NA","747776","743973","NA","529026","743741","529027","529027","664376","678935","772197","770693","772970","707908","705058","736163","549634","644550","734489","704855","743977","705062","NA","772196","772197","NA","NA","770689","NAP perception","5","7484","10","yes","1024"
"54.5454545455","yes","54.5454545455","753.090909091","753.090909091","white","no","xpyriment","I have read and understood the information shown above","legacy","legacy","0","uniform","1","0","0","undefined","undefined","1","j","1","0","NA","0","0","0","0","0","0","0","0","0","20","20","20","0","0","0","0","0","1","0","0","0","1","20","20","20","20","20","Wed Jun 28 18:02:03 2017","Forced-choice identification task with a practice and an experimental phase","yes","NAP-FC_GER_AA_ver-2.osexp","/Users/aviadalbert/Documents/Academisch/UoC/Dissertation/Experiment/OpenSesame/NAP-FC/NAP-FC_GER_AA/GER_AA_ver-2","yes","no","sans","no","20","no","black","no","Next","yes","768","legacy","10","9","0","/Users/aviadalbert/Documents/Academisch/UoC/Dissertation/Experiment/OpenSesame/NAP-FC/NAP-FC_GER_AA/GER_AA_ver-2/subject-6.csv","xpyriment","Jazzy James","3.1.6","yes","yes","5950408a6c613b0229e3e810","59504237594d9002288b1720","no","no","0","j","j","space","NA","space","space","j","800","3798","7520","NA","14554","25862","800","2","legacy","1024","1","44100","-16","experiment","enval","22","Duesseldorf","1","0","1","German","English","6","even","Duesseldorf","743977","736163","NA","747776","743973","NA","529026","743741","529027","529027","664376","678935","774751","773246","775552","707908","705058","736163","549634","644550","734489","704855","743977","705062","NA","774751","774751","NA","NA","773242","NAP perception","6","8284","11","yes","1024"
"58.3333333333","yes","58.3333333333","754.5","754.5","white","no","xpyriment","I have read and understood the information shown above","legacy","legacy","0","uniform","1","0","0","undefined","undefined","1","j","1","0","NA","0","0","0","0","0","0","0","0","0","21","21","21","0","0","0","0","0","1","0","0","0","1","21","21","21","21","21","Wed Jun 28 18:02:03 2017","Forced-choice identification task with a practice and an experimental phase","yes","NAP-FC_GER_AA_ver-2.osexp","/Users/aviadalbert/Documents/Academisch/UoC/Dissertation/Experiment/OpenSesame/NAP-FC/NAP-FC_GER_AA/GER_AA_ver-2","yes","no","sans","no","20","no","black","no","Next","yes","768","legacy","11","9","0","/Users/aviadalbert/Documents/Academisch/UoC/Dissertation/Experiment/OpenSesame/NAP-FC/NAP-FC_GER_AA/GER_AA_ver-2/subject-6.csv","xpyriment","Jazzy James","3.1.6","yes","yes","5950408a6c613b0229e3e810","59504237594d9002288b1720","no","no","0","j","j","space","NA","space","space","j","770","3798","7520","NA","14554","25862","770","2","legacy","1024","1","44100","-16","experiment","sefal","22","Duesseldorf","1","0","1","German","English","6","even","Duesseldorf","743977","736163","NA","747776","743973","NA","529026","743741","529027","529027","664376","678935","777335","775832","778106","707908","705058","736163","549634","644550","734489","704855","743977","705062","NA","777335","777335","NA","NA","775828","NAP perception","7","9054","12","yes","1024"
"61.5384615385","yes","61.5384615385","759.307692308","759.307692308","white","no","xpyriment","I have read and understood the information shown above","legacy","legacy","0","uniform","1","0","0","undefined","undefined","1","j","1","0","NA","0","0","0","0","0","0","0","0","0","22","22","22","0","0","0","0","0","1","0","0","0","1","22","22","22","22","22","Wed Jun 28 18:02:03 2017","Forced-choice identification task with a practice and an experimental phase","yes","NAP-FC_GER_AA_ver-2.osexp","/Users/aviadalbert/Documents/Academisch/UoC/Dissertation/Experiment/OpenSesame/NAP-FC/NAP-FC_GER_AA/GER_AA_ver-2","yes","no","sans","no","20","no","black","no","Next","yes","768","legacy","12","9","0","/Users/aviadalbert/Documents/Academisch/UoC/Dissertation/Experiment/OpenSesame/NAP-FC/NAP-FC_GER_AA/GER_AA_ver-2/subject-6.csv","xpyriment","Jazzy James","3.1.6","yes","yes","5950408a6c613b0229e3e810","59504237594d9002288b1720","no","no","0","j","j","space","NA","space","space","j","817","3798","7520","NA","14554","25862","817","2","legacy","1024","1","44100","-16","experiment","lekal","22","Duesseldorf","1","0","1","German","English","6","even","Duesseldorf","743977","736163","NA","747776","743973","NA","529026","743741","529027","529027","664376","678935","779894","778389","780712","707908","705058","736163","549634","644550","734489","704855","743977","705062","NA","779893","779893","NA","NA","778385","NAP perception","8","9871","13","yes","1024"
"57.1428571429","yes","57.1428571429","763.5","763.5","white","no","xpyriment","I have read and understood the information shown above","legacy","legacy","0","uniform","0","0","0","undefined","undefined","0","f","1","0","NA","0","0","0","0","0","0","0","0","0","23","23","23","0","0","0","0","0","1","0","0","0","1","23","23","23","23","23","Wed Jun 28 18:02:03 2017","Forced-choice identification task with a practice and an experimental phase","yes","NAP-FC_GER_AA_ver-2.osexp","/Users/aviadalbert/Documents/Academisch/UoC/Dissertation/Experiment/OpenSesame/NAP-FC/NAP-FC_GER_AA/GER_AA_ver-2","yes","no","sans","no","20","no","black","no","Next","yes","768","legacy","13","9","0","/Users/aviadalbert/Documents/Academisch/UoC/Dissertation/Experiment/OpenSesame/NAP-FC/NAP-FC_GER_AA/GER_AA_ver-2/subject-6.csv","xpyriment","Jazzy James","3.1.6","yes","yes","5950408a6c613b0229e3e810","59504237594d9002288b1720","no","no","0","j","j","space","NA","space","space","j","818","3798","7520","NA","14554","25862","818","2","legacy","1024","1","44100","-16","experiment","wnal","22","Duesseldorf","1","0","1","German","English","6","even","Duesseldorf","743977","736163","NA","747776","743973","NA","529026","743741","529027","529027","664376","678935","782498","780994","783317","707908","705058","736163","549634","644550","734489","704855","743977","705062","NA","782497","782498","NA","NA","780990","NAP perception","8","10689","14","yes","1024"
"60","yes","60","763.666666667","763.666666667","white","no","xpyriment","I have read and understood the information shown above","legacy","legacy","0","uniform","1","0","0","undefined","undefined","1","j","1","0","NA","0","0","0","0","0","0","0","0","0","24","24","24","0","0","0","0","0","1","0","0","0","1","24","24","24","24","24","Wed Jun 28 18:02:03 2017","Forced-choice identification task with a practice and an experimental phase","yes","NAP-FC_GER_AA_ver-2.osexp","/Users/aviadalbert/Documents/Academisch/UoC/Dissertation/Experiment/OpenSesame/NAP-FC/NAP-FC_GER_AA/GER_AA_ver-2","yes","no","sans","no","20","no","black","no","Next","yes","768","legacy","14","9","0","/Users/aviadalbert/Documents/Academisch/UoC/Dissertation/Experiment/OpenSesame/NAP-FC/NAP-FC_GER_AA/GER_AA_ver-2/subject-6.csv","xpyriment","Jazzy James","3.1.6","yes","yes","5950408a6c613b0229e3e810","59504237594d9002288b1720","no","no","0","j","j","space","NA","space","space","j","766","3798","7520","NA","14554","25862","766","2","legacy","1024","1","44100","-16","experiment","fenal","22","Duesseldorf","1","0","1","German","English","6","even","Duesseldorf","743977","736163","NA","747776","743973","NA","529026","743741","529027","529027","664376","678935","785094","783588","785862","707908","705058","736163","549634","644550","734489","704855","743977","705062","NA","785094","785094","NA","NA","783584","NAP perception","9","11455","15","yes","1024"
"62.5","yes","62.5","757.3125","757.3125","white","no","xpyriment","I have read and understood the information shown above","legacy","legacy","0","uniform","1","0","0","undefined","undefined","1","f","1","0","NA","0","0","0","0","0","0","0","0","0","25","25","25","0","0","0","0","0","1","0","0","0","1","25","25","25","25","25","Wed Jun 28 18:02:03 2017","Forced-choice identification task with a practice and an experimental phase","yes","NAP-FC_GER_AA_ver-2.osexp","/Users/aviadalbert/Documents/Academisch/UoC/Dissertation/Experiment/OpenSesame/NAP-FC/NAP-FC_GER_AA/GER_AA_ver-2","yes","no","sans","no","20","no","black","no","Next","yes","768","legacy","15","9","0","/Users/aviadalbert/Documents/Academisch/UoC/Dissertation/Experiment/OpenSesame/NAP-FC/NAP-FC_GER_AA/GER_AA_ver-2/subject-6.csv","xpyriment","Jazzy James","3.1.6","yes","yes","5950408a6c613b0229e3e810","59504237594d9002288b1720","no","no","0","f","j","space","NA","space","space","f","662","3798","7520","NA","14554","25862","662","2","legacy","1024","1","44100","-16","experiment","zmal","22","Duesseldorf","1","0","1","German","English","6","even","Duesseldorf","743977","736163","NA","747776","743973","NA","529026","743741","529027","529027","664376","678935","787629","786125","788293","707908","705058","736163","549634","644550","734489","704855","743977","705062","NA","787629","787629","NA","NA","786121","NAP perception","10","12117","16","yes","1024"
"64.7058823529","yes","64.7058823529","757","757","white","no","xpyriment","I have read and understood the information shown above","legacy","legacy","0","uniform","1","0","0","undefined","undefined","1","j","1","0","NA","0","0","0","0","0","0","0","0","0","26","26","26","0","0","0","0","0","1","0","0","0","1","26","26","26","26","26","Wed Jun 28 18:02:03 2017","Forced-choice identification task with a practice and an experimental phase","yes","NAP-FC_GER_AA_ver-2.osexp","/Users/aviadalbert/Documents/Academisch/UoC/Dissertation/Experiment/OpenSesame/NAP-FC/NAP-FC_GER_AA/GER_AA_ver-2","yes","no","sans","no","20","no","black","no","Next","yes","768","legacy","16","9","0","/Users/aviadalbert/Documents/Academisch/UoC/Dissertation/Experiment/OpenSesame/NAP-FC/NAP-FC_GER_AA/GER_AA_ver-2/subject-6.csv","xpyriment","Jazzy James","3.1.6","yes","yes","5950408a6c613b0229e3e810","59504237594d9002288b1720","no","no","0","j","j","space","NA","space","space","j","752","3798","7520","NA","14554","25862","752","2","legacy","1024","1","44100","-16","experiment","welal","22","Duesseldorf","1","0","1","German","English","6","even","Duesseldorf","743977","736163","NA","747776","743973","NA","529026","743741","529027","529027","664376","678935","790083","788576","790837","707908","705058","736163","549634","644550","734489","704855","743977","705062","NA","790083","790083","NA","NA","788572","NAP perception","11","12869","17","yes","1024"
"66.6666666667","yes","66.6666666667","761","761","white","no","xpyriment","I have read and understood the information shown above","legacy","legacy","0","uniform","1","0","0","undefined","undefined","1","j","1","0","NA","0","0","0","0","0","0","0","0","0","27","27","27","0","0","0","0","0","1","0","0","0","1","27","27","27","27","27","Wed Jun 28 18:02:03 2017","Forced-choice identification task with a practice and an experimental phase","yes","NAP-FC_GER_AA_ver-2.osexp","/Users/aviadalbert/Documents/Academisch/UoC/Dissertation/Experiment/OpenSesame/NAP-FC/NAP-FC_GER_AA/GER_AA_ver-2","yes","no","sans","no","20","no","black","no","Next","yes","768","legacy","17","9","0","/Users/aviadalbert/Documents/Academisch/UoC/Dissertation/Experiment/OpenSesame/NAP-FC/NAP-FC_GER_AA/GER_AA_ver-2/subject-6.csv","xpyriment","Jazzy James","3.1.6","yes","yes","5950408a6c613b0229e3e810","59504237594d9002288b1720","no","no","0","j","j","space","NA","space","space","j","829","3798","7520","NA","14554","25862","829","2","legacy","1024","1","44100","-16","experiment","eflal","22","Duesseldorf","1","0","1","German","English","6","even","Duesseldorf","743977","736163","NA","747776","743973","NA","529026","743741","529027","529027","664376","678935","792610","791107","793441","707908","705058","736163","549634","644550","734489","704855","743977","705062","NA","792610","792610","NA","NA","791103","NAP perception","12","13698","18","yes","1024"
"63.1578947368","yes","63.1578947368","761.315789474","761.315789474","white","no","xpyriment","I have read and understood the information shown above","legacy","legacy","0","uniform","0","0","0","undefined","undefined","0","f","1","0","NA","0","0","0","0","0","0","0","0","0","28","28","28","0","0","0","0","0","1","0","0","0","1","28","28","28","28","28","Wed Jun 28 18:02:03 2017","Forced-choice identification task with a practice and an experimental phase","yes","NAP-FC_GER_AA_ver-2.osexp","/Users/aviadalbert/Documents/Academisch/UoC/Dissertation/Experiment/OpenSesame/NAP-FC/NAP-FC_GER_AA/GER_AA_ver-2","yes","no","sans","no","20","no","black","no","Next","yes","768","legacy","18","9","0","/Users/aviadalbert/Documents/Academisch/UoC/Dissertation/Experiment/OpenSesame/NAP-FC/NAP-FC_GER_AA/GER_AA_ver-2/subject-6.csv","xpyriment","Jazzy James","3.1.6","yes","yes","5950408a6c613b0229e3e810","59504237594d9002288b1720","no","no","0","j","j","space","NA","space","space","j","767","3798","7520","NA","14554","25862","767","2","legacy","1024","1","44100","-16","experiment","nval","22","Duesseldorf","1","0","1","German","English","6","even","Duesseldorf","743977","736163","NA","747776","743973","NA","529026","743741","529027","529027","664376","678935","795225","793721","795994","707908","705058","736163","549634","644550","734489","704855","743977","705062","NA","795225","795225","NA","NA","793717","NAP perception","12","14465","19","yes","1024"
"60","yes","60","767.8","767.8","white","no","xpyriment","I have read and understood the information shown above","legacy","legacy","0","uniform","0","0","0","undefined","undefined","0","f","1","0","NA","0","0","0","0","0","0","0","0","0","29","29","29","0","0","0","0","0","1","0","0","0","1","29","29","29","29","29","Wed Jun 28 18:02:03 2017","Forced-choice identification task with a practice and an experimental phase","yes","NAP-FC_GER_AA_ver-2.osexp","/Users/aviadalbert/Documents/Academisch/UoC/Dissertation/Experiment/OpenSesame/NAP-FC/NAP-FC_GER_AA/GER_AA_ver-2","yes","no","sans","no","20","no","black","no","Next","yes","768","legacy","19","9","0","/Users/aviadalbert/Documents/Academisch/UoC/Dissertation/Experiment/OpenSesame/NAP-FC/NAP-FC_GER_AA/GER_AA_ver-2/subject-6.csv","xpyriment","Jazzy James","3.1.6","yes","yes","5950408a6c613b0229e3e810","59504237594d9002288b1720","no","no","0","j","j","space","NA","space","space","j","891","3798","7520","NA","14554","25862","891","2","legacy","1024","1","44100","-16","experiment","fnal","22","Duesseldorf","1","0","1","German","English","6","even","Duesseldorf","743977","736163","NA","747776","743973","NA","529026","743741","529027","529027","664376","678935","797776","796273","798669","707908","705058","736163","549634","644550","734489","704855","743977","705062","NA","797776","797776","NA","NA","796269","NAP perception","12","15356","20","yes","1024"
"61.9047619048","yes","61.9047619048","777.19047619","777.19047619","white","no","xpyriment","I have read and understood the information shown above","legacy","legacy","0","uniform","1","0","0","undefined","undefined","1","f","1","0","NA","0","0","0","0","0","0","0","0","0","30","30","30","0","0","0","0","0","1","0","0","0","1","30","30","30","30","30","Wed Jun 28 18:02:03 2017","Forced-choice identification task with a practice and an experimental phase","yes","NAP-FC_GER_AA_ver-2.osexp","/Users/aviadalbert/Documents/Academisch/UoC/Dissertation/Experiment/OpenSesame/NAP-FC/NAP-FC_GER_AA/GER_AA_ver-2","yes","no","sans","no","20","no","black","no","Next","yes","768","legacy","20","9","0","/Users/aviadalbert/Documents/Academisch/UoC/Dissertation/Experiment/OpenSesame/NAP-FC/NAP-FC_GER_AA/GER_AA_ver-2/subject-6.csv","xpyriment","Jazzy James","3.1.6","yes","yes","5950408a6c613b0229e3e810","59504237594d9002288b1720","no","no","0","f","j","space","NA","space","space","f","965","3798","7520","NA","14554","25862","965","2","legacy","1024","1","44100","-16","experiment","smal","22","Duesseldorf","1","0","1","German","English","6","even","Duesseldorf","743977","736163","NA","747776","743973","NA","529026","743741","529027","529027","664376","678935","800438","798935","801404","707908","705058","736163","549634","644550","734489","704855","743977","705062","NA","800438","800438","NA","NA","798931","NAP perception","13","16321","21","yes","1024"
"63.6363636364","yes","63.6363636364","773.590909091","773.590909091","white","no","xpyriment","I have read and understood the information shown above","legacy","legacy","0","uniform","1","0","0","undefined","undefined","1","j","1","0","NA","0","0","0","0","0","0","0","0","0","31","31","31","0","0","0","0","0","1","0","0","0","1","31","31","31","31","31","Wed Jun 28 18:02:03 2017","Forced-choice identification task with a practice and an experimental phase","yes","NAP-FC_GER_AA_ver-2.osexp","/Users/aviadalbert/Documents/Academisch/UoC/Dissertation/Experiment/OpenSesame/NAP-FC/NAP-FC_GER_AA/GER_AA_ver-2","yes","no","sans","no","20","no","black","no","Next","yes","768","legacy","21","9","0","/Users/aviadalbert/Documents/Academisch/UoC/Dissertation/Experiment/OpenSesame/NAP-FC/NAP-FC_GER_AA/GER_AA_ver-2/subject-6.csv","xpyriment","Jazzy James","3.1.6","yes","yes","5950408a6c613b0229e3e810","59504237594d9002288b1720","no","no","0","j","j","space","NA","space","space","j","698","3798","7520","NA","14554","25862","698","2","legacy","1024","1","44100","-16","experiment","nemal","22","Duesseldorf","1","0","1","German","English","6","even","Duesseldorf","743977","736163","NA","747776","743973","NA","529026","743741","529027","529027","664376","678935","803177","801670","803877","707908","705058","736163","549634","644550","734489","704855","743977","705062","NA","803176","803177","NA","NA","801666","NAP perception","14","17019","22","yes","1024"
"60.8695652174","yes","60.8695652174","761.826086957","761.826086957","white","no","xpyriment","I have read and understood the information shown above","legacy","legacy","0","uniform","0","0","0","undefined","undefined","0","f","1","0","NA","0","0","0","0","0","0","0","0","0","32","32","32","0","0","0","0","0","1","0","0","0","1","32","32","32","32","32","Wed Jun 28 18:02:03 2017","Forced-choice identification task with a practice and an experimental phase","yes","NAP-FC_GER_AA_ver-2.osexp","/Users/aviadalbert/Documents/Academisch/UoC/Dissertation/Experiment/OpenSesame/NAP-FC/NAP-FC_GER_AA/GER_AA_ver-2","yes","no","sans","no","20","no","black","no","Next","yes","768","legacy","22","9","0","/Users/aviadalbert/Documents/Academisch/UoC/Dissertation/Experiment/OpenSesame/NAP-FC/NAP-FC_GER_AA/GER_AA_ver-2/subject-6.csv","xpyriment","Jazzy James","3.1.6","yes","yes","5950408a6c613b0229e3e810","59504237594d9002288b1720","no","no","0","j","j","space","NA","space","space","j","503","3798","7520","NA","14554","25862","503","2","legacy","1024","1","44100","-16","experiment","lmal","22","Duesseldorf","1","0","1","German","English","6","even","Duesseldorf","743977","736163","NA","747776","743973","NA","529026","743741","529027","529027","664376","678935","805657","804154","806162","707908","705058","736163","549634","644550","734489","704855","743977","705062","NA","805657","805657","NA","NA","804150","NAP perception","14","17522","23","yes","1024"
"58.3333333333","yes","58.3333333333","764.583333333","764.583333333","white","no","xpyriment","I have read and understood the information shown above","legacy","legacy","0","uniform","0","0","0","undefined","undefined","0","f","1","0","NA","0","0","0","0","0","0","0","0","0","33","33","33","0","0","0","0","0","1","0","0","0","1","33","33","33","33","33","Wed Jun 28 18:02:03 2017","Forced-choice identification task with a practice and an experimental phase","yes","NAP-FC_GER_AA_ver-2.osexp","/Users/aviadalbert/Documents/Academisch/UoC/Dissertation/Experiment/OpenSesame/NAP-FC/NAP-FC_GER_AA/GER_AA_ver-2","yes","no","sans","no","20","no","black","no","Next","yes","768","legacy","23","9","0","/Users/aviadalbert/Documents/Academisch/UoC/Dissertation/Experiment/OpenSesame/NAP-FC/NAP-FC_GER_AA/GER_AA_ver-2/subject-6.csv","xpyriment","Jazzy James","3.1.6","yes","yes","5950408a6c613b0229e3e810","59504237594d9002288b1720","no","no","0","j","j","space","NA","space","space","j","828","3798","7520","NA","14554","25862","828","2","legacy","1024","1","44100","-16","experiment","nmal","22","Duesseldorf","1","0","1","German","English","6","even","Duesseldorf","743977","736163","NA","747776","743973","NA","529026","743741","529027","529027","664376","678935","807945","806439","808774","707908","705058","736163","549634","644550","734489","704855","743977","705062","NA","807944","807944","NA","NA","806433","NAP perception","14","18350","24","yes","1024"
"56","yes","56","762.08","762.08","white","no","xpyriment","I have read and understood the information shown above","legacy","legacy","0","uniform","0","0","0","undefined","undefined","0","f","1","0","NA","0","0","0","0","0","0","0","0","0","34","34","34","0","0","0","0","0","1","0","0","0","1","34","34","34","34","34","Wed Jun 28 18:02:03 2017","Forced-choice identification task with a practice and an experimental phase","yes","NAP-FC_GER_AA_ver-2.osexp","/Users/aviadalbert/Documents/Academisch/UoC/Dissertation/Experiment/OpenSesame/NAP-FC/NAP-FC_GER_AA/GER_AA_ver-2","yes","no","sans","no","20","no","black","no","Next","yes","768","legacy","24","9","0","/Users/aviadalbert/Documents/Academisch/UoC/Dissertation/Experiment/OpenSesame/NAP-FC/NAP-FC_GER_AA/GER_AA_ver-2/subject-6.csv","xpyriment","Jazzy James","3.1.6","yes","yes","5950408a6c613b0229e3e810","59504237594d9002288b1720","no","no","0","j","j","space","NA","space","space","j","702","3798","7520","NA","14554","25862","702","2","legacy","1024","1","44100","-16","experiment","ʃpal","22","Duesseldorf","1","0","1","German","English","6","even","Duesseldorf","743977","736163","NA","747776","743973","NA","529026","743741","529027","529027","664376","678935","810556","809051","811259","707908","705058","736163","549634","644550","734489","704855","743977","705062","NA","810556","810556","NA","NA","809047","NAP perception","14","19052","25","yes","1024"
"57.6923076923","yes","57.6923076923","763.923076923","763.923076923","white","no","xpyriment","I have read and understood the information shown above","legacy","legacy","0","uniform","1","0","0","undefined","undefined","1","j","1","0","NA","0","0","0","0","0","0","0","0","0","35","35","35","0","0","0","0","0","1","0","0","0","1","35","35","35","35","35","Wed Jun 28 18:02:03 2017","Forced-choice identification task with a practice and an experimental phase","yes","NAP-FC_GER_AA_ver-2.osexp","/Users/aviadalbert/Documents/Academisch/UoC/Dissertation/Experiment/OpenSesame/NAP-FC/NAP-FC_GER_AA/GER_AA_ver-2","yes","no","sans","no","20","no","black","no","Next","yes","768","legacy","25","9","0","/Users/aviadalbert/Documents/Academisch/UoC/Dissertation/Experiment/OpenSesame/NAP-FC/NAP-FC_GER_AA/GER_AA_ver-2/subject-6.csv","xpyriment","Jazzy James","3.1.6","yes","yes","5950408a6c613b0229e3e810","59504237594d9002288b1720","no","no","0","j","j","space","NA","space","space","j","810","3798","7520","NA","14554","25862","810","2","legacy","1024","1","44100","-16","experiment","fetal","22","Duesseldorf","1","0","1","German","English","6","even","Duesseldorf","743977","736163","NA","747776","743973","NA","529026","743741","529027","529027","664376","678935","813035","811532","813846","707908","705058","736163","549634","644550","734489","704855","743977","705062","NA","813035","813035","NA","NA","811528","NAP perception","15","19862","26","yes","1024"
"55.5555555556","yes","55.5555555556","765.481481481","765.481481481","white","no","xpyriment","I have read and understood the information shown above","legacy","legacy","0","uniform","0","0","0","undefined","undefined","0","f","1","0","NA","0","0","0","0","0","0","0","0","0","36","36","36","0","0","0","0","0","1","0","0","0","1","36","36","36","36","36","Wed Jun 28 18:02:03 2017","Forced-choice identification task with a practice and an experimental phase","yes","NAP-FC_GER_AA_ver-2.osexp","/Users/aviadalbert/Documents/Academisch/UoC/Dissertation/Experiment/OpenSesame/NAP-FC/NAP-FC_GER_AA/GER_AA_ver-2","yes","no","sans","no","20","no","black","no","Next","yes","768","legacy","26","9","0","/Users/aviadalbert/Documents/Academisch/UoC/Dissertation/Experiment/OpenSesame/NAP-FC/NAP-FC_GER_AA/GER_AA_ver-2/subject-6.csv","xpyriment","Jazzy James","3.1.6","yes","yes","5950408a6c613b0229e3e810","59504237594d9002288b1720","no","no","0","j","j","space","NA","space","space","j","806","3798","7520","NA","14554","25862","806","2","legacy","1024","1","44100","-16","experiment","fsal","22","Duesseldorf","1","0","1","German","English","6","even","Duesseldorf","743977","736163","NA","747776","743973","NA","529026","743741","529027","529027","664376","678935","815624","814119","816431","707908","705058","736163","549634","644550","734489","704855","743977","705062","NA","815624","815624","NA","NA","814115","NAP perception","15","20668","27","yes","1024"
"53.5714285714","yes","53.5714285714","764.571428571","764.571428571","white","no","xpyriment","I have read and understood the information shown above","legacy","legacy","0","uniform","0","0","0","undefined","undefined","0","f","1","0","NA","0","0","0","0","0","0","0","0","0","37","37","37","0","0","0","0","0","1","0","0","0","1","37","37","37","37","37","Wed Jun 28 18:02:03 2017","Forced-choice identification task with a practice and an experimental phase","yes","NAP-FC_GER_AA_ver-2.osexp","/Users/aviadalbert/Documents/Academisch/UoC/Dissertation/Experiment/OpenSesame/NAP-FC/NAP-FC_GER_AA/GER_AA_ver-2","yes","no","sans","no","20","no","black","no","Next","yes","768","legacy","27","9","0","/Users/aviadalbert/Documents/Academisch/UoC/Dissertation/Experiment/OpenSesame/NAP-FC/NAP-FC_GER_AA/GER_AA_ver-2/subject-6.csv","xpyriment","Jazzy James","3.1.6","yes","yes","5950408a6c613b0229e3e810","59504237594d9002288b1720","no","no","0","j","j","space","NA","space","space","j","740","3798","7520","NA","14554","25862","740","2","legacy","1024","1","44100","-16","experiment","lval","22","Duesseldorf","1","0","1","German","English","6","even","Duesseldorf","743977","736163","NA","747776","743973","NA","529026","743741","529027","529027","664376","678935","818196","816689","818937","707908","705058","736163","549634","644550","734489","704855","743977","705062","NA","818195","818196","NA","NA","816685","NAP perception","15","21408","28","yes","1024"
"55.1724137931","yes","55.1724137931","760.551724138","760.551724138","white","no","xpyriment","I have read and understood the information shown above","legacy","legacy","0","uniform","1","0","0","undefined","undefined","1","j","1","0","NA","0","0","0","0","0","0","0","0","0","38","38","38","0","0","0","0","0","1","0","0","0","1","38","38","38","38","38","Wed Jun 28 18:02:03 2017","Forced-choice identification task with a practice and an experimental phase","yes","NAP-FC_GER_AA_ver-2.osexp","/Users/aviadalbert/Documents/Academisch/UoC/Dissertation/Experiment/OpenSesame/NAP-FC/NAP-FC_GER_AA/GER_AA_ver-2","yes","no","sans","no","20","no","black","no","Next","yes","768","legacy","28","9","0","/Users/aviadalbert/Documents/Academisch/UoC/Dissertation/Experiment/OpenSesame/NAP-FC/NAP-FC_GER_AA/GER_AA_ver-2/subject-6.csv","xpyriment","Jazzy James","3.1.6","yes","yes","5950408a6c613b0229e3e810","59504237594d9002288b1720","no","no","0","j","j","space","NA","space","space","j","648","3798","7520","NA","14554","25862","648","2","legacy","1024","1","44100","-16","experiment","leval","22","Duesseldorf","1","0","1","German","English","6","even","Duesseldorf","743977","736163","NA","747776","743973","NA","529026","743741","529027","529027","664376","678935","820722","819217","821371","707908","705058","736163","549634","644550","734489","704855","743977","705062","NA","820721","820721","NA","NA","819213","NAP perception","16","22056","29","yes","1024"
"53.3333333333","yes","53.3333333333","761.933333333","761.933333333","white","no","xpyriment","I have read and understood the information shown above","legacy","legacy","0","uniform","0","0","0","undefined","undefined","0","f","1","0","NA","0","0","0","0","0","0","0","0","0","39","39","39","0","0","0","0","0","1","0","0","0","1","39","39","39","39","39","Wed Jun 28 18:02:03 2017","Forced-choice identification task with a practice and an experimental phase","yes","NAP-FC_GER_AA_ver-2.osexp","/Users/aviadalbert/Documents/Academisch/UoC/Dissertation/Experiment/OpenSesame/NAP-FC/NAP-FC_GER_AA/GER_AA_ver-2","yes","no","sans","no","20","no","black","no","Next","yes","768","legacy","29","9","0","/Users/aviadalbert/Documents/Academisch/UoC/Dissertation/Experiment/OpenSesame/NAP-FC/NAP-FC_GER_AA/GER_AA_ver-2/subject-6.csv","xpyriment","Jazzy James","3.1.6","yes","yes","5950408a6c613b0229e3e810","59504237594d9002288b1720","no","no","0","j","j","space","NA","space","space","j","802","3798","7520","NA","14554","25862","802","2","legacy","1024","1","44100","-16","experiment","wtal","22","Duesseldorf","1","0","1","German","English","6","even","Duesseldorf","743977","736163","NA","747776","743973","NA","529026","743741","529027","529027","664376","678935","823148","821644","823951","707908","705058","736163","549634","644550","734489","704855","743977","705062","NA","823148","823148","NA","NA","821640","NAP perception","16","22858","30","yes","1024"
"54.8387096774","yes","54.8387096774","763.419354839","763.419354839","white","no","xpyriment","I have read and understood the information shown above","legacy","legacy","0","uniform","1","0","0","undefined","undefined","1","f","1","0","NA","0","0","0","0","0","0","0","0","0","40","40","40","0","0","0","0","0","1","0","0","0","1","40","40","40","40","40","Wed Jun 28 18:02:03 2017","Forced-choice identification task with a practice and an experimental phase","yes","NAP-FC_GER_AA_ver-2.osexp","/Users/aviadalbert/Documents/Academisch/UoC/Dissertation/Experiment/OpenSesame/NAP-FC/NAP-FC_GER_AA/GER_AA_ver-2","yes","no","sans","no","20","no","black","no","Next","yes","768","legacy","30","9","0","/Users/aviadalbert/Documents/Academisch/UoC/Dissertation/Experiment/OpenSesame/NAP-FC/NAP-FC_GER_AA/GER_AA_ver-2/subject-6.csv","xpyriment","Jazzy James","3.1.6","yes","yes","5950408a6c613b0229e3e810","59504237594d9002288b1720","no","no","0","f","j","space","NA","space","space","f","808","3798","7520","NA","14554","25862","808","2","legacy","1024","1","44100","-16","experiment","spal","22","Duesseldorf","1","0","1","German","English","6","even","Duesseldorf","743977","736163","NA","747776","743973","NA","529026","743741","529027","529027","664376","678935","825736","824232","826545","707908","705058","736163","549634","644550","734489","704855","743977","705062","NA","825736","825736","NA","NA","824228","NAP perception","17","23666","31","yes","1024"
"56.25","yes","56.25","761.9375","761.9375","white","no","xpyriment","I have read and understood the information shown above","legacy","legacy","0","uniform","1","0","0","undefined","undefined","1","j","1","0","NA","0","0","0","0","0","0","0","0","0","41","41","41","0","0","0","0","0","1","0","0","0","1","41","41","41","41","41","Wed Jun 28 18:02:03 2017","Forced-choice identification task with a practice and an experimental phase","yes","NAP-FC_GER_AA_ver-2.osexp","/Users/aviadalbert/Documents/Academisch/UoC/Dissertation/Experiment/OpenSesame/NAP-FC/NAP-FC_GER_AA/GER_AA_ver-2","yes","no","sans","no","20","no","black","no","Next","yes","768","legacy","31","9","0","/Users/aviadalbert/Documents/Academisch/UoC/Dissertation/Experiment/OpenSesame/NAP-FC/NAP-FC_GER_AA/GER_AA_ver-2/subject-6.csv","xpyriment","Jazzy James","3.1.6","yes","yes","5950408a6c613b0229e3e810","59504237594d9002288b1720","no","no","0","j","j","space","NA","space","space","j","716","3798","7520","NA","14554","25862","716","2","legacy","1024","1","44100","-16","experiment","jepal","22","Duesseldorf","1","0","1","German","English","6","even","Duesseldorf","743977","736163","NA","747776","743973","NA","529026","743741","529027","529027","664376","678935","828314","826810","829031","707908","705058","736163","549634","644550","734489","704855","743977","705062","NA","828314","828314","NA","NA","826806","NAP perception","18","24382","32","yes","1024"
"54.5454545455","yes","54.5454545455","765.545454545","765.545454545","white","no","xpyriment","I have read and understood the information shown above","legacy","legacy","0","uniform","0","0","0","undefined","undefined","0","f","1","0","NA","0","0","0","0","0","0","0","0","0","42","42","42","0","0","0","0","0","1","0","0","0","1","42","42","42","42","42","Wed Jun 28 18:02:03 2017","Forced-choice identification task with a practice and an experimental phase","yes","NAP-FC_GER_AA_ver-2.osexp","/Users/aviadalbert/Documents/Academisch/UoC/Dissertation/Experiment/OpenSesame/NAP-FC/NAP-FC_GER_AA/GER_AA_ver-2","yes","no","sans","no","20","no","black","no","Next","yes","768","legacy","32","9","0","/Users/aviadalbert/Documents/Academisch/UoC/Dissertation/Experiment/OpenSesame/NAP-FC/NAP-FC_GER_AA/GER_AA_ver-2/subject-6.csv","xpyriment","Jazzy James","3.1.6","yes","yes","5950408a6c613b0229e3e810","59504237594d9002288b1720","no","no","0","j","j","space","NA","space","space","j","881","3798","7520","NA","14554","25862","881","2","legacy","1024","1","44100","-16","experiment","vnal","22","Duesseldorf","1","0","1","German","English","6","even","Duesseldorf","743977","736163","NA","747776","743973","NA","529026","743741","529027","529027","664376","678935","830796","829292","831678","707908","705058","736163","549634","644550","734489","704855","743977","705062","NA","830795","830795","NA","NA","829288","NAP perception","18","25263","33","yes","1024"
"52.9411764706","yes","52.9411764706","763.676470588","763.676470588","white","no","xpyriment","I have read and understood the information shown above","legacy","legacy","0","uniform","0","0","0","undefined","undefined","0","f","1","0","NA","0","0","0","0","0","0","0","0","0","43","43","43","0","0","0","0","0","1","0","0","0","1","43","43","43","43","43","Wed Jun 28 18:02:03 2017","Forced-choice identification task with a practice and an experimental phase","yes","NAP-FC_GER_AA_ver-2.osexp","/Users/aviadalbert/Documents/Academisch/UoC/Dissertation/Experiment/OpenSesame/NAP-FC/NAP-FC_GER_AA/GER_AA_ver-2","yes","no","sans","no","20","no","black","no","Next","yes","768","legacy","33","9","0","/Users/aviadalbert/Documents/Academisch/UoC/Dissertation/Experiment/OpenSesame/NAP-FC/NAP-FC_GER_AA/GER_AA_ver-2/subject-6.csv","xpyriment","Jazzy James","3.1.6","yes","yes","5950408a6c613b0229e3e810","59504237594d9002288b1720","no","no","0","j","j","space","NA","space","space","j","702","3798","7520","NA","14554","25862","702","2","legacy","1024","1","44100","-16","experiment","lpal","22","Duesseldorf","1","0","1","German","English","6","even","Duesseldorf","743977","736163","NA","747776","743973","NA","529026","743741","529027","529027","664376","678935","833458","831954","834161","707908","705058","736163","549634","644550","734489","704855","743977","705062","NA","833457","833458","NA","NA","831950","NAP perception","18","25965","34","yes","1024"
"51.4285714286","yes","51.4285714286","761.971428571","761.971428571","white","no","xpyriment","I have read and understood the information shown above","legacy","legacy","0","uniform","0","0","0","undefined","undefined","0","f","1","0","NA","0","0","0","0","0","0","0","0","0","44","44","44","0","0","0","0","0","1","0","0","0","1","44","44","44","44","44","Wed Jun 28 18:02:03 2017","Forced-choice identification task with a practice and an experimental phase","yes","NAP-FC_GER_AA_ver-2.osexp","/Users/aviadalbert/Documents/Academisch/UoC/Dissertation/Experiment/OpenSesame/NAP-FC/NAP-FC_GER_AA/GER_AA_ver-2","yes","no","sans","no","20","no","black","no","Next","yes","768","legacy","34","9","0","/Users/aviadalbert/Documents/Academisch/UoC/Dissertation/Experiment/OpenSesame/NAP-FC/NAP-FC_GER_AA/GER_AA_ver-2/subject-6.csv","xpyriment","Jazzy James","3.1.6","yes","yes","5950408a6c613b0229e3e810","59504237594d9002288b1720","no","no","0","j","j","space","NA","space","space","j","704","3798","7520","NA","14554","25862","704","2","legacy","1024","1","44100","-16","experiment","vzal","22","Duesseldorf","1","0","1","German","English","6","even","Duesseldorf","743977","736163","NA","747776","743973","NA","529026","743741","529027","529027","664376","678935","835937","834430","836642","707908","705058","736163","549634","644550","734489","704855","743977","705062","NA","835937","835937","NA","NA","834426","NAP perception","18","26669","35","yes","1024"
"52.7777777778","yes","52.7777777778","761.666666667","761.666666667","white","no","xpyriment","I have read and understood the information shown above","legacy","legacy","0","uniform","1","0","0","undefined","undefined","1","j","1","0","NA","0","0","0","0","0","0","0","0","0","45","45","45","0","0","0","0","0","1","0","0","0","1","45","45","45","45","45","Wed Jun 28 18:02:03 2017","Forced-choice identification task with a practice and an experimental phase","yes","NAP-FC_GER_AA_ver-2.osexp","/Users/aviadalbert/Documents/Academisch/UoC/Dissertation/Experiment/OpenSesame/NAP-FC/NAP-FC_GER_AA/GER_AA_ver-2","yes","no","sans","no","20","no","black","no","Next","yes","768","legacy","35","9","0","/Users/aviadalbert/Documents/Academisch/UoC/Dissertation/Experiment/OpenSesame/NAP-FC/NAP-FC_GER_AA/GER_AA_ver-2/subject-6.csv","xpyriment","Jazzy James","3.1.6","yes","yes","5950408a6c613b0229e3e810","59504237594d9002288b1720","no","no","0","j","j","space","NA","space","space","j","751","3798","7520","NA","14554","25862","751","2","legacy","1024","1","44100","-16","experiment","emnal","22","Duesseldorf","1","0","1","German","English","6","even","Duesseldorf","743977","736163","NA","747776","743973","NA","529026","743741","529027","529027","664376","678935","838416","836912","839168","707908","705058","736163","549634","644550","734489","704855","743977","705062","NA","838415","838416","NA","NA","836908","NAP perception","19","27420","36","yes","1024"
"54.0540540541","yes","54.0540540541","764.891891892","764.891891892","white","no","xpyriment","I have read and understood the information shown above","legacy","legacy","0","uniform","1","0","0","undefined","undefined","1","f","1","0","NA","0","0","0","0","0","0","0","0","0","46","46","46","0","0","0","0","0","1","0","0","0","1","46","46","46","46","46","Wed Jun 28 18:02:03 2017","Forced-choice identification task with a practice and an experimental phase","yes","NAP-FC_GER_AA_ver-2.osexp","/Users/aviadalbert/Documents/Academisch/UoC/Dissertation/Experiment/OpenSesame/NAP-FC/NAP-FC_GER_AA/GER_AA_ver-2","yes","no","sans","no","20","no","black","no","Next","yes","768","legacy","36","9","0","/Users/aviadalbert/Documents/Academisch/UoC/Dissertation/Experiment/OpenSesame/NAP-FC/NAP-FC_GER_AA/GER_AA_ver-2/subject-6.csv","xpyriment","Jazzy James","3.1.6","yes","yes","5950408a6c613b0229e3e810","59504237594d9002288b1720","no","no","0","f","j","space","NA","space","space","f","881","3798","7520","NA","14554","25862","881","2","legacy","1024","1","44100","-16","experiment","mnal","22","Duesseldorf","1","0","1","German","English","6","even","Duesseldorf","743977","736163","NA","747776","743973","NA","529026","743741","529027","529027","664376","678935","840942","839439","841825","707908","705058","736163","549634","644550","734489","704855","743977","705062","NA","840942","840942","NA","NA","839435","NAP perception","20","28301","37","yes","1024"
"52.6315789474","yes","52.6315789474","775.236842105","775.236842105","white","no","xpyriment","I have read and understood the information shown above","legacy","legacy","0","uniform","0","0","0","undefined","undefined","0","j","1","0","NA","0","0","0","0","0","0","0","0","0","47","47","47","0","0","0","0","0","1","0","0","0","1","47","47","47","47","47","Wed Jun 28 18:02:03 2017","Forced-choice identification task with a practice and an experimental phase","yes","NAP-FC_GER_AA_ver-2.osexp","/Users/aviadalbert/Documents/Academisch/UoC/Dissertation/Experiment/OpenSesame/NAP-FC/NAP-FC_GER_AA/GER_AA_ver-2","yes","no","sans","no","20","no","black","no","Next","yes","768","legacy","37","9","0","/Users/aviadalbert/Documents/Academisch/UoC/Dissertation/Experiment/OpenSesame/NAP-FC/NAP-FC_GER_AA/GER_AA_ver-2/subject-6.csv","xpyriment","Jazzy James","3.1.6","yes","yes","5950408a6c613b0229e3e810","59504237594d9002288b1720","no","no","0","f","j","space","NA","space","space","f","1158","3798","7520","NA","14554","25862","1158","2","legacy","1024","1","44100","-16","experiment","elfal","22","Duesseldorf","1","0","1","German","English","6","even","Duesseldorf","743977","736163","NA","747776","743973","NA","529026","743741","529027","529027","664376","678935","843607","842099","844767","707908","705058","736163","549634","644550","734489","704855","743977","705062","NA","843607","843607","NA","NA","842095","NAP perception","20","29459","38","yes","1024"
"51.2820512821","yes","51.2820512821","779.512820513","779.512820513","white","no","xpyriment","I have read and understood the information shown above","legacy","legacy","0","uniform","0","0","0","undefined","undefined","0","f","1","0","NA","0","0","0","0","0","0","0","0","0","48","48","48","0","0","0","0","0","1","0","0","0","1","48","48","48","48","48","Wed Jun 28 18:02:03 2017","Forced-choice identification task with a practice and an experimental phase","yes","NAP-FC_GER_AA_ver-2.osexp","/Users/aviadalbert/Documents/Academisch/UoC/Dissertation/Experiment/OpenSesame/NAP-FC/NAP-FC_GER_AA/GER_AA_ver-2","yes","no","sans","no","20","no","black","no","Next","yes","768","legacy","38","9","0","/Users/aviadalbert/Documents/Academisch/UoC/Dissertation/Experiment/OpenSesame/NAP-FC/NAP-FC_GER_AA/GER_AA_ver-2/subject-6.csv","xpyriment","Jazzy James","3.1.6","yes","yes","5950408a6c613b0229e3e810","59504237594d9002288b1720","no","no","0","j","j","space","NA","space","space","j","942","3798","7520","NA","14554","25862","942","2","legacy","1024","1","44100","-16","experiment","mtal","22","Duesseldorf","1","0","1","German","English","6","even","Duesseldorf","743977","736163","NA","747776","743973","NA","529026","743741","529027","529027","664376","678935","846563","845060","847508","707908","705058","736163","549634","644550","734489","704855","743977","705062","NA","846563","846563","NA","NA","845055","NAP perception","20","30401","39","yes","1024"
"50","yes","50","778.4","778.4","white","no","xpyriment","I have read and understood the information shown above","legacy","legacy","0","uniform","0","0","0","undefined","undefined","0","f","1","0","NA","0","0","0","0","0","0","0","0","0","49","49","49","0","0","0","0","0","1","0","0","0","1","49","49","49","49","49","Wed Jun 28 18:02:03 2017","Forced-choice identification task with a practice and an experimental phase","yes","NAP-FC_GER_AA_ver-2.osexp","/Users/aviadalbert/Documents/Academisch/UoC/Dissertation/Experiment/OpenSesame/NAP-FC/NAP-FC_GER_AA/GER_AA_ver-2","yes","no","sans","no","20","no","black","no","Next","yes","768","legacy","39","9","0","/Users/aviadalbert/Documents/Academisch/UoC/Dissertation/Experiment/OpenSesame/NAP-FC/NAP-FC_GER_AA/GER_AA_ver-2/subject-6.csv","xpyriment","Jazzy James","3.1.6","yes","yes","5950408a6c613b0229e3e810","59504237594d9002288b1720","no","no","0","j","j","space","NA","space","space","j","735","3798","7520","NA","14554","25862","735","2","legacy","1024","1","44100","-16","experiment","wsal","22","Duesseldorf","1","0","1","German","English","6","even","Duesseldorf","743977","736163","NA","747776","743973","NA","529026","743741","529027","529027","664376","678935","849291","847788","850028","707908","705058","736163","549634","644550","734489","704855","743977","705062","NA","849291","849291","NA","NA","847784","NAP perception","20","31136","40","yes","1024"
"48.7804878049","yes","48.7804878049","777.024390244","777.024390244","white","no","xpyriment","I have read and understood the information shown above","legacy","legacy","0","uniform","0","0","0","undefined","undefined","0","f","1","0","NA","0","0","0","0","0","0","0","0","0","50","50","50","0","0","0","0","0","1","0","0","0","1","50","50","50","50","50","Wed Jun 28 18:02:03 2017","Forced-choice identification task with a practice and an experimental phase","yes","NAP-FC_GER_AA_ver-2.osexp","/Users/aviadalbert/Documents/Academisch/UoC/Dissertation/Experiment/OpenSesame/NAP-FC/NAP-FC_GER_AA/GER_AA_ver-2","yes","no","sans","no","20","no","black","no","Next","yes","768","legacy","40","9","0","/Users/aviadalbert/Documents/Academisch/UoC/Dissertation/Experiment/OpenSesame/NAP-FC/NAP-FC_GER_AA/GER_AA_ver-2/subject-6.csv","xpyriment","Jazzy James","3.1.6","yes","yes","5950408a6c613b0229e3e810","59504237594d9002288b1720","no","no","0","j","j","space","NA","space","space","j","722","3798","7520","NA","14554","25862","722","2","legacy","1024","1","44100","-16","experiment","vlal","22","Duesseldorf","1","0","1","German","English","6","even","Duesseldorf","743977","736163","NA","747776","743973","NA","529026","743741","529027","529027","664376","678935","851797","850291","852521","707908","705058","736163","549634","644550","734489","704855","743977","705062","NA","851796","851797","NA","NA","850287","NAP perception","20","31858","41","yes","1024"
"50","yes","50","777.976190476","777.976190476","white","no","xpyriment","I have read and understood the information shown above","legacy","legacy","0","uniform","1","0","0","undefined","undefined","1","j","1","0","NA","0","0","0","0","0","0","0","0","0","51","51","51","0","0","0","0","0","1","0","0","0","1","51","51","51","51","51","Wed Jun 28 18:02:03 2017","Forced-choice identification task with a practice and an experimental phase","yes","NAP-FC_GER_AA_ver-2.osexp","/Users/aviadalbert/Documents/Academisch/UoC/Dissertation/Experiment/OpenSesame/NAP-FC/NAP-FC_GER_AA/GER_AA_ver-2","yes","no","sans","no","20","no","black","no","Next","yes","768","legacy","41","9","0","/Users/aviadalbert/Documents/Academisch/UoC/Dissertation/Experiment/OpenSesame/NAP-FC/NAP-FC_GER_AA/GER_AA_ver-2/subject-6.csv","xpyriment","Jazzy James","3.1.6","yes","yes","5950408a6c613b0229e3e810","59504237594d9002288b1720","no","no","0","j","j","space","NA","space","space","j","817","3798","7520","NA","14554","25862","817","2","legacy","1024","1","44100","-16","experiment","jeval","22","Duesseldorf","1","0","1","German","English","6","even","Duesseldorf","743977","736163","NA","747776","743973","NA","529026","743741","529027","529027","664376","678935","854305","852800","855124","707908","705058","736163","549634","644550","734489","704855","743977","705062","NA","854305","854305","NA","NA","852796","NAP perception","21","32675","42","yes","1024"
"51.1627906977","yes","51.1627906977","777.488372093","777.488372093","white","no","xpyriment","I have read and understood the information shown above","legacy","legacy","0","uniform","1","0","0","undefined","undefined","1","j","1","0","NA","0","0","0","0","0","0","0","0","0","52","52","52","0","0","0","0","0","1","0","0","0","1","52","52","52","52","52","Wed Jun 28 18:02:03 2017","Forced-choice identification task with a practice and an experimental phase","yes","NAP-FC_GER_AA_ver-2.osexp","/Users/aviadalbert/Documents/Academisch/UoC/Dissertation/Experiment/OpenSesame/NAP-FC/NAP-FC_GER_AA/GER_AA_ver-2","yes","no","sans","no","20","no","black","no","Next","yes","768","legacy","42","9","0","/Users/aviadalbert/Documents/Academisch/UoC/Dissertation/Experiment/OpenSesame/NAP-FC/NAP-FC_GER_AA/GER_AA_ver-2/subject-6.csv","xpyriment","Jazzy James","3.1.6","yes","yes","5950408a6c613b0229e3e810","59504237594d9002288b1720","no","no","0","j","j","space","NA","space","space","j","757","3798","7520","NA","14554","25862","757","2","legacy","1024","1","44100","-16","experiment","wesal","22","Duesseldorf","1","0","1","German","English","6","even","Duesseldorf","743977","736163","NA","747776","743973","NA","529026","743741","529027","529027","664376","678935","856898","855395","857657","707908","705058","736163","549634","644550","734489","704855","743977","705062","NA","856898","856898","NA","NA","855391","NAP perception","22","33432","43","yes","1024"
"52.2727272727","yes","52.2727272727","778.954545455","778.954545455","white","no","xpyriment","I have read and understood the information shown above","legacy","legacy","0","uniform","1","0","0","undefined","undefined","1","j","1","0","NA","0","0","0","0","0","0","0","0","0","53","53","53","0","0","0","0","0","1","0","0","0","1","53","53","53","53","53","Wed Jun 28 18:02:03 2017","Forced-choice identification task with a practice and an experimental phase","yes","NAP-FC_GER_AA_ver-2.osexp","/Users/aviadalbert/Documents/Academisch/UoC/Dissertation/Experiment/OpenSesame/NAP-FC/NAP-FC_GER_AA/GER_AA_ver-2","yes","no","sans","no","20","no","black","no","Next","yes","768","legacy","43","9","0","/Users/aviadalbert/Documents/Academisch/UoC/Dissertation/Experiment/OpenSesame/NAP-FC/NAP-FC_GER_AA/GER_AA_ver-2/subject-6.csv","xpyriment","Jazzy James","3.1.6","yes","yes","5950408a6c613b0229e3e810","59504237594d9002288b1720","no","no","0","j","j","space","NA","space","space","j","842","3798","7520","NA","14554","25862","842","2","legacy","1024","1","44100","-16","experiment","efsal","22","Duesseldorf","1","0","1","German","English","6","even","Duesseldorf","743977","736163","NA","747776","743973","NA","529026","743741","529027","529027","664376","678935","859416","857913","860260","707908","705058","736163","549634","644550","734489","704855","743977","705062","NA","859416","859416","NA","NA","857909","NAP perception","23","34274","44","yes","1024"
"51.1111111111","yes","51.1111111111","777.8","777.8","white","no","xpyriment","I have read and understood the information shown above","legacy","legacy","0","uniform","0","0","0","undefined","undefined","0","f","1","0","NA","0","0","0","0","0","0","0","0","0","54","54","54","0","0","0","0","0","1","0","0","0","1","54","54","54","54","54","Wed Jun 28 18:02:03 2017","Forced-choice identification task with a practice and an experimental phase","yes","NAP-FC_GER_AA_ver-2.osexp","/Users/aviadalbert/Documents/Academisch/UoC/Dissertation/Experiment/OpenSesame/NAP-FC/NAP-FC_GER_AA/GER_AA_ver-2","yes","no","sans","no","20","no","black","no","Next","yes","768","legacy","44","9","0","/Users/aviadalbert/Documents/Academisch/UoC/Dissertation/Experiment/OpenSesame/NAP-FC/NAP-FC_GER_AA/GER_AA_ver-2/subject-6.csv","xpyriment","Jazzy James","3.1.6","yes","yes","5950408a6c613b0229e3e810","59504237594d9002288b1720","no","no","0","j","j","space","NA","space","space","j","727","3798","7520","NA","14554","25862","727","2","legacy","1024","1","44100","-16","experiment","jfal","22","Duesseldorf","1","0","1","German","English","6","even","Duesseldorf","743977","736163","NA","747776","743973","NA","529026","743741","529027","529027","664376","678935","862040","860536","862769","707908","705058","736163","549634","644550","734489","704855","743977","705062","NA","862040","862040","NA","NA","860532","NAP perception","23","35001","45","yes","1024"
"52.1739130435","yes","52.1739130435","772.673913043","772.673913043","white","no","xpyriment","I have read and understood the information shown above","legacy","legacy","0","uniform","1","0","0","undefined","undefined","1","j","1","0","NA","0","0","0","0","0","0","0","0","0","55","55","55","0","0","0","0","0","1","0","0","0","1","55","55","55","55","55","Wed Jun 28 18:02:03 2017","Forced-choice identification task with a practice and an experimental phase","yes","NAP-FC_GER_AA_ver-2.osexp","/Users/aviadalbert/Documents/Academisch/UoC/Dissertation/Experiment/OpenSesame/NAP-FC/NAP-FC_GER_AA/GER_AA_ver-2","yes","no","sans","no","20","no","black","no","Next","yes","768","legacy","45","9","0","/Users/aviadalbert/Documents/Academisch/UoC/Dissertation/Experiment/OpenSesame/NAP-FC/NAP-FC_GER_AA/GER_AA_ver-2/subject-6.csv","xpyriment","Jazzy James","3.1.6","yes","yes","5950408a6c613b0229e3e810","59504237594d9002288b1720","no","no","0","j","j","space","NA","space","space","j","542","3798","7520","NA","14554","25862","542","2","legacy","1024","1","44100","-16","experiment","ʃemal","22","Duesseldorf","1","0","1","German","English","6","even","Duesseldorf","743977","736163","NA","747776","743973","NA","529026","743741","529027","529027","664376","678935","864536","863032","865080","707908","705058","736163","549634","644550","734489","704855","743977","705062","NA","864535","864536","NA","NA","863028","NAP perception","24","35543","46","yes","1024"
"53.1914893617","yes","53.1914893617","768.85106383","768.85106383","white","no","xpyriment","I have read and understood the information shown above","legacy","legacy","0","uniform","1","0","0","undefined","undefined","1","j","1","0","NA","0","0","0","0","0","0","0","0","0","56","56","56","0","0","0","0","0","1","0","0","0","1","56","56","56","56","56","Wed Jun 28 18:02:03 2017","Forced-choice identification task with a practice and an experimental phase","yes","NAP-FC_GER_AA_ver-2.osexp","/Users/aviadalbert/Documents/Academisch/UoC/Dissertation/Experiment/OpenSesame/NAP-FC/NAP-FC_GER_AA/GER_AA_ver-2","yes","no","sans","no","20","no","black","no","Next","yes","768","legacy","46","9","0","/Users/aviadalbert/Documents/Academisch/UoC/Dissertation/Experiment/OpenSesame/NAP-FC/NAP-FC_GER_AA/GER_AA_ver-2/subject-6.csv","xpyriment","Jazzy James","3.1.6","yes","yes","5950408a6c613b0229e3e810","59504237594d9002288b1720","no","no","0","j","j","space","NA","space","space","j","593","3798","7520","NA","14554","25862","593","2","legacy","1024","1","44100","-16","experiment","wezal","22","Duesseldorf","1","0","1","German","English","6","even","Duesseldorf","743977","736163","NA","747776","743973","NA","529026","743741","529027","529027","664376","678935","866844","865339","867440","707908","705058","736163","549634","644550","734489","704855","743977","705062","NA","866844","866844","NA","NA","865335","NAP perception","25","36136","47","yes","1024"
"54.1666666667","yes","54.1666666667","769.041666667","769.041666667","white","no","xpyriment","I have read and understood the information shown above","legacy","legacy","0","uniform","1","0","0","undefined","undefined","1","j","1","0","NA","0","0","0","0","0","0","0","0","0","57","57","57","0","0","0","0","0","1","0","0","0","1","57","57","57","57","57","Wed Jun 28 18:02:03 2017","Forced-choice identification task with a practice and an experimental phase","yes","NAP-FC_GER_AA_ver-2.osexp","/Users/aviadalbert/Documents/Academisch/UoC/Dissertation/Experiment/OpenSesame/NAP-FC/NAP-FC_GER_AA/GER_AA_ver-2","yes","no","sans","no","20","no","black","no","Next","yes","768","legacy","47","9","0","/Users/aviadalbert/Documents/Academisch/UoC/Dissertation/Experiment/OpenSesame/NAP-FC/NAP-FC_GER_AA/GER_AA_ver-2/subject-6.csv","xpyriment","Jazzy James","3.1.6","yes","yes","5950408a6c613b0229e3e810","59504237594d9002288b1720","no","no","0","j","j","space","NA","space","space","j","778","3798","7520","NA","14554","25862","778","2","legacy","1024","1","44100","-16","experiment","eʃfal","22","Duesseldorf","1","0","1","German","English","6","even","Duesseldorf","743977","736163","NA","747776","743973","NA","529026","743741","529027","529027","664376","678935","869218","867710","869997","707908","705058","736163","549634","644550","734489","704855","743977","705062","NA","869217","869217","NA","NA","867707","NAP perception","26","36914","48","yes","1024"
"53.0612244898","yes","53.0612244898","768.428571429","768.428571429","white","no","xpyriment","I have read and understood the information shown above","legacy","legacy","0","uniform","0","0","0","undefined","undefined","0","j","1","0","NA","0","0","0","0","0","0","0","0","0","58","58","58","0","0","0","0","0","1","0","0","0","1","58","58","58","58","58","Wed Jun 28 18:02:03 2017","Forced-choice identification task with a practice and an experimental phase","yes","NAP-FC_GER_AA_ver-2.osexp","/Users/aviadalbert/Documents/Academisch/UoC/Dissertation/Experiment/OpenSesame/NAP-FC/NAP-FC_GER_AA/GER_AA_ver-2","yes","no","sans","no","20","no","black","no","Next","yes","768","legacy","48","9","0","/Users/aviadalbert/Documents/Academisch/UoC/Dissertation/Experiment/OpenSesame/NAP-FC/NAP-FC_GER_AA/GER_AA_ver-2/subject-6.csv","xpyriment","Jazzy James","3.1.6","yes","yes","5950408a6c613b0229e3e810","59504237594d9002288b1720","no","no","0","f","j","space","NA","space","space","f","739","3798","7520","NA","14554","25862","739","2","legacy","1024","1","44100","-16","experiment","metal","22","Duesseldorf","1","0","1","German","English","6","even","Duesseldorf","743977","736163","NA","747776","743973","NA","529026","743741","529027","529027","664376","678935","871766","870261","872506","707908","705058","736163","549634","644550","734489","704855","743977","705062","NA","871766","871766","NA","NA","870257","NAP perception","26","37653","49","yes","1024"
"54","yes","54","767.42","767.42","white","no","xpyriment","I have read and understood the information shown above","legacy","legacy","0","uniform","1","0","0","undefined","undefined","1","j","1","0","NA","0","0","0","0","0","0","0","0","0","59","59","59","0","0","0","0","0","1","0","0","0","1","59","59","59","59","59","Wed Jun 28 18:02:03 2017","Forced-choice identification task with a practice and an experimental phase","yes","NAP-FC_GER_AA_ver-2.osexp","/Users/aviadalbert/Documents/Academisch/UoC/Dissertation/Experiment/OpenSesame/NAP-FC/NAP-FC_GER_AA/GER_AA_ver-2","yes","no","sans","no","20","no","black","no","Next","yes","768","legacy","49","9","0","/Users/aviadalbert/Documents/Academisch/UoC/Dissertation/Experiment/OpenSesame/NAP-FC/NAP-FC_GER_AA/GER_AA_ver-2/subject-6.csv","xpyriment","Jazzy James","3.1.6","yes","yes","5950408a6c613b0229e3e810","59504237594d9002288b1720","no","no","0","j","j","space","NA","space","space","j","718","3798","7520","NA","14554","25862","718","2","legacy","1024","1","44100","-16","experiment","nefal","22","Duesseldorf","1","0","1","German","English","6","even","Duesseldorf","743977","736163","NA","747776","743973","NA","529026","743741","529027","529027","664376","678935","874279","872776","874998","707908","705058","736163","549634","644550","734489","704855","743977","705062","NA","874279","874279","NA","NA","872772","NAP perception","27","38371","50","yes","1024"
"52.9411764706","yes","52.9411764706","768.333333333","768.333333333","white","no","xpyriment","I have read and understood the information shown above","legacy","legacy","0","uniform","0","0","0","undefined","undefined","0","f","1","0","NA","0","0","0","0","0","0","0","0","0","60","60","60","0","0","0","0","0","1","0","0","0","1","60","60","60","60","60","Wed Jun 28 18:02:03 2017","Forced-choice identification task with a practice and an experimental phase","yes","NAP-FC_GER_AA_ver-2.osexp","/Users/aviadalbert/Documents/Academisch/UoC/Dissertation/Experiment/OpenSesame/NAP-FC/NAP-FC_GER_AA/GER_AA_ver-2","yes","no","sans","no","20","no","black","no","Next","yes","768","legacy","50","9","0","/Users/aviadalbert/Documents/Academisch/UoC/Dissertation/Experiment/OpenSesame/NAP-FC/NAP-FC_GER_AA/GER_AA_ver-2/subject-6.csv","xpyriment","Jazzy James","3.1.6","yes","yes","5950408a6c613b0229e3e810","59504237594d9002288b1720","no","no","0","j","j","space","NA","space","space","j","814","3798","7520","NA","14554","25862","814","2","legacy","1024","1","44100","-16","experiment","mlal","22","Duesseldorf","1","0","1","German","English","6","even","Duesseldorf","743977","736163","NA","747776","743973","NA","529026","743741","529027","529027","664376","678935","876762","875259","877578","707908","705058","736163","549634","644550","734489","704855","743977","705062","NA","876762","876762","NA","NA","875255","NAP perception","27","39185","51","yes","1024"
"53.8461538462","yes","53.8461538462","766.769230769","766.769230769","white","no","xpyriment","I have read and understood the information shown above","legacy","legacy","0","uniform","1","0","0","undefined","undefined","1","j","1","0","NA","0","0","0","0","0","0","0","0","0","61","61","61","0","0","0","0","0","1","0","0","0","1","61","61","61","61","61","Wed Jun 28 18:02:03 2017","Forced-choice identification task with a practice and an experimental phase","yes","NAP-FC_GER_AA_ver-2.osexp","/Users/aviadalbert/Documents/Academisch/UoC/Dissertation/Experiment/OpenSesame/NAP-FC/NAP-FC_GER_AA/GER_AA_ver-2","yes","no","sans","no","20","no","black","no","Next","yes","768","legacy","51","9","0","/Users/aviadalbert/Documents/Academisch/UoC/Dissertation/Experiment/OpenSesame/NAP-FC/NAP-FC_GER_AA/GER_AA_ver-2/subject-6.csv","xpyriment","Jazzy James","3.1.6","yes","yes","5950408a6c613b0229e3e810","59504237594d9002288b1720","no","no","0","j","j","space","NA","space","space","j","687","3798","7520","NA","14554","25862","687","2","legacy","1024","1","44100","-16","experiment","evzal","22","Duesseldorf","1","0","1","German","English","6","even","Duesseldorf","743977","736163","NA","747776","743973","NA","529026","743741","529027","529027","664376","678935","879363","877859","880051","707908","705058","736163","549634","644550","734489","704855","743977","705062","NA","879363","879363","NA","NA","877856","NAP perception","28","39872","52","yes","1024"
"54.7169811321","yes","54.7169811321","763.962264151","763.962264151","white","no","xpyriment","I have read and understood the information shown above","legacy","legacy","0","uniform","1","0","0","undefined","undefined","1","j","1","0","NA","0","0","0","0","0","0","0","0","0","62","62","62","0","0","0","0","0","1","0","0","0","1","62","62","62","62","62","Wed Jun 28 18:02:03 2017","Forced-choice identification task with a practice and an experimental phase","yes","NAP-FC_GER_AA_ver-2.osexp","/Users/aviadalbert/Documents/Academisch/UoC/Dissertation/Experiment/OpenSesame/NAP-FC/NAP-FC_GER_AA/GER_AA_ver-2","yes","no","sans","no","20","no","black","no","Next","yes","768","legacy","52","9","0","/Users/aviadalbert/Documents/Academisch/UoC/Dissertation/Experiment/OpenSesame/NAP-FC/NAP-FC_GER_AA/GER_AA_ver-2/subject-6.csv","xpyriment","Jazzy James","3.1.6","yes","yes","5950408a6c613b0229e3e810","59504237594d9002288b1720","no","no","0","j","j","space","NA","space","space","j","618","3798","7520","NA","14554","25862","618","2","legacy","1024","1","44100","-16","experiment","esmal","22","Duesseldorf","1","0","1","German","English","6","even","Duesseldorf","743977","736163","NA","747776","743973","NA","529026","743741","529027","529027","664376","678935","881836","880332","882455","707908","705058","736163","549634","644550","734489","704855","743977","705062","NA","881836","881836","NA","NA","880328","NAP perception","29","40490","53","yes","1024"
"53.7037037037","yes","53.7037037037","760.62962963","760.62962963","white","no","xpyriment","I have read and understood the information shown above","legacy","legacy","0","uniform","0","0","0","undefined","undefined","0","f","1","0","NA","0","0","0","0","0","0","0","0","0","63","63","63","0","0","0","0","0","1","0","0","0","1","63","63","63","63","63","Wed Jun 28 18:02:03 2017","Forced-choice identification task with a practice and an experimental phase","yes","NAP-FC_GER_AA_ver-2.osexp","/Users/aviadalbert/Documents/Academisch/UoC/Dissertation/Experiment/OpenSesame/NAP-FC/NAP-FC_GER_AA/GER_AA_ver-2","yes","no","sans","no","20","no","black","no","Next","yes","768","legacy","53","9","0","/Users/aviadalbert/Documents/Academisch/UoC/Dissertation/Experiment/OpenSesame/NAP-FC/NAP-FC_GER_AA/GER_AA_ver-2/subject-6.csv","xpyriment","Jazzy James","3.1.6","yes","yes","5950408a6c613b0229e3e810","59504237594d9002288b1720","no","no","0","j","j","space","NA","space","space","j","584","3798","7520","NA","14554","25862","584","2","legacy","1024","1","44100","-16","experiment","flal","22","Duesseldorf","1","0","1","German","English","6","even","Duesseldorf","743977","736163","NA","747776","743973","NA","529026","743741","529027","529027","664376","678935","884213","882707","884798","707908","705058","736163","549634","644550","734489","704855","743977","705062","NA","884213","884213","NA","NA","882703","NAP perception","29","41074","54","yes","1024"
"54.5454545455","yes","54.5454545455","758.709090909","758.709090909","white","no","xpyriment","I have read and understood the information shown above","legacy","legacy","0","uniform","1","0","0","undefined","undefined","1","j","1","0","NA","0","0","0","0","0","0","0","0","0","64","64","64","0","0","0","0","0","1","0","0","0","1","64","64","64","64","64","Wed Jun 28 18:02:03 2017","Forced-choice identification task with a practice and an experimental phase","yes","NAP-FC_GER_AA_ver-2.osexp","/Users/aviadalbert/Documents/Academisch/UoC/Dissertation/Experiment/OpenSesame/NAP-FC/NAP-FC_GER_AA/GER_AA_ver-2","yes","no","sans","no","20","no","black","no","Next","yes","768","legacy","54","9","0","/Users/aviadalbert/Documents/Academisch/UoC/Dissertation/Experiment/OpenSesame/NAP-FC/NAP-FC_GER_AA/GER_AA_ver-2/subject-6.csv","xpyriment","Jazzy James","3.1.6","yes","yes","5950408a6c613b0229e3e810","59504237594d9002288b1720","no","no","0","j","j","space","NA","space","space","j","655","3798","7520","NA","14554","25862","655","2","legacy","1024","1","44100","-16","experiment","ʃepal","22","Duesseldorf","1","0","1","German","English","6","even","Duesseldorf","743977","736163","NA","747776","743973","NA","529026","743741","529027","529027","664376","678935","886576","885072","887232","707908","705058","736163","549634","644550","734489","704855","743977","705062","NA","886576","886576","NA","NA","885068","NAP perception","30","41729","55","yes","1024"
"53.5714285714","yes","53.5714285714","756.535714286","756.535714286","white","no","xpyriment","I have read and understood the information shown above","legacy","legacy","0","uniform","0","0","0","undefined","undefined","0","f","1","0","NA","0","0","0","0","0","0","0","0","0","65","65","65","0","0","0","0","0","1","0","0","0","1","65","65","65","65","65","Wed Jun 28 18:02:03 2017","Forced-choice identification task with a practice and an experimental phase","yes","NAP-FC_GER_AA_ver-2.osexp","/Users/aviadalbert/Documents/Academisch/UoC/Dissertation/Experiment/OpenSesame/NAP-FC/NAP-FC_GER_AA/GER_AA_ver-2","yes","no","sans","no","20","no","black","no","Next","yes","768","legacy","55","9","0","/Users/aviadalbert/Documents/Academisch/UoC/Dissertation/Experiment/OpenSesame/NAP-FC/NAP-FC_GER_AA/GER_AA_ver-2/subject-6.csv","xpyriment","Jazzy James","3.1.6","yes","yes","5950408a6c613b0229e3e810","59504237594d9002288b1720","no","no","0","j","j","space","NA","space","space","j","637","3798","7520","NA","14554","25862","637","2","legacy","1024","1","44100","-16","experiment","sfal","22","Duesseldorf","1","0","1","German","English","6","even","Duesseldorf","743977","736163","NA","747776","743973","NA","529026","743741","529027","529027","664376","678935","888991","887487","889629","707908","705058","736163","549634","644550","734489","704855","743977","705062","NA","888991","888991","NA","NA","887483","NAP perception","30","42366","56","yes","1024"
"52.6315789474","yes","52.6315789474","753.736842105","753.736842105","white","no","xpyriment","I have read and understood the information shown above","legacy","legacy","0","uniform","0","0","0","undefined","undefined","0","f","1","0","NA","0","0","0","0","0","0","0","0","0","66","66","66","0","0","0","0","0","1","0","0","0","1","66","66","66","66","66","Wed Jun 28 18:02:03 2017","Forced-choice identification task with a practice and an experimental phase","yes","NAP-FC_GER_AA_ver-2.osexp","/Users/aviadalbert/Documents/Academisch/UoC/Dissertation/Experiment/OpenSesame/NAP-FC/NAP-FC_GER_AA/GER_AA_ver-2","yes","no","sans","no","20","no","black","no","Next","yes","768","legacy","56","9","0","/Users/aviadalbert/Documents/Academisch/UoC/Dissertation/Experiment/OpenSesame/NAP-FC/NAP-FC_GER_AA/GER_AA_ver-2/subject-6.csv","xpyriment","Jazzy James","3.1.6","yes","yes","5950408a6c613b0229e3e810","59504237594d9002288b1720","no","no","0","j","j","space","NA","space","space","j","597","3798","7520","NA","14554","25862","597","2","legacy","1024","1","44100","-16","experiment","zval","22","Duesseldorf","1","0","1","German","English","6","even","Duesseldorf","743977","736163","NA","747776","743973","NA","529026","743741","529027","529027","664376","678935","891401","889896","891999","707908","705058","736163","549634","644550","734489","704855","743977","705062","NA","891400","891401","NA","NA","889892","NAP perception","30","42963","57","yes","1024"
