"acc","accept_status","accuracy","average_response_time","avg_rt","background","bidi","canvas_backend","checkbox_status","clock_backend","color_backend","compensation","coordinates","correct","correct_block_activation","correct_block_exit","correct_instructions_1","correct_instructions_2","correct_keyboard_response","correct_response","count_block_activation","count_block_exit","count_block_info_QA","count_cont_e_block_message","count_e_block_loop","count_e_block_sequence","count_end_of_experiment","count_experiment","count_experimental_loop","count_form_consent","count_info_forms","count_instructions_1","count_instructions_2","count_keyboard_response","count_listen_message","count_logger","count_p_block_loop","count_p_block_sequence","count_p_feedback","count_pause_feedback","count_personal_details_form_1","count_personal_details_form_2","count_post_loop_blank","count_practice_loop","count_pre_e_block_message","count_pre_p_block_message","count_reset_feedback","count_stimulus_image","count_stimulus_sound","count_timeout_message","count_timeout_sound","count_trial_sequence","datetime","description","disable_garbage_collection","experiment_file","experiment_path","expyriment_opengl","font_bold","font_family","font_italic","font_size","font_underline","foreground","form_clicks","form_response","fullscreen","height","keyboard_backend","live_row","live_row_p_block_loop","live_row_practice_loop","logfile","mouse_backend","opensesame_codename","opensesame_version","osf_always_upload_data","osf_always_upload_experiment","osf_datanode_id","osf_id","practice","pygame_doublebuf","repeat_cycle","response","response_block_activation","response_block_exit","response_block_info_QA","response_instructions_1","response_instructions_2","response_keyboard_response","response_time","response_time_block_activation","response_time_block_exit","response_time_block_info_QA","response_time_instructions_1","response_time_instructions_2","response_time_keyboard_response","round_decimals","sampler_backend","sound_buf_size","sound_channels","sound_freq","sound_sample_size","start","stimulus","subject_age","subject_education","subject_gender","subject_german_native","subject_handedness","subject_language_other","subject_nr","subject_other_native_lang","subject_parity","time_block_activation","time_block_exit","time_block_info_QA","time_cont_e_block_message","time_e_block_loop","time_e_block_sequence","time_end_of_experiment","time_experiment","time_experimental_loop","time_form_consent","time_info_forms","time_instructions_1","time_instructions_2","time_keyboard_response","time_listen_message","time_logger","time_p_block_loop","time_p_block_sequence","time_p_feedback","time_pause_feedback","time_personal_details_form_1","time_personal_details_form_2","time_post_loop_blank","time_practice_loop","time_pre_e_block_message","time_pre_p_block_message","time_reset_feedback","time_stimulus_image","time_stimulus_sound","time_timeout_message","time_timeout_sound","time_trial_sequence","title","total_correct","total_response_time","total_responses","uniform_coordinates","width"
"100","yes","100","1255","1255","white","no","xpyriment","Ich habe die obigen Informationen gelesen und verstanden.","legacy","legacy","0","uniform","1","0","NA","undefined","undefined","1","f","0","0","NA","NA","NA","NA","NA","0","0","0","0","0","0","0","0","0","0","0","NA","NA","0","0","0","0","NA","0","0","0","0","0","0","0","Fri Oct 27 11:45:37 2017","Forced-choice identification task with a practice and an experimental phase","yes","NAP_GER_AA_4blocks_noglides.osexp","/Users/aviadalbert/Documents/Academisch/UoC/Dissertation/Experiment/OpenSesame/NAP-FC/NAP_GER_AA_4blocks_noglides","yes","no","sans","no","20","no","black","no","Weiter","yes","768","legacy","0","0","0","/Users/aviadalbert/Documents/Academisch/UoC/Dissertation/Experiment/OpenSesame/NAP-FC/NAP_GER_AA_4blocks_noglides/subject-31.csv","xpyriment","Jazzy James","3.1.9","yes","yes","59a800d99ad5a1025d81bb03","59a801616c613b0251691de0","yes","no","0","f","f","NA","NA","space","space","f","1255","4187","NA","NA","39797","6985","1255","2","legacy","1024","1","44100","-16","experiment","flal","2","1","1","0","1","Eng, Swedish","31","","odd","7766760","NA","NA","NA","NA","NA","NA","6821286","NA","6821287","6821287","7719667","7759469","7772661","7771158","7773918","7770948","7766756","NA","NA","7660656","7701630","NA","7766523","NA","7766759","NA","7772661","7772661","NA","NA","7771154","NAP perception","1","1255","1","yes","1024"
"100","yes","100","1092.5","1092.5","white","no","xpyriment","Ich habe die obigen Informationen gelesen und verstanden.","legacy","legacy","0","uniform","1","0","NA","undefined","undefined","1","j","0","0","NA","NA","NA","NA","NA","0","0","0","0","0","0","1","1","1","0","0","NA","NA","0","0","0","0","NA","0","0","1","1","1","1","1","Fri Oct 27 11:45:37 2017","Forced-choice identification task with a practice and an experimental phase","yes","NAP_GER_AA_4blocks_noglides.osexp","/Users/aviadalbert/Documents/Academisch/UoC/Dissertation/Experiment/OpenSesame/NAP-FC/NAP_GER_AA_4blocks_noglides","yes","no","sans","no","20","no","black","no","Weiter","yes","768","legacy","1","1","0","/Users/aviadalbert/Documents/Academisch/UoC/Dissertation/Experiment/OpenSesame/NAP-FC/NAP_GER_AA_4blocks_noglides/subject-31.csv","xpyriment","Jazzy James","3.1.9","yes","yes","59a800d99ad5a1025d81bb03","59a801616c613b0251691de0","yes","no","0","j","f","NA","NA","space","space","j","930","4187","NA","NA","39797","6985","930","2","legacy","1024","1","44100","-16","experiment","lepal","2","1","1","0","1","Eng, Swedish","31","","odd","7766760","NA","NA","NA","NA","NA","NA","6821286","NA","6821287","6821287","7719667","7759469","7775702","7774197","7776633","7770948","7766756","NA","NA","7660656","7701630","NA","7766523","NA","7766759","NA","7775701","7775702","NA","NA","7774193","NAP perception","2","2185","2","yes","1024"
"100","yes","100","1027.66666667","1027.66666667","white","no","xpyriment","Ich habe die obigen Informationen gelesen und verstanden.","legacy","legacy","0","uniform","1","0","NA","undefined","undefined","1","j","0","0","NA","NA","NA","NA","NA","0","0","0","0","0","0","2","2","2","0","0","NA","NA","0","0","0","0","NA","0","0","2","2","2","2","2","Fri Oct 27 11:45:37 2017","Forced-choice identification task with a practice and an experimental phase","yes","NAP_GER_AA_4blocks_noglides.osexp","/Users/aviadalbert/Documents/Academisch/UoC/Dissertation/Experiment/OpenSesame/NAP-FC/NAP_GER_AA_4blocks_noglides","yes","no","sans","no","20","no","black","no","Weiter","yes","768","legacy","2","2","0","/Users/aviadalbert/Documents/Academisch/UoC/Dissertation/Experiment/OpenSesame/NAP-FC/NAP_GER_AA_4blocks_noglides/subject-31.csv","xpyriment","Jazzy James","3.1.9","yes","yes","59a800d99ad5a1025d81bb03","59a801616c613b0251691de0","yes","no","0","j","f","NA","NA","space","space","j","898","4187","NA","NA","39797","6985","898","2","legacy","1024","1","44100","-16","experiment","emtal","2","1","1","0","1","Eng, Swedish","31","","odd","7766760","NA","NA","NA","NA","NA","NA","6821286","NA","6821287","6821287","7719667","7759469","7778413","7776907","7779312","7770948","7766756","NA","NA","7660656","7701630","NA","7766523","NA","7766759","NA","7778413","7778413","NA","NA","7776903","NAP perception","3","3083","3","yes","1024"
"100","yes","100","969.75","969.75","white","no","xpyriment","Ich habe die obigen Informationen gelesen und verstanden.","legacy","legacy","0","uniform","1","0","NA","undefined","undefined","1","f","0","0","NA","NA","NA","NA","NA","0","0","0","0","0","0","3","3","3","0","0","NA","NA","0","0","0","0","NA","0","0","3","3","3","3","3","Fri Oct 27 11:45:37 2017","Forced-choice identification task with a practice and an experimental phase","yes","NAP_GER_AA_4blocks_noglides.osexp","/Users/aviadalbert/Documents/Academisch/UoC/Dissertation/Experiment/OpenSesame/NAP-FC/NAP_GER_AA_4blocks_noglides","yes","no","sans","no","20","no","black","no","Weiter","yes","768","legacy","3","3","0","/Users/aviadalbert/Documents/Academisch/UoC/Dissertation/Experiment/OpenSesame/NAP-FC/NAP_GER_AA_4blocks_noglides/subject-31.csv","xpyriment","Jazzy James","3.1.9","yes","yes","59a800d99ad5a1025d81bb03","59a801616c613b0251691de0","yes","no","0","f","f","NA","NA","space","space","f","796","4187","NA","NA","39797","6985","796","2","legacy","1024","1","44100","-16","experiment","ʃpal","2","1","1","0","1","Eng, Swedish","31","","odd","7766760","NA","NA","NA","NA","NA","NA","6821286","NA","6821287","6821287","7719667","7759469","7781106","7779599","7781903","7770948","7766756","NA","NA","7660656","7701630","NA","7766523","NA","7766759","NA","7781106","7781106","NA","NA","7779595","NAP perception","4","3879","4","yes","1024"
"100","yes","100","901.8","901.8","white","no","xpyriment","Ich habe die obigen Informationen gelesen und verstanden.","legacy","legacy","0","uniform","1","0","NA","undefined","undefined","1","j","0","0","NA","NA","NA","NA","NA","0","0","0","0","0","0","4","4","4","0","0","NA","NA","0","0","0","0","NA","0","0","4","4","4","4","4","Fri Oct 27 11:45:37 2017","Forced-choice identification task with a practice and an experimental phase","yes","NAP_GER_AA_4blocks_noglides.osexp","/Users/aviadalbert/Documents/Academisch/UoC/Dissertation/Experiment/OpenSesame/NAP-FC/NAP_GER_AA_4blocks_noglides","yes","no","sans","no","20","no","black","no","Weiter","yes","768","legacy","4","4","0","/Users/aviadalbert/Documents/Academisch/UoC/Dissertation/Experiment/OpenSesame/NAP-FC/NAP_GER_AA_4blocks_noglides/subject-31.csv","xpyriment","Jazzy James","3.1.9","yes","yes","59a800d99ad5a1025d81bb03","59a801616c613b0251691de0","yes","no","0","j","f","NA","NA","space","space","j","630","4187","NA","NA","39797","6985","630","2","legacy","1024","1","44100","-16","experiment","nefal","2","1","1","0","1","Eng, Swedish","31","","odd","7766760","NA","NA","NA","NA","NA","NA","6821286","NA","6821287","6821287","7719667","7759469","7783680","7782176","7784311","7770948","7766756","NA","NA","7660656","7701630","NA","7766523","NA","7766759","NA","7783679","7783680","NA","NA","7782172","NAP perception","5","4509","5","yes","1024"
"100","yes","100","892.5","892.5","white","no","xpyriment","Ich habe die obigen Informationen gelesen und verstanden.","legacy","legacy","0","uniform","1","0","NA","undefined","undefined","1","f","0","0","NA","NA","NA","NA","NA","0","0","0","0","0","0","5","5","5","0","0","NA","NA","0","0","0","0","NA","0","0","5","5","5","5","5","Fri Oct 27 11:45:37 2017","Forced-choice identification task with a practice and an experimental phase","yes","NAP_GER_AA_4blocks_noglides.osexp","/Users/aviadalbert/Documents/Academisch/UoC/Dissertation/Experiment/OpenSesame/NAP-FC/NAP_GER_AA_4blocks_noglides","yes","no","sans","no","20","no","black","no","Weiter","yes","768","legacy","5","5","0","/Users/aviadalbert/Documents/Academisch/UoC/Dissertation/Experiment/OpenSesame/NAP-FC/NAP_GER_AA_4blocks_noglides/subject-31.csv","xpyriment","Jazzy James","3.1.9","yes","yes","59a800d99ad5a1025d81bb03","59a801616c613b0251691de0","yes","no","0","f","f","NA","NA","space","space","f","846","4187","NA","NA","39797","6985","846","2","legacy","1024","1","44100","-16","experiment","sfal","2","1","1","0","1","Eng, Swedish","31","","odd","7766760","NA","NA","NA","NA","NA","NA","6821286","NA","6821287","6821287","7719667","7759469","7786083","7784580","7786930","7770948","7766756","NA","NA","7660656","7701630","NA","7766523","NA","7766759","NA","7786083","7786083","NA","NA","7784576","NAP perception","6","5355","6","yes","1024"
"85.7142857143","yes","85.7142857143","876.428571429","876.428571429","white","no","xpyriment","Ich habe die obigen Informationen gelesen und verstanden.","legacy","legacy","0","uniform","0","0","NA","undefined","undefined","0","f","0","0","NA","NA","NA","NA","NA","0","0","0","0","0","0","6","6","6","0","0","NA","NA","0","0","0","0","NA","0","0","6","6","6","6","6","Fri Oct 27 11:45:37 2017","Forced-choice identification task with a practice and an experimental phase","yes","NAP_GER_AA_4blocks_noglides.osexp","/Users/aviadalbert/Documents/Academisch/UoC/Dissertation/Experiment/OpenSesame/NAP-FC/NAP_GER_AA_4blocks_noglides","yes","no","sans","no","20","no","black","no","Weiter","yes","768","legacy","6","6","0","/Users/aviadalbert/Documents/Academisch/UoC/Dissertation/Experiment/OpenSesame/NAP-FC/NAP_GER_AA_4blocks_noglides/subject-31.csv","xpyriment","Jazzy James","3.1.9","yes","yes","59a800d99ad5a1025d81bb03","59a801616c613b0251691de0","yes","no","0","j","f","NA","NA","space","space","j","780","4187","NA","NA","39797","6985","780","2","legacy","1024","1","44100","-16","experiment","zmal","2","1","1","0","1","Eng, Swedish","31","","odd","7766760","NA","NA","NA","NA","NA","NA","6821286","NA","6821287","6821287","7719667","7759469","7788707","7787204","7789488","7770948","7766756","NA","NA","7660656","7701630","NA","7766523","NA","7766759","NA","7788707","7788707","NA","NA","7787200","NAP perception","6","6135","7","yes","1024"
"87.5","yes","87.5","856.5","856.5","white","no","xpyriment","Ich habe die obigen Informationen gelesen und verstanden.","legacy","legacy","0","uniform","1","0","NA","undefined","undefined","1","j","0","0","NA","NA","NA","NA","NA","0","0","0","0","0","0","7","7","7","0","0","NA","NA","0","0","0","0","NA","0","0","7","7","7","7","7","Fri Oct 27 11:45:37 2017","Forced-choice identification task with a practice and an experimental phase","yes","NAP_GER_AA_4blocks_noglides.osexp","/Users/aviadalbert/Documents/Academisch/UoC/Dissertation/Experiment/OpenSesame/NAP-FC/NAP_GER_AA_4blocks_noglides","yes","no","sans","no","20","no","black","no","Weiter","yes","768","legacy","7","7","0","/Users/aviadalbert/Documents/Academisch/UoC/Dissertation/Experiment/OpenSesame/NAP-FC/NAP_GER_AA_4blocks_noglides/subject-31.csv","xpyriment","Jazzy James","3.1.9","yes","yes","59a800d99ad5a1025d81bb03","59a801616c613b0251691de0","yes","no","0","j","f","NA","NA","space","space","j","717","4187","NA","NA","39797","6985","717","2","legacy","1024","1","44100","-16","experiment","mesal","2","1","1","0","1","Eng, Swedish","31","","odd","7766760","NA","NA","NA","NA","NA","NA","6821286","NA","6821287","6821287","7719667","7759469","7791287","7789783","7792005","7770948","7766756","NA","NA","7660656","7701630","NA","7766523","NA","7766759","NA","7791286","7791286","NA","NA","7789779","NAP perception","7","6852","8","yes","1024"
"88.8888888889","yes","88.8888888889","830.111111111","830.111111111","white","no","xpyriment","Ich habe die obigen Informationen gelesen und verstanden.","legacy","legacy","0","uniform","1","0","NA","undefined","undefined","1","j","0","0","NA","NA","NA","NA","NA","0","0","0","0","0","0","8","8","8","0","0","NA","NA","0","0","0","0","NA","0","0","8","8","8","8","8","Fri Oct 27 11:45:37 2017","Forced-choice identification task with a practice and an experimental phase","yes","NAP_GER_AA_4blocks_noglides.osexp","/Users/aviadalbert/Documents/Academisch/UoC/Dissertation/Experiment/OpenSesame/NAP-FC/NAP_GER_AA_4blocks_noglides","yes","no","sans","no","20","no","black","no","Weiter","yes","768","legacy","8","8","0","/Users/aviadalbert/Documents/Academisch/UoC/Dissertation/Experiment/OpenSesame/NAP-FC/NAP_GER_AA_4blocks_noglides/subject-31.csv","xpyriment","Jazzy James","3.1.9","yes","yes","59a800d99ad5a1025d81bb03","59a801616c613b0251691de0","yes","no","0","j","f","NA","NA","space","space","j","619","4187","NA","NA","39797","6985","619","2","legacy","1024","1","44100","-16","experiment","enval","2","1","1","0","1","Eng, Swedish","31","","odd","7766760","NA","NA","NA","NA","NA","NA","6821286","NA","6821287","6821287","7719667","7759469","7793792","7792289","7794413","7770948","7766756","NA","NA","7660656","7701630","NA","7766523","NA","7766759","NA","7793792","7793792","NA","NA","7792285","NAP perception","8","7471","9","yes","1024"
"90","yes","90","842.9","842.9","white","no","xpyriment","Ich habe die obigen Informationen gelesen und verstanden.","legacy","legacy","0","uniform","1","0","NA","undefined","undefined","1","f","0","0","NA","NA","NA","NA","NA","0","0","0","0","0","0","9","9","9","0","0","NA","NA","0","0","0","0","NA","0","0","9","9","9","9","9","Fri Oct 27 11:45:37 2017","Forced-choice identification task with a practice and an experimental phase","yes","NAP_GER_AA_4blocks_noglides.osexp","/Users/aviadalbert/Documents/Academisch/UoC/Dissertation/Experiment/OpenSesame/NAP-FC/NAP_GER_AA_4blocks_noglides","yes","no","sans","no","20","no","black","no","Weiter","yes","768","legacy","9","9","0","/Users/aviadalbert/Documents/Academisch/UoC/Dissertation/Experiment/OpenSesame/NAP-FC/NAP_GER_AA_4blocks_noglides/subject-31.csv","xpyriment","Jazzy James","3.1.9","yes","yes","59a800d99ad5a1025d81bb03","59a801616c613b0251691de0","yes","no","0","f","f","NA","NA","space","space","f","958","4187","NA","NA","39797","6985","958","2","legacy","1024","1","44100","-16","experiment","vlal","2","1","1","0","1","Eng, Swedish","31","","odd","7766760","NA","NA","NA","NA","NA","NA","6821286","NA","6821287","6821287","7719667","7759469","7796200","7794693","7797159","7770948","7766756","NA","NA","7660656","7701630","NA","7766523","NA","7766759","NA","7796200","7796200","NA","NA","7794689","NAP perception","9","8429","10","yes","1024"
"100","yes","100","1059","1059","white","no","xpyriment","Ich habe die obigen Informationen gelesen und verstanden.","legacy","legacy","0","uniform","1","0","0","undefined","undefined","1","f","2","1","NA","0","1","0","0","0","0","0","0","0","0","10","10","10","0","0","0","NA","0","0","2","0","0","0","2","10","10","10","10","10","Fri Oct 27 11:45:37 2017","Forced-choice identification task with a practice and an experimental phase","yes","NAP_GER_AA_4blocks_noglides.osexp","/Users/aviadalbert/Documents/Academisch/UoC/Dissertation/Experiment/OpenSesame/NAP-FC/NAP_GER_AA_4blocks_noglides","yes","no","sans","no","20","no","black","no","Weiter","yes","768","legacy","0","9","0","/Users/aviadalbert/Documents/Academisch/UoC/Dissertation/Experiment/OpenSesame/NAP-FC/NAP_GER_AA_4blocks_noglides/subject-31.csv","xpyriment","Jazzy James","3.1.9","yes","yes","59a800d99ad5a1025d81bb03","59a801616c613b0251691de0","no","no","0","f","f","space","NA","space","space","f","1059","2390","17193","NA","39797","6985","1059","2","legacy","1024","1","44100","-16","experiment","mlal","2","1","1","0","1","Eng, Swedish","31","","odd","7816601","7798876","NA","NA","7818992","7816597","NA","6821286","7816124","6821287","6821287","7719667","7759469","7820694","7819191","7821754","7770948","7766756","7798875","NA","7660656","7701630","7797224","7766523","7816601","7766759","NA","7820694","7820694","NA","NA","7819187","NAP perception","1","1059","1","yes","1024"
"100","yes","100","890","890","white","no","xpyriment","Ich habe die obigen Informationen gelesen und verstanden.","legacy","legacy","0","uniform","1","0","0","undefined","undefined","1","j","2","1","NA","0","1","0","0","0","0","0","0","0","0","11","11","11","0","0","0","NA","0","0","2","0","0","0","2","11","11","11","11","11","Fri Oct 27 11:45:37 2017","Forced-choice identification task with a practice and an experimental phase","yes","NAP_GER_AA_4blocks_noglides.osexp","/Users/aviadalbert/Documents/Academisch/UoC/Dissertation/Experiment/OpenSesame/NAP-FC/NAP_GER_AA_4blocks_noglides","yes","no","sans","no","20","no","black","no","Weiter","yes","768","legacy","1","9","0","/Users/aviadalbert/Documents/Academisch/UoC/Dissertation/Experiment/OpenSesame/NAP-FC/NAP_GER_AA_4blocks_noglides/subject-31.csv","xpyriment","Jazzy James","3.1.9","yes","yes","59a800d99ad5a1025d81bb03","59a801616c613b0251691de0","no","no","0","j","f","space","NA","space","space","j","721","2390","17193","NA","39797","6985","721","2","legacy","1024","1","44100","-16","experiment","esfal","2","1","1","0","1","Eng, Swedish","31","","odd","7816601","7798876","NA","NA","7818992","7816597","NA","6821286","7816124","6821287","6821287","7719667","7759469","7823538","7822032","7824260","7770948","7766756","7798875","NA","7660656","7701630","7797224","7766523","7816601","7766759","NA","7823537","7823538","NA","NA","7822028","NAP perception","2","1780","2","yes","1024"
"66.6666666667","yes","66.6666666667","933.333333333","933.333333333","white","no","xpyriment","Ich habe die obigen Informationen gelesen und verstanden.","legacy","legacy","0","uniform","0","0","0","undefined","undefined","0","f","2","1","NA","0","1","0","0","0","0","0","0","0","0","12","12","12","0","0","0","NA","0","0","2","0","0","0","2","12","12","12","12","12","Fri Oct 27 11:45:37 2017","Forced-choice identification task with a practice and an experimental phase","yes","NAP_GER_AA_4blocks_noglides.osexp","/Users/aviadalbert/Documents/Academisch/UoC/Dissertation/Experiment/OpenSesame/NAP-FC/NAP_GER_AA_4blocks_noglides","yes","no","sans","no","20","no","black","no","Weiter","yes","768","legacy","2","9","0","/Users/aviadalbert/Documents/Academisch/UoC/Dissertation/Experiment/OpenSesame/NAP-FC/NAP_GER_AA_4blocks_noglides/subject-31.csv","xpyriment","Jazzy James","3.1.9","yes","yes","59a800d99ad5a1025d81bb03","59a801616c613b0251691de0","no","no","0","j","f","space","NA","space","space","j","1020","2390","17193","NA","39797","6985","1020","2","legacy","1024","1","44100","-16","experiment","lfal","2","1","1","0","1","Eng, Swedish","31","","odd","7816601","7798876","NA","NA","7818992","7816597","NA","6821286","7816124","6821287","6821287","7719667","7759469","7826039","7824534","7827060","7770948","7766756","7798875","NA","7660656","7701630","7797224","7766523","7816601","7766759","NA","7826039","7826039","NA","NA","7824530","NAP perception","2","2800","3","yes","1024"
"75","yes","75","913.75","913.75","white","no","xpyriment","Ich habe die obigen Informationen gelesen und verstanden.","legacy","legacy","0","uniform","1","0","0","undefined","undefined","1","f","2","1","NA","0","1","0","0","0","0","0","0","0","0","13","13","13","0","0","0","NA","0","0","2","0","0","0","2","13","13","13","13","13","Fri Oct 27 11:45:37 2017","Forced-choice identification task with a practice and an experimental phase","yes","NAP_GER_AA_4blocks_noglides.osexp","/Users/aviadalbert/Documents/Academisch/UoC/Dissertation/Experiment/OpenSesame/NAP-FC/NAP_GER_AA_4blocks_noglides","yes","no","sans","no","20","no","black","no","Weiter","yes","768","legacy","3","9","0","/Users/aviadalbert/Documents/Academisch/UoC/Dissertation/Experiment/OpenSesame/NAP-FC/NAP_GER_AA_4blocks_noglides/subject-31.csv","xpyriment","Jazzy James","3.1.9","yes","yes","59a800d99ad5a1025d81bb03","59a801616c613b0251691de0","no","no","0","f","f","space","NA","space","space","f","855","2390","17193","NA","39797","6985","855","2","legacy","1024","1","44100","-16","experiment","sfal","2","1","1","0","1","Eng, Swedish","31","","odd","7816601","7798876","NA","NA","7818992","7816597","NA","6821286","7816124","6821287","6821287","7719667","7759469","7828841","7827335","7829697","7770948","7766756","7798875","NA","7660656","7701630","7797224","7766523","7816601","7766759","NA","7828841","7828841","NA","NA","7827331","NAP perception","3","3655","4","yes","1024"
"80","yes","80","852.4","852.4","white","no","xpyriment","Ich habe die obigen Informationen gelesen und verstanden.","legacy","legacy","0","uniform","1","0","0","undefined","undefined","1","j","2","1","NA","0","1","0","0","0","0","0","0","0","0","14","14","14","0","0","0","NA","0","0","2","0","0","0","2","14","14","14","14","14","Fri Oct 27 11:45:37 2017","Forced-choice identification task with a practice and an experimental phase","yes","NAP_GER_AA_4blocks_noglides.osexp","/Users/aviadalbert/Documents/Academisch/UoC/Dissertation/Experiment/OpenSesame/NAP-FC/NAP_GER_AA_4blocks_noglides","yes","no","sans","no","20","no","black","no","Weiter","yes","768","legacy","4","9","0","/Users/aviadalbert/Documents/Academisch/UoC/Dissertation/Experiment/OpenSesame/NAP-FC/NAP_GER_AA_4blocks_noglides/subject-31.csv","xpyriment","Jazzy James","3.1.9","yes","yes","59a800d99ad5a1025d81bb03","59a801616c613b0251691de0","no","no","0","j","f","space","NA","space","space","j","607","2390","17193","NA","39797","6985","607","2","legacy","1024","1","44100","-16","experiment","emlal","2","1","1","0","1","Eng, Swedish","31","","odd","7816601","7798876","NA","NA","7818992","7816597","NA","6821286","7816124","6821287","6821287","7719667","7759469","7831476","7829971","7832084","7770948","7766756","7798875","NA","7660656","7701630","7797224","7766523","7816601","7766759","NA","7831476","7831476","NA","NA","7829967","NAP perception","4","4262","5","yes","1024"
"83.3333333333","yes","83.3333333333","827.5","827.5","white","no","xpyriment","Ich habe die obigen Informationen gelesen und verstanden.","legacy","legacy","0","uniform","1","0","0","undefined","undefined","1","j","2","1","NA","0","1","0","0","0","0","0","0","0","0","15","15","15","0","0","0","NA","0","0","2","0","0","0","2","15","15","15","15","15","Fri Oct 27 11:45:37 2017","Forced-choice identification task with a practice and an experimental phase","yes","NAP_GER_AA_4blocks_noglides.osexp","/Users/aviadalbert/Documents/Academisch/UoC/Dissertation/Experiment/OpenSesame/NAP-FC/NAP_GER_AA_4blocks_noglides","yes","no","sans","no","20","no","black","no","Weiter","yes","768","legacy","5","9","0","/Users/aviadalbert/Documents/Academisch/UoC/Dissertation/Experiment/OpenSesame/NAP-FC/NAP_GER_AA_4blocks_noglides/subject-31.csv","xpyriment","Jazzy James","3.1.9","yes","yes","59a800d99ad5a1025d81bb03","59a801616c613b0251691de0","no","no","0","j","f","space","NA","space","space","j","703","2390","17193","NA","39797","6985","703","2","legacy","1024","1","44100","-16","experiment","melal","2","1","1","0","1","Eng, Swedish","31","","odd","7816601","7798876","NA","NA","7818992","7816597","NA","6821286","7816124","6821287","6821287","7719667","7759469","7833858","7832355","7834562","7770948","7766756","7798875","NA","7660656","7701630","7797224","7766523","7816601","7766759","NA","7833858","7833858","NA","NA","7832351","NAP perception","5","4965","6","yes","1024"
"71.4285714286","yes","71.4285714286","850.714285714","850.714285714","white","no","xpyriment","Ich habe die obigen Informationen gelesen und verstanden.","legacy","legacy","0","uniform","0","0","0","undefined","undefined","0","f","2","1","NA","0","1","0","0","0","0","0","0","0","0","16","16","16","0","0","0","NA","0","0","2","0","0","0","2","16","16","16","16","16","Fri Oct 27 11:45:37 2017","Forced-choice identification task with a practice and an experimental phase","yes","NAP_GER_AA_4blocks_noglides.osexp","/Users/aviadalbert/Documents/Academisch/UoC/Dissertation/Experiment/OpenSesame/NAP-FC/NAP_GER_AA_4blocks_noglides","yes","no","sans","no","20","no","black","no","Weiter","yes","768","legacy","6","9","0","/Users/aviadalbert/Documents/Academisch/UoC/Dissertation/Experiment/OpenSesame/NAP-FC/NAP_GER_AA_4blocks_noglides/subject-31.csv","xpyriment","Jazzy James","3.1.9","yes","yes","59a800d99ad5a1025d81bb03","59a801616c613b0251691de0","no","no","0","j","f","space","NA","space","space","j","990","2390","17193","NA","39797","6985","990","2","legacy","1024","1","44100","-16","experiment","nfal","2","1","1","0","1","Eng, Swedish","31","","odd","7816601","7798876","NA","NA","7818992","7816597","NA","6821286","7816124","6821287","6821287","7719667","7759469","7836341","7834835","7837332","7770948","7766756","7798875","NA","7660656","7701630","7797224","7766523","7816601","7766759","NA","7836341","7836341","NA","NA","7834831","NAP perception","5","5955","7","yes","1024"
"75","yes","75","860.25","860.25","white","no","xpyriment","Ich habe die obigen Informationen gelesen und verstanden.","legacy","legacy","0","uniform","1","0","0","undefined","undefined","1","f","2","1","NA","0","1","0","0","0","0","0","0","0","0","17","17","17","0","0","0","NA","0","0","2","0","0","0","2","17","17","17","17","17","Fri Oct 27 11:45:37 2017","Forced-choice identification task with a practice and an experimental phase","yes","NAP_GER_AA_4blocks_noglides.osexp","/Users/aviadalbert/Documents/Academisch/UoC/Dissertation/Experiment/OpenSesame/NAP-FC/NAP_GER_AA_4blocks_noglides","yes","no","sans","no","20","no","black","no","Weiter","yes","768","legacy","7","9","0","/Users/aviadalbert/Documents/Academisch/UoC/Dissertation/Experiment/OpenSesame/NAP-FC/NAP_GER_AA_4blocks_noglides/subject-31.csv","xpyriment","Jazzy James","3.1.9","yes","yes","59a800d99ad5a1025d81bb03","59a801616c613b0251691de0","no","no","0","f","f","space","NA","space","space","f","927","2390","17193","NA","39797","6985","927","2","legacy","1024","1","44100","-16","experiment","fsal","2","1","1","0","1","Eng, Swedish","31","","odd","7816601","7798876","NA","NA","7818992","7816597","NA","6821286","7816124","6821287","6821287","7719667","7759469","7839122","7837617","7840050","7770948","7766756","7798875","NA","7660656","7701630","7797224","7766523","7816601","7766759","NA","7839121","7839121","NA","NA","7837613","NAP perception","6","6882","8","yes","1024"
"66.6666666667","yes","66.6666666667","864.333333333","864.333333333","white","no","xpyriment","Ich habe die obigen Informationen gelesen und verstanden.","legacy","legacy","0","uniform","0","0","0","undefined","undefined","0","f","2","1","NA","0","1","0","0","0","0","0","0","0","0","18","18","18","0","0","0","NA","0","0","2","0","0","0","2","18","18","18","18","18","Fri Oct 27 11:45:37 2017","Forced-choice identification task with a practice and an experimental phase","yes","NAP_GER_AA_4blocks_noglides.osexp","/Users/aviadalbert/Documents/Academisch/UoC/Dissertation/Experiment/OpenSesame/NAP-FC/NAP_GER_AA_4blocks_noglides","yes","no","sans","no","20","no","black","no","Weiter","yes","768","legacy","8","9","0","/Users/aviadalbert/Documents/Academisch/UoC/Dissertation/Experiment/OpenSesame/NAP-FC/NAP_GER_AA_4blocks_noglides/subject-31.csv","xpyriment","Jazzy James","3.1.9","yes","yes","59a800d99ad5a1025d81bb03","59a801616c613b0251691de0","no","no","0","j","f","space","NA","space","space","j","897","2390","17193","NA","39797","6985","897","2","legacy","1024","1","44100","-16","experiment","mtal","2","1","1","0","1","Eng, Swedish","31","","odd","7816601","7798876","NA","NA","7818992","7816597","NA","6821286","7816124","6821287","6821287","7719667","7759469","7841837","7840333","7842735","7770948","7766756","7798875","NA","7660656","7701630","7797224","7766523","7816601","7766759","NA","7841836","7841837","NA","NA","7840329","NAP perception","6","7779","9","yes","1024"
"70","yes","70","857.2","857.2","white","no","xpyriment","Ich habe die obigen Informationen gelesen und verstanden.","legacy","legacy","0","uniform","1","0","0","undefined","undefined","1","j","2","1","NA","0","1","0","0","0","0","0","0","0","0","19","19","19","0","0","0","NA","0","0","2","0","0","0","2","19","19","19","19","19","Fri Oct 27 11:45:37 2017","Forced-choice identification task with a practice and an experimental phase","yes","NAP_GER_AA_4blocks_noglides.osexp","/Users/aviadalbert/Documents/Academisch/UoC/Dissertation/Experiment/OpenSesame/NAP-FC/NAP_GER_AA_4blocks_noglides","yes","no","sans","no","20","no","black","no","Weiter","yes","768","legacy","9","9","0","/Users/aviadalbert/Documents/Academisch/UoC/Dissertation/Experiment/OpenSesame/NAP-FC/NAP_GER_AA_4blocks_noglides/subject-31.csv","xpyriment","Jazzy James","3.1.9","yes","yes","59a800d99ad5a1025d81bb03","59a801616c613b0251691de0","no","no","0","j","f","space","NA","space","space","j","793","2390","17193","NA","39797","6985","793","2","legacy","1024","1","44100","-16","experiment","nemal","2","1","1","0","1","Eng, Swedish","31","","odd","7816601","7798876","NA","NA","7818992","7816597","NA","6821286","7816124","6821287","6821287","7719667","7759469","7844508","7843004","7845302","7770948","7766756","7798875","NA","7660656","7701630","7797224","7766523","7816601","7766759","NA","7844508","7844508","NA","NA","7843000","NAP perception","7","8572","10","yes","1024"
"72.7272727273","yes","72.7272727273","862.363636364","862.363636364","white","no","xpyriment","Ich habe die obigen Informationen gelesen und verstanden.","legacy","legacy","0","uniform","1","0","0","undefined","undefined","1","j","2","1","NA","0","1","0","0","0","0","0","0","0","0","20","20","20","0","0","0","NA","0","0","2","0","0","0","2","20","20","20","20","20","Fri Oct 27 11:45:37 2017","Forced-choice identification task with a practice and an experimental phase","yes","NAP_GER_AA_4blocks_noglides.osexp","/Users/aviadalbert/Documents/Academisch/UoC/Dissertation/Experiment/OpenSesame/NAP-FC/NAP_GER_AA_4blocks_noglides","yes","no","sans","no","20","no","black","no","Weiter","yes","768","legacy","10","9","0","/Users/aviadalbert/Documents/Academisch/UoC/Dissertation/Experiment/OpenSesame/NAP-FC/NAP_GER_AA_4blocks_noglides/subject-31.csv","xpyriment","Jazzy James","3.1.9","yes","yes","59a800d99ad5a1025d81bb03","59a801616c613b0251691de0","no","no","0","j","f","space","NA","space","space","j","914","2390","17193","NA","39797","6985","914","2","legacy","1024","1","44100","-16","experiment","sefal","2","1","1","0","1","Eng, Swedish","31","","odd","7816601","7798876","NA","NA","7818992","7816597","NA","6821286","7816124","6821287","6821287","7719667","7759469","7847086","7845582","7848002","7770948","7766756","7798875","NA","7660656","7701630","7797224","7766523","7816601","7766759","NA","7847085","7847086","NA","NA","7845578","NAP perception","8","9486","11","yes","1024"
"75","yes","75","859.25","859.25","white","no","xpyriment","Ich habe die obigen Informationen gelesen und verstanden.","legacy","legacy","0","uniform","1","0","0","undefined","undefined","1","f","2","1","NA","0","1","0","0","0","0","0","0","0","0","21","21","21","0","0","0","NA","0","0","2","0","0","0","2","21","21","21","21","21","Fri Oct 27 11:45:37 2017","Forced-choice identification task with a practice and an experimental phase","yes","NAP_GER_AA_4blocks_noglides.osexp","/Users/aviadalbert/Documents/Academisch/UoC/Dissertation/Experiment/OpenSesame/NAP-FC/NAP_GER_AA_4blocks_noglides","yes","no","sans","no","20","no","black","no","Weiter","yes","768","legacy","11","9","0","/Users/aviadalbert/Documents/Academisch/UoC/Dissertation/Experiment/OpenSesame/NAP-FC/NAP_GER_AA_4blocks_noglides/subject-31.csv","xpyriment","Jazzy James","3.1.9","yes","yes","59a800d99ad5a1025d81bb03","59a801616c613b0251691de0","no","no","0","f","f","space","NA","space","space","f","825","2390","17193","NA","39797","6985","825","2","legacy","1024","1","44100","-16","experiment","ʃpal","2","1","1","0","1","Eng, Swedish","31","","odd","7816601","7798876","NA","NA","7818992","7816597","NA","6821286","7816124","6821287","6821287","7719667","7759469","7849774","7848267","7850601","7770948","7766756","7798875","NA","7660656","7701630","7797224","7766523","7816601","7766759","NA","7849774","7849774","NA","NA","7848263","NAP perception","9","10311","12","yes","1024"
"76.9230769231","yes","76.9230769231","873","873","white","no","xpyriment","Ich habe die obigen Informationen gelesen und verstanden.","legacy","legacy","0","uniform","1","0","0","undefined","undefined","1","f","2","1","NA","0","1","0","0","0","0","0","0","0","0","22","22","22","0","0","0","NA","0","0","2","0","0","0","2","22","22","22","22","22","Fri Oct 27 11:45:37 2017","Forced-choice identification task with a practice and an experimental phase","yes","NAP_GER_AA_4blocks_noglides.osexp","/Users/aviadalbert/Documents/Academisch/UoC/Dissertation/Experiment/OpenSesame/NAP-FC/NAP_GER_AA_4blocks_noglides","yes","no","sans","no","20","no","black","no","Weiter","yes","768","legacy","12","9","0","/Users/aviadalbert/Documents/Academisch/UoC/Dissertation/Experiment/OpenSesame/NAP-FC/NAP_GER_AA_4blocks_noglides/subject-31.csv","xpyriment","Jazzy James","3.1.9","yes","yes","59a800d99ad5a1025d81bb03","59a801616c613b0251691de0","no","no","0","f","f","space","NA","space","space","f","1038","2390","17193","NA","39797","6985","1038","2","legacy","1024","1","44100","-16","experiment","vzal","2","1","1","0","1","Eng, Swedish","31","","odd","7816601","7798876","NA","NA","7818992","7816597","NA","6821286","7816124","6821287","6821287","7719667","7759469","7852403","7850900","7853443","7770948","7766756","7798875","NA","7660656","7701630","7797224","7766523","7816601","7766759","NA","7852403","7852403","NA","NA","7850896","NAP perception","10","11349","13","yes","1024"
"78.5714285714","yes","78.5714285714","861.214285714","861.214285714","white","no","xpyriment","Ich habe die obigen Informationen gelesen und verstanden.","legacy","legacy","0","uniform","1","0","0","undefined","undefined","1","f","2","1","NA","0","1","0","0","0","0","0","0","0","0","23","23","23","0","0","0","NA","0","0","2","0","0","0","2","23","23","23","23","23","Fri Oct 27 11:45:37 2017","Forced-choice identification task with a practice and an experimental phase","yes","NAP_GER_AA_4blocks_noglides.osexp","/Users/aviadalbert/Documents/Academisch/UoC/Dissertation/Experiment/OpenSesame/NAP-FC/NAP_GER_AA_4blocks_noglides","yes","no","sans","no","20","no","black","no","Weiter","yes","768","legacy","13","9","0","/Users/aviadalbert/Documents/Academisch/UoC/Dissertation/Experiment/OpenSesame/NAP-FC/NAP_GER_AA_4blocks_noglides/subject-31.csv","xpyriment","Jazzy James","3.1.9","yes","yes","59a800d99ad5a1025d81bb03","59a801616c613b0251691de0","no","no","0","f","f","space","NA","space","space","f","708","2390","17193","NA","39797","6985","708","2","legacy","1024","1","44100","-16","experiment","zval","2","1","1","0","1","Eng, Swedish","31","","odd","7816601","7798876","NA","NA","7818992","7816597","NA","6821286","7816124","6821287","6821287","7719667","7759469","7855220","7853713","7855930","7770948","7766756","7798875","NA","7660656","7701630","7797224","7766523","7816601","7766759","NA","7855220","7855220","NA","NA","7853709","NAP perception","11","12057","14","yes","1024"
"80","yes","80","851.533333333","851.533333333","white","no","xpyriment","Ich habe die obigen Informationen gelesen und verstanden.","legacy","legacy","0","uniform","1","0","0","undefined","undefined","1","f","2","1","NA","0","1","0","0","0","0","0","0","0","0","24","24","24","0","0","0","NA","0","0","2","0","0","0","2","24","24","24","24","24","Fri Oct 27 11:45:37 2017","Forced-choice identification task with a practice and an experimental phase","yes","NAP_GER_AA_4blocks_noglides.osexp","/Users/aviadalbert/Documents/Academisch/UoC/Dissertation/Experiment/OpenSesame/NAP-FC/NAP_GER_AA_4blocks_noglides","yes","no","sans","no","20","no","black","no","Weiter","yes","768","legacy","14","9","0","/Users/aviadalbert/Documents/Academisch/UoC/Dissertation/Experiment/OpenSesame/NAP-FC/NAP_GER_AA_4blocks_noglides/subject-31.csv","xpyriment","Jazzy James","3.1.9","yes","yes","59a800d99ad5a1025d81bb03","59a801616c613b0251691de0","no","no","0","f","f","space","NA","space","space","f","716","2390","17193","NA","39797","6985","716","2","legacy","1024","1","44100","-16","experiment","ʃpal","2","1","1","0","1","Eng, Swedish","31","","odd","7816601","7798876","NA","NA","7818992","7816597","NA","6821286","7816124","6821287","6821287","7719667","7759469","7857720","7856215","7858438","7770948","7766756","7798875","NA","7660656","7701630","7797224","7766523","7816601","7766759","NA","7857719","7857720","NA","NA","7856212","NAP perception","12","12773","15","yes","1024"
"81.25","yes","81.25","841.25","841.25","white","no","xpyriment","Ich habe die obigen Informationen gelesen und verstanden.","legacy","legacy","0","uniform","1","0","0","undefined","undefined","1","j","2","1","NA","0","1","0","0","0","0","0","0","0","0","25","25","25","0","0","0","NA","0","0","2","0","0","0","2","25","25","25","25","25","Fri Oct 27 11:45:37 2017","Forced-choice identification task with a practice and an experimental phase","yes","NAP_GER_AA_4blocks_noglides.osexp","/Users/aviadalbert/Documents/Academisch/UoC/Dissertation/Experiment/OpenSesame/NAP-FC/NAP_GER_AA_4blocks_noglides","yes","no","sans","no","20","no","black","no","Weiter","yes","768","legacy","15","9","0","/Users/aviadalbert/Documents/Academisch/UoC/Dissertation/Experiment/OpenSesame/NAP-FC/NAP_GER_AA_4blocks_noglides/subject-31.csv","xpyriment","Jazzy James","3.1.9","yes","yes","59a800d99ad5a1025d81bb03","59a801616c613b0251691de0","no","no","0","j","f","space","NA","space","space","j","687","2390","17193","NA","39797","6985","687","2","legacy","1024","1","44100","-16","experiment","felal","2","1","1","0","1","Eng, Swedish","31","","odd","7816601","7798876","NA","NA","7818992","7816597","NA","6821286","7816124","6821287","6821287","7719667","7759469","7860231","7858727","7860920","7770948","7766756","7798875","NA","7660656","7701630","7797224","7766523","7816601","7766759","NA","7860231","7860231","NA","NA","7858723","NAP perception","13","13460","16","yes","1024"
"82.3529411765","yes","82.3529411765","837.823529412","837.823529412","white","no","xpyriment","Ich habe die obigen Informationen gelesen und verstanden.","legacy","legacy","0","uniform","1","0","0","undefined","undefined","1","f","2","1","NA","0","1","0","0","0","0","0","0","0","0","26","26","26","0","0","0","NA","0","0","2","0","0","0","2","26","26","26","26","26","Fri Oct 27 11:45:37 2017","Forced-choice identification task with a practice and an experimental phase","yes","NAP_GER_AA_4blocks_noglides.osexp","/Users/aviadalbert/Documents/Academisch/UoC/Dissertation/Experiment/OpenSesame/NAP-FC/NAP_GER_AA_4blocks_noglides","yes","no","sans","no","20","no","black","no","Weiter","yes","768","legacy","16","9","0","/Users/aviadalbert/Documents/Academisch/UoC/Dissertation/Experiment/OpenSesame/NAP-FC/NAP_GER_AA_4blocks_noglides/subject-31.csv","xpyriment","Jazzy James","3.1.9","yes","yes","59a800d99ad5a1025d81bb03","59a801616c613b0251691de0","no","no","0","f","f","space","NA","space","space","f","783","2390","17193","NA","39797","6985","783","2","legacy","1024","1","44100","-16","experiment","fnal","2","1","1","0","1","Eng, Swedish","31","","odd","7816601","7798876","NA","NA","7818992","7816597","NA","6821286","7816124","6821287","6821287","7719667","7759469","7862697","7861190","7863481","7770948","7766756","7798875","NA","7660656","7701630","7797224","7766523","7816601","7766759","NA","7862696","7862696","NA","NA","7861186","NAP perception","14","14243","17","yes","1024"
"83.3333333333","yes","83.3333333333","828.333333333","828.333333333","white","no","xpyriment","Ich habe die obigen Informationen gelesen und verstanden.","legacy","legacy","0","uniform","1","0","0","undefined","undefined","1","j","2","1","NA","0","1","0","0","0","0","0","0","0","0","27","27","27","0","0","0","NA","0","0","2","0","0","0","2","27","27","27","27","27","Fri Oct 27 11:45:37 2017","Forced-choice identification task with a practice and an experimental phase","yes","NAP_GER_AA_4blocks_noglides.osexp","/Users/aviadalbert/Documents/Academisch/UoC/Dissertation/Experiment/OpenSesame/NAP-FC/NAP_GER_AA_4blocks_noglides","yes","no","sans","no","20","no","black","no","Weiter","yes","768","legacy","17","9","0","/Users/aviadalbert/Documents/Academisch/UoC/Dissertation/Experiment/OpenSesame/NAP-FC/NAP_GER_AA_4blocks_noglides/subject-31.csv","xpyriment","Jazzy James","3.1.9","yes","yes","59a800d99ad5a1025d81bb03","59a801616c613b0251691de0","no","no","0","j","f","space","NA","space","space","j","667","2390","17193","NA","39797","6985","667","2","legacy","1024","1","44100","-16","experiment","ezval","2","1","1","0","1","Eng, Swedish","31","","odd","7816601","7798876","NA","NA","7818992","7816597","NA","6821286","7816124","6821287","6821287","7719667","7759469","7865274","7863769","7865942","7770948","7766756","7798875","NA","7660656","7701630","7797224","7766523","7816601","7766759","NA","7865273","7865273","NA","NA","7863765","NAP perception","15","14910","18","yes","1024"
"84.2105263158","yes","84.2105263158","817.368421053","817.368421053","white","no","xpyriment","Ich habe die obigen Informationen gelesen und verstanden.","legacy","legacy","0","uniform","1","0","0","undefined","undefined","1","j","2","1","NA","0","1","0","0","0","0","0","0","0","0","28","28","28","0","0","0","NA","0","0","2","0","0","0","2","28","28","28","28","28","Fri Oct 27 11:45:37 2017","Forced-choice identification task with a practice and an experimental phase","yes","NAP_GER_AA_4blocks_noglides.osexp","/Users/aviadalbert/Documents/Academisch/UoC/Dissertation/Experiment/OpenSesame/NAP-FC/NAP_GER_AA_4blocks_noglides","yes","no","sans","no","20","no","black","no","Weiter","yes","768","legacy","18","9","0","/Users/aviadalbert/Documents/Academisch/UoC/Dissertation/Experiment/OpenSesame/NAP-FC/NAP_GER_AA_4blocks_noglides/subject-31.csv","xpyriment","Jazzy James","3.1.9","yes","yes","59a800d99ad5a1025d81bb03","59a801616c613b0251691de0","no","no","0","j","f","space","NA","space","space","j","620","2390","17193","NA","39797","6985","620","2","legacy","1024","1","44100","-16","experiment","leval","2","1","1","0","1","Eng, Swedish","31","","odd","7816601","7798876","NA","NA","7818992","7816597","NA","6821286","7816124","6821287","6821287","7719667","7759469","7867728","7866224","7868349","7770948","7766756","7798875","NA","7660656","7701630","7797224","7766523","7816601","7766759","NA","7867727","7867728","NA","NA","7866220","NAP perception","16","15530","19","yes","1024"
"85","yes","85","813.85","813.85","white","no","xpyriment","Ich habe die obigen Informationen gelesen und verstanden.","legacy","legacy","0","uniform","1","0","0","undefined","undefined","1","f","2","1","NA","0","1","0","0","0","0","0","0","0","0","29","29","29","0","0","0","NA","0","0","2","0","0","0","2","29","29","29","29","29","Fri Oct 27 11:45:37 2017","Forced-choice identification task with a practice and an experimental phase","yes","NAP_GER_AA_4blocks_noglides.osexp","/Users/aviadalbert/Documents/Academisch/UoC/Dissertation/Experiment/OpenSesame/NAP-FC/NAP_GER_AA_4blocks_noglides","yes","no","sans","no","20","no","black","no","Weiter","yes","768","legacy","19","9","0","/Users/aviadalbert/Documents/Academisch/UoC/Dissertation/Experiment/OpenSesame/NAP-FC/NAP_GER_AA_4blocks_noglides/subject-31.csv","xpyriment","Jazzy James","3.1.9","yes","yes","59a800d99ad5a1025d81bb03","59a801616c613b0251691de0","no","no","0","f","f","space","NA","space","space","f","747","2390","17193","NA","39797","6985","747","2","legacy","1024","1","44100","-16","experiment","mnal","2","1","1","0","1","Eng, Swedish","31","","odd","7816601","7798876","NA","NA","7818992","7816597","NA","6821286","7816124","6821287","6821287","7719667","7759469","7870133","7868630","7870881","7770948","7766756","7798875","NA","7660656","7701630","7797224","7766523","7816601","7766759","NA","7870133","7870133","NA","NA","7868626","NAP perception","17","16277","20","yes","1024"
"85.7142857143","yes","85.7142857143","808.523809524","808.523809524","white","no","xpyriment","Ich habe die obigen Informationen gelesen und verstanden.","legacy","legacy","0","uniform","1","0","0","undefined","undefined","1","j","2","1","NA","0","1","0","0","0","0","0","0","0","0","30","30","30","0","0","0","NA","0","0","2","0","0","0","2","30","30","30","30","30","Fri Oct 27 11:45:37 2017","Forced-choice identification task with a practice and an experimental phase","yes","NAP_GER_AA_4blocks_noglides.osexp","/Users/aviadalbert/Documents/Academisch/UoC/Dissertation/Experiment/OpenSesame/NAP-FC/NAP_GER_AA_4blocks_noglides","yes","no","sans","no","20","no","black","no","Weiter","yes","768","legacy","20","9","0","/Users/aviadalbert/Documents/Academisch/UoC/Dissertation/Experiment/OpenSesame/NAP-FC/NAP_GER_AA_4blocks_noglides/subject-31.csv","xpyriment","Jazzy James","3.1.9","yes","yes","59a800d99ad5a1025d81bb03","59a801616c613b0251691de0","no","no","0","j","f","space","NA","space","space","j","702","2390","17193","NA","39797","6985","702","2","legacy","1024","1","44100","-16","experiment","vezal","2","1","1","0","1","Eng, Swedish","31","","odd","7816601","7798876","NA","NA","7818992","7816597","NA","6821286","7816124","6821287","6821287","7719667","7759469","7872661","7871158","7873364","7770948","7766756","7798875","NA","7660656","7701630","7797224","7766523","7816601","7766759","NA","7872661","7872661","NA","NA","7871154","NAP perception","18","16979","21","yes","1024"
"86.3636363636","yes","86.3636363636","801.818181818","801.818181818","white","no","xpyriment","Ich habe die obigen Informationen gelesen und verstanden.","legacy","legacy","0","uniform","1","0","0","undefined","undefined","1","f","2","1","NA","0","1","0","0","0","0","0","0","0","0","31","31","31","0","0","0","NA","0","0","2","0","0","0","2","31","31","31","31","31","Fri Oct 27 11:45:37 2017","Forced-choice identification task with a practice and an experimental phase","yes","NAP_GER_AA_4blocks_noglides.osexp","/Users/aviadalbert/Documents/Academisch/UoC/Dissertation/Experiment/OpenSesame/NAP-FC/NAP_GER_AA_4blocks_noglides","yes","no","sans","no","20","no","black","no","Weiter","yes","768","legacy","21","9","0","/Users/aviadalbert/Documents/Academisch/UoC/Dissertation/Experiment/OpenSesame/NAP-FC/NAP_GER_AA_4blocks_noglides/subject-31.csv","xpyriment","Jazzy James","3.1.9","yes","yes","59a800d99ad5a1025d81bb03","59a801616c613b0251691de0","no","no","0","f","f","space","NA","space","space","f","661","2390","17193","NA","39797","6985","661","2","legacy","1024","1","44100","-16","experiment","spal","2","1","1","0","1","Eng, Swedish","31","","odd","7816601","7798876","NA","NA","7818992","7816597","NA","6821286","7816124","6821287","6821287","7719667","7759469","7875136","7873633","7875799","7770948","7766756","7798875","NA","7660656","7701630","7797224","7766523","7816601","7766759","NA","7875136","7875136","NA","NA","7873628","NAP perception","19","17640","22","yes","1024"
"86.9565217391","yes","86.9565217391","803.913043478","803.913043478","white","no","xpyriment","Ich habe die obigen Informationen gelesen und verstanden.","legacy","legacy","0","uniform","1","0","0","undefined","undefined","1","f","2","1","NA","0","1","0","0","0","0","0","0","0","0","32","32","32","0","0","0","NA","0","0","2","0","0","0","2","32","32","32","32","32","Fri Oct 27 11:45:37 2017","Forced-choice identification task with a practice and an experimental phase","yes","NAP_GER_AA_4blocks_noglides.osexp","/Users/aviadalbert/Documents/Academisch/UoC/Dissertation/Experiment/OpenSesame/NAP-FC/NAP_GER_AA_4blocks_noglides","yes","no","sans","no","20","no","black","no","Weiter","yes","768","legacy","22","9","0","/Users/aviadalbert/Documents/Academisch/UoC/Dissertation/Experiment/OpenSesame/NAP-FC/NAP_GER_AA_4blocks_noglides/subject-31.csv","xpyriment","Jazzy James","3.1.9","yes","yes","59a800d99ad5a1025d81bb03","59a801616c613b0251691de0","no","no","0","f","f","space","NA","space","space","f","850","2390","17193","NA","39797","6985","850","2","legacy","1024","1","44100","-16","experiment","mzal","2","1","1","0","1","Eng, Swedish","31","","odd","7816601","7798876","NA","NA","7818992","7816597","NA","6821286","7816124","6821287","6821287","7719667","7759469","7877569","7876063","7878420","7770948","7766756","7798875","NA","7660656","7701630","7797224","7766523","7816601","7766759","NA","7877569","7877569","NA","NA","7876059","NAP perception","20","18490","23","yes","1024"
"87.5","yes","87.5","801.791666667","801.791666667","white","no","xpyriment","Ich habe die obigen Informationen gelesen und verstanden.","legacy","legacy","0","uniform","1","0","0","undefined","undefined","1","f","2","1","NA","0","1","0","0","0","0","0","0","0","0","33","33","33","0","0","0","NA","0","0","2","0","0","0","2","33","33","33","33","33","Fri Oct 27 11:45:37 2017","Forced-choice identification task with a practice and an experimental phase","yes","NAP_GER_AA_4blocks_noglides.osexp","/Users/aviadalbert/Documents/Academisch/UoC/Dissertation/Experiment/OpenSesame/NAP-FC/NAP_GER_AA_4blocks_noglides","yes","no","sans","no","20","no","black","no","Weiter","yes","768","legacy","23","9","0","/Users/aviadalbert/Documents/Academisch/UoC/Dissertation/Experiment/OpenSesame/NAP-FC/NAP_GER_AA_4blocks_noglides/subject-31.csv","xpyriment","Jazzy James","3.1.9","yes","yes","59a800d99ad5a1025d81bb03","59a801616c613b0251691de0","no","no","0","f","f","space","NA","space","space","f","753","2390","17193","NA","39797","6985","753","2","legacy","1024","1","44100","-16","experiment","ftal","2","1","1","0","1","Eng, Swedish","31","","odd","7816601","7798876","NA","NA","7818992","7816597","NA","6821286","7816124","6821287","6821287","7719667","7759469","7880216","7878711","7880970","7770948","7766756","7798875","NA","7660656","7701630","7797224","7766523","7816601","7766759","NA","7880216","7880216","NA","NA","7878708","NAP perception","21","19243","24","yes","1024"
"88","yes","88","795.24","795.24","white","no","xpyriment","Ich habe die obigen Informationen gelesen und verstanden.","legacy","legacy","0","uniform","1","0","0","undefined","undefined","1","f","2","1","NA","0","1","0","0","0","0","0","0","0","0","34","34","34","0","0","0","NA","0","0","2","0","0","0","2","34","34","34","34","34","Fri Oct 27 11:45:37 2017","Forced-choice identification task with a practice and an experimental phase","yes","NAP_GER_AA_4blocks_noglides.osexp","/Users/aviadalbert/Documents/Academisch/UoC/Dissertation/Experiment/OpenSesame/NAP-FC/NAP_GER_AA_4blocks_noglides","yes","no","sans","no","20","no","black","no","Weiter","yes","768","legacy","24","9","0","/Users/aviadalbert/Documents/Academisch/UoC/Dissertation/Experiment/OpenSesame/NAP-FC/NAP_GER_AA_4blocks_noglides/subject-31.csv","xpyriment","Jazzy James","3.1.9","yes","yes","59a800d99ad5a1025d81bb03","59a801616c613b0251691de0","no","no","0","f","f","space","NA","space","space","f","638","2390","17193","NA","39797","6985","638","2","legacy","1024","1","44100","-16","experiment","ʃmal","2","1","1","0","1","Eng, Swedish","31","","odd","7816601","7798876","NA","NA","7818992","7816597","NA","6821286","7816124","6821287","6821287","7719667","7759469","7882737","7881234","7883377","7770948","7766756","7798875","NA","7660656","7701630","7797224","7766523","7816601","7766759","NA","7882737","7882737","NA","NA","7881230","NAP perception","22","19881","25","yes","1024"
"88.4615384615","yes","88.4615384615","795.230769231","795.230769231","white","no","xpyriment","Ich habe die obigen Informationen gelesen und verstanden.","legacy","legacy","0","uniform","1","0","0","undefined","undefined","1","f","2","1","NA","0","1","0","0","0","0","0","0","0","0","35","35","35","0","0","0","NA","0","0","2","0","0","0","2","35","35","35","35","35","Fri Oct 27 11:45:37 2017","Forced-choice identification task with a practice and an experimental phase","yes","NAP_GER_AA_4blocks_noglides.osexp","/Users/aviadalbert/Documents/Academisch/UoC/Dissertation/Experiment/OpenSesame/NAP-FC/NAP_GER_AA_4blocks_noglides","yes","no","sans","no","20","no","black","no","Weiter","yes","768","legacy","25","9","0","/Users/aviadalbert/Documents/Academisch/UoC/Dissertation/Experiment/OpenSesame/NAP-FC/NAP_GER_AA_4blocks_noglides/subject-31.csv","xpyriment","Jazzy James","3.1.9","yes","yes","59a800d99ad5a1025d81bb03","59a801616c613b0251691de0","no","no","0","f","f","space","NA","space","space","f","795","2390","17193","NA","39797","6985","795","2","legacy","1024","1","44100","-16","experiment","nfal","2","1","1","0","1","Eng, Swedish","31","","odd","7816601","7798876","NA","NA","7818992","7816597","NA","6821286","7816124","6821287","6821287","7719667","7759469","7885162","7883659","7885958","7770948","7766756","7798875","NA","7660656","7701630","7797224","7766523","7816601","7766759","NA","7885162","7885162","NA","NA","7883655","NAP perception","23","20676","26","yes","1024"
"88.8888888889","yes","88.8888888889","788.814814815","788.814814815","white","no","xpyriment","Ich habe die obigen Informationen gelesen und verstanden.","legacy","legacy","0","uniform","1","0","0","undefined","undefined","1","j","2","1","NA","0","1","0","0","0","0","0","0","0","0","36","36","36","0","0","0","NA","0","0","2","0","0","0","2","36","36","36","36","36","Fri Oct 27 11:45:37 2017","Forced-choice identification task with a practice and an experimental phase","yes","NAP_GER_AA_4blocks_noglides.osexp","/Users/aviadalbert/Documents/Academisch/UoC/Dissertation/Experiment/OpenSesame/NAP-FC/NAP_GER_AA_4blocks_noglides","yes","no","sans","no","20","no","black","no","Weiter","yes","768","legacy","26","9","0","/Users/aviadalbert/Documents/Academisch/UoC/Dissertation/Experiment/OpenSesame/NAP-FC/NAP_GER_AA_4blocks_noglides/subject-31.csv","xpyriment","Jazzy James","3.1.9","yes","yes","59a800d99ad5a1025d81bb03","59a801616c613b0251691de0","no","no","0","j","f","space","NA","space","space","j","622","2390","17193","NA","39797","6985","622","2","legacy","1024","1","44100","-16","experiment","efnal","2","1","1","0","1","Eng, Swedish","31","","odd","7816601","7798876","NA","NA","7818992","7816597","NA","6821286","7816124","6821287","6821287","7719667","7759469","7887746","7886242","7888370","7770948","7766756","7798875","NA","7660656","7701630","7797224","7766523","7816601","7766759","NA","7887745","7887746","NA","NA","7886238","NAP perception","24","21298","27","yes","1024"
"85.7142857143","yes","85.7142857143","792.928571429","792.928571429","white","no","xpyriment","Ich habe die obigen Informationen gelesen und verstanden.","legacy","legacy","0","uniform","0","0","0","undefined","undefined","0","j","2","1","NA","0","1","0","0","0","0","0","0","0","0","37","37","37","0","0","0","NA","0","0","2","0","0","0","2","37","37","37","37","37","Fri Oct 27 11:45:37 2017","Forced-choice identification task with a practice and an experimental phase","yes","NAP_GER_AA_4blocks_noglides.osexp","/Users/aviadalbert/Documents/Academisch/UoC/Dissertation/Experiment/OpenSesame/NAP-FC/NAP_GER_AA_4blocks_noglides","yes","no","sans","no","20","no","black","no","Weiter","yes","768","legacy","27","9","0","/Users/aviadalbert/Documents/Academisch/UoC/Dissertation/Experiment/OpenSesame/NAP-FC/NAP_GER_AA_4blocks_noglides/subject-31.csv","xpyriment","Jazzy James","3.1.9","yes","yes","59a800d99ad5a1025d81bb03","59a801616c613b0251691de0","no","no","0","f","f","space","NA","space","space","f","904","2390","17193","NA","39797","6985","904","2","legacy","1024","1","44100","-16","experiment","evzal","2","1","1","0","1","Eng, Swedish","31","","odd","7816601","7798876","NA","NA","7818992","7816597","NA","6821286","7816124","6821287","6821287","7719667","7759469","7890159","7888653","7891065","7770948","7766756","7798875","NA","7660656","7701630","7797224","7766523","7816601","7766759","NA","7890159","7890159","NA","NA","7888649","NAP perception","24","22202","28","yes","1024"
"86.2068965517","yes","86.2068965517","789.75862069","789.75862069","white","no","xpyriment","Ich habe die obigen Informationen gelesen und verstanden.","legacy","legacy","0","uniform","1","0","0","undefined","undefined","1","f","2","1","NA","0","1","0","0","0","0","0","0","0","0","38","38","38","0","0","0","NA","0","0","2","0","0","0","2","38","38","38","38","38","Fri Oct 27 11:45:37 2017","Forced-choice identification task with a practice and an experimental phase","yes","NAP_GER_AA_4blocks_noglides.osexp","/Users/aviadalbert/Documents/Academisch/UoC/Dissertation/Experiment/OpenSesame/NAP-FC/NAP_GER_AA_4blocks_noglides","yes","no","sans","no","20","no","black","no","Weiter","yes","768","legacy","28","9","0","/Users/aviadalbert/Documents/Academisch/UoC/Dissertation/Experiment/OpenSesame/NAP-FC/NAP_GER_AA_4blocks_noglides/subject-31.csv","xpyriment","Jazzy James","3.1.9","yes","yes","59a800d99ad5a1025d81bb03","59a801616c613b0251691de0","no","no","0","f","f","space","NA","space","space","f","701","2390","17193","NA","39797","6985","701","2","legacy","1024","1","44100","-16","experiment","fnal","2","1","1","0","1","Eng, Swedish","31","","odd","7816601","7798876","NA","NA","7818992","7816597","NA","6821286","7816124","6821287","6821287","7719667","7759469","7892849","7891344","7893552","7770948","7766756","7798875","NA","7660656","7701630","7797224","7766523","7816601","7766759","NA","7892848","7892848","NA","NA","7891340","NAP perception","25","22903","29","yes","1024"
"86.6666666667","yes","86.6666666667","794.1","794.1","white","no","xpyriment","Ich habe die obigen Informationen gelesen und verstanden.","legacy","legacy","0","uniform","1","0","0","undefined","undefined","1","j","2","1","NA","0","1","0","0","0","0","0","0","0","0","39","39","39","0","0","0","NA","0","0","2","0","0","0","2","39","39","39","39","39","Fri Oct 27 11:45:37 2017","Forced-choice identification task with a practice and an experimental phase","yes","NAP_GER_AA_4blocks_noglides.osexp","/Users/aviadalbert/Documents/Academisch/UoC/Dissertation/Experiment/OpenSesame/NAP-FC/NAP_GER_AA_4blocks_noglides","yes","no","sans","no","20","no","black","no","Weiter","yes","768","legacy","29","9","0","/Users/aviadalbert/Documents/Academisch/UoC/Dissertation/Experiment/OpenSesame/NAP-FC/NAP_GER_AA_4blocks_noglides/subject-31.csv","xpyriment","Jazzy James","3.1.9","yes","yes","59a800d99ad5a1025d81bb03","59a801616c613b0251691de0","no","no","0","j","f","space","NA","space","space","j","920","2390","17193","NA","39797","6985","920","2","legacy","1024","1","44100","-16","experiment","neval","2","1","1","0","1","Eng, Swedish","31","","odd","7816601","7798876","NA","NA","7818992","7816597","NA","6821286","7816124","6821287","6821287","7719667","7759469","7895333","7893826","7896255","7770948","7766756","7798875","NA","7660656","7701630","7797224","7766523","7816601","7766759","NA","7895333","7895333","NA","NA","7893823","NAP perception","26","23823","30","yes","1024"
"87.0967741935","yes","87.0967741935","794.806451613","794.806451613","white","no","xpyriment","Ich habe die obigen Informationen gelesen und verstanden.","legacy","legacy","0","uniform","1","0","0","undefined","undefined","1","j","2","1","NA","0","1","0","0","0","0","0","0","0","0","40","40","40","0","0","0","NA","0","0","2","0","0","0","2","40","40","40","40","40","Fri Oct 27 11:45:37 2017","Forced-choice identification task with a practice and an experimental phase","yes","NAP_GER_AA_4blocks_noglides.osexp","/Users/aviadalbert/Documents/Academisch/UoC/Dissertation/Experiment/OpenSesame/NAP-FC/NAP_GER_AA_4blocks_noglides","yes","no","sans","no","20","no","black","no","Weiter","yes","768","legacy","30","9","0","/Users/aviadalbert/Documents/Academisch/UoC/Dissertation/Experiment/OpenSesame/NAP-FC/NAP_GER_AA_4blocks_noglides/subject-31.csv","xpyriment","Jazzy James","3.1.9","yes","yes","59a800d99ad5a1025d81bb03","59a801616c613b0251691de0","no","no","0","j","f","space","NA","space","space","j","816","2390","17193","NA","39797","6985","816","2","legacy","1024","1","44100","-16","experiment","espal","2","1","1","0","1","Eng, Swedish","31","","odd","7816601","7798876","NA","NA","7818992","7816597","NA","6821286","7816124","6821287","6821287","7719667","7759469","7898027","7896523","7898844","7770948","7766756","7798875","NA","7660656","7701630","7797224","7766523","7816601","7766759","NA","7898027","7898027","NA","NA","7896519","NAP perception","27","24639","31","yes","1024"
"87.5","yes","87.5","793.21875","793.21875","white","no","xpyriment","Ich habe die obigen Informationen gelesen und verstanden.","legacy","legacy","0","uniform","1","0","0","undefined","undefined","1","f","2","1","NA","0","1","0","0","0","0","0","0","0","0","41","41","41","0","0","0","NA","0","0","2","0","0","0","2","41","41","41","41","41","Fri Oct 27 11:45:37 2017","Forced-choice identification task with a practice and an experimental phase","yes","NAP_GER_AA_4blocks_noglides.osexp","/Users/aviadalbert/Documents/Academisch/UoC/Dissertation/Experiment/OpenSesame/NAP-FC/NAP_GER_AA_4blocks_noglides","yes","no","sans","no","20","no","black","no","Weiter","yes","768","legacy","31","9","0","/Users/aviadalbert/Documents/Academisch/UoC/Dissertation/Experiment/OpenSesame/NAP-FC/NAP_GER_AA_4blocks_noglides/subject-31.csv","xpyriment","Jazzy James","3.1.9","yes","yes","59a800d99ad5a1025d81bb03","59a801616c613b0251691de0","no","no","0","f","f","space","NA","space","space","f","744","2390","17193","NA","39797","6985","744","2","legacy","1024","1","44100","-16","experiment","nval","2","1","1","0","1","Eng, Swedish","31","","odd","7816601","7798876","NA","NA","7818992","7816597","NA","6821286","7816124","6821287","6821287","7719667","7759469","7900619","7899116","7901365","7770948","7766756","7798875","NA","7660656","7701630","7797224","7766523","7816601","7766759","NA","7900619","7900619","NA","NA","7899112","NAP perception","28","25383","32","yes","1024"
"87.8787878788","yes","87.8787878788","790.090909091","790.090909091","white","no","xpyriment","Ich habe die obigen Informationen gelesen und verstanden.","legacy","legacy","0","uniform","1","0","0","undefined","undefined","1","f","2","1","NA","0","1","0","0","0","0","0","0","0","0","42","42","42","0","0","0","NA","0","0","2","0","0","0","2","42","42","42","42","42","Fri Oct 27 11:45:37 2017","Forced-choice identification task with a practice and an experimental phase","yes","NAP_GER_AA_4blocks_noglides.osexp","/Users/aviadalbert/Documents/Academisch/UoC/Dissertation/Experiment/OpenSesame/NAP-FC/NAP_GER_AA_4blocks_noglides","yes","no","sans","no","20","no","black","no","Weiter","yes","768","legacy","32","9","0","/Users/aviadalbert/Documents/Academisch/UoC/Dissertation/Experiment/OpenSesame/NAP-FC/NAP_GER_AA_4blocks_noglides/subject-31.csv","xpyriment","Jazzy James","3.1.9","yes","yes","59a800d99ad5a1025d81bb03","59a801616c613b0251691de0","no","no","0","f","f","space","NA","space","space","f","690","2390","17193","NA","39797","6985","690","2","legacy","1024","1","44100","-16","experiment","spal","2","1","1","0","1","Eng, Swedish","31","","odd","7816601","7798876","NA","NA","7818992","7816597","NA","6821286","7816124","6821287","6821287","7719667","7759469","7903149","7901645","7903841","7770948","7766756","7798875","NA","7660656","7701630","7797224","7766523","7816601","7766759","NA","7903149","7903149","NA","NA","7901641","NAP perception","29","26073","33","yes","1024"
"88.2352941176","yes","88.2352941176","791.323529412","791.323529412","white","no","xpyriment","Ich habe die obigen Informationen gelesen und verstanden.","legacy","legacy","0","uniform","1","0","0","undefined","undefined","1","f","2","1","NA","0","1","0","0","0","0","0","0","0","0","43","43","43","0","0","0","NA","0","0","2","0","0","0","2","43","43","43","43","43","Fri Oct 27 11:45:37 2017","Forced-choice identification task with a practice and an experimental phase","yes","NAP_GER_AA_4blocks_noglides.osexp","/Users/aviadalbert/Documents/Academisch/UoC/Dissertation/Experiment/OpenSesame/NAP-FC/NAP_GER_AA_4blocks_noglides","yes","no","sans","no","20","no","black","no","Weiter","yes","768","legacy","33","9","0","/Users/aviadalbert/Documents/Academisch/UoC/Dissertation/Experiment/OpenSesame/NAP-FC/NAP_GER_AA_4blocks_noglides/subject-31.csv","xpyriment","Jazzy James","3.1.9","yes","yes","59a800d99ad5a1025d81bb03","59a801616c613b0251691de0","no","no","0","f","f","space","NA","space","space","f","832","2390","17193","NA","39797","6985","832","2","legacy","1024","1","44100","-16","experiment","vlal","2","1","1","0","1","Eng, Swedish","31","","odd","7816601","7798876","NA","NA","7818992","7816597","NA","6821286","7816124","6821287","6821287","7719667","7759469","7905620","7904117","7906453","7770948","7766756","7798875","NA","7660656","7701630","7797224","7766523","7816601","7766759","NA","7905620","7905620","NA","NA","7904113","NAP perception","30","26905","34","yes","1024"
"88.5714285714","yes","88.5714285714","790.8","790.8","white","no","xpyriment","Ich habe die obigen Informationen gelesen und verstanden.","legacy","legacy","0","uniform","1","0","0","undefined","undefined","1","j","2","1","NA","0","1","0","0","0","0","0","0","0","0","44","44","44","0","0","0","NA","0","0","2","0","0","0","2","44","44","44","44","44","Fri Oct 27 11:45:37 2017","Forced-choice identification task with a practice and an experimental phase","yes","NAP_GER_AA_4blocks_noglides.osexp","/Users/aviadalbert/Documents/Academisch/UoC/Dissertation/Experiment/OpenSesame/NAP-FC/NAP_GER_AA_4blocks_noglides","yes","no","sans","no","20","no","black","no","Weiter","yes","768","legacy","34","9","0","/Users/aviadalbert/Documents/Academisch/UoC/Dissertation/Experiment/OpenSesame/NAP-FC/NAP_GER_AA_4blocks_noglides/subject-31.csv","xpyriment","Jazzy James","3.1.9","yes","yes","59a800d99ad5a1025d81bb03","59a801616c613b0251691de0","no","no","0","j","f","space","NA","space","space","j","773","2390","17193","NA","39797","6985","773","2","legacy","1024","1","44100","-16","experiment","efsal","2","1","1","0","1","Eng, Swedish","31","","odd","7816601","7798876","NA","NA","7818992","7816597","NA","6821286","7816124","6821287","6821287","7719667","7759469","7908248","7906744","7909023","7770948","7766756","7798875","NA","7660656","7701630","7797224","7766523","7816601","7766759","NA","7908247","7908248","NA","NA","7906740","NAP perception","31","27678","35","yes","1024"
"88.8888888889","yes","88.8888888889","789.027777778","789.027777778","white","no","xpyriment","Ich habe die obigen Informationen gelesen und verstanden.","legacy","legacy","0","uniform","1","0","0","undefined","undefined","1","j","2","1","NA","0","1","0","0","0","0","0","0","0","0","45","45","45","0","0","0","NA","0","0","2","0","0","0","2","45","45","45","45","45","Fri Oct 27 11:45:37 2017","Forced-choice identification task with a practice and an experimental phase","yes","NAP_GER_AA_4blocks_noglides.osexp","/Users/aviadalbert/Documents/Academisch/UoC/Dissertation/Experiment/OpenSesame/NAP-FC/NAP_GER_AA_4blocks_noglides","yes","no","sans","no","20","no","black","no","Weiter","yes","768","legacy","35","9","0","/Users/aviadalbert/Documents/Academisch/UoC/Dissertation/Experiment/OpenSesame/NAP-FC/NAP_GER_AA_4blocks_noglides/subject-31.csv","xpyriment","Jazzy James","3.1.9","yes","yes","59a800d99ad5a1025d81bb03","59a801616c613b0251691de0","no","no","0","j","f","space","NA","space","space","j","727","2390","17193","NA","39797","6985","727","2","legacy","1024","1","44100","-16","experiment","lemal","2","1","1","0","1","Eng, Swedish","31","","odd","7816601","7798876","NA","NA","7818992","7816597","NA","6821286","7816124","6821287","6821287","7719667","7759469","7910801","7909297","7911529","7770948","7766756","7798875","NA","7660656","7701630","7797224","7766523","7816601","7766759","NA","7910800","7910800","NA","NA","7909293","NAP perception","32","28405","36","yes","1024"
"89.1891891892","yes","89.1891891892","787.594594595","787.594594595","white","no","xpyriment","Ich habe die obigen Informationen gelesen und verstanden.","legacy","legacy","0","uniform","1","0","0","undefined","undefined","1","j","2","1","NA","0","1","0","0","0","0","0","0","0","0","46","46","46","0","0","0","NA","0","0","2","0","0","0","2","46","46","46","46","46","Fri Oct 27 11:45:37 2017","Forced-choice identification task with a practice and an experimental phase","yes","NAP_GER_AA_4blocks_noglides.osexp","/Users/aviadalbert/Documents/Academisch/UoC/Dissertation/Experiment/OpenSesame/NAP-FC/NAP_GER_AA_4blocks_noglides","yes","no","sans","no","20","no","black","no","Weiter","yes","768","legacy","36","9","0","/Users/aviadalbert/Documents/Academisch/UoC/Dissertation/Experiment/OpenSesame/NAP-FC/NAP_GER_AA_4blocks_noglides/subject-31.csv","xpyriment","Jazzy James","3.1.9","yes","yes","59a800d99ad5a1025d81bb03","59a801616c613b0251691de0","no","no","0","j","f","space","NA","space","space","j","736","2390","17193","NA","39797","6985","736","2","legacy","1024","1","44100","-16","experiment","emtal","2","1","1","0","1","Eng, Swedish","31","","odd","7816601","7798876","NA","NA","7818992","7816597","NA","6821286","7816124","6821287","6821287","7719667","7759469","7913318","7911813","7914055","7770948","7766756","7798875","NA","7660656","7701630","7797224","7766523","7816601","7766759","NA","7913318","7913318","NA","NA","7911809","NAP perception","33","29141","37","yes","1024"
"89.4736842105","yes","89.4736842105","780.973684211","780.973684211","white","no","xpyriment","Ich habe die obigen Informationen gelesen und verstanden.","legacy","legacy","0","uniform","1","0","0","undefined","undefined","1","f","2","1","NA","0","1","0","0","0","0","0","0","0","0","47","47","47","0","0","0","NA","0","0","2","0","0","0","2","47","47","47","47","47","Fri Oct 27 11:45:37 2017","Forced-choice identification task with a practice and an experimental phase","yes","NAP_GER_AA_4blocks_noglides.osexp","/Users/aviadalbert/Documents/Academisch/UoC/Dissertation/Experiment/OpenSesame/NAP-FC/NAP_GER_AA_4blocks_noglides","yes","no","sans","no","20","no","black","no","Weiter","yes","768","legacy","37","9","0","/Users/aviadalbert/Documents/Academisch/UoC/Dissertation/Experiment/OpenSesame/NAP-FC/NAP_GER_AA_4blocks_noglides/subject-31.csv","xpyriment","Jazzy James","3.1.9","yes","yes","59a800d99ad5a1025d81bb03","59a801616c613b0251691de0","no","no","0","f","f","space","NA","space","space","f","536","2390","17193","NA","39797","6985","536","2","legacy","1024","1","44100","-16","experiment","vlal","2","1","1","0","1","Eng, Swedish","31","","odd","7816601","7798876","NA","NA","7818992","7816597","NA","6821286","7816124","6821287","6821287","7719667","7759469","7915837","7914331","7916374","7770948","7766756","7798875","NA","7660656","7701630","7797224","7766523","7816601","7766759","NA","7915837","7915837","NA","NA","7914327","NAP perception","34","29677","38","yes","1024"
"87.1794871795","yes","87.1794871795","794.769230769","794.769230769","white","no","xpyriment","Ich habe die obigen Informationen gelesen und verstanden.","legacy","legacy","0","uniform","0","0","0","undefined","undefined","0","f","2","1","NA","0","1","0","0","0","0","0","0","0","0","48","48","48","0","0","0","NA","0","0","2","0","0","0","2","48","48","48","48","48","Fri Oct 27 11:45:37 2017","Forced-choice identification task with a practice and an experimental phase","yes","NAP_GER_AA_4blocks_noglides.osexp","/Users/aviadalbert/Documents/Academisch/UoC/Dissertation/Experiment/OpenSesame/NAP-FC/NAP_GER_AA_4blocks_noglides","yes","no","sans","no","20","no","black","no","Weiter","yes","768","legacy","38","9","0","/Users/aviadalbert/Documents/Academisch/UoC/Dissertation/Experiment/OpenSesame/NAP-FC/NAP_GER_AA_4blocks_noglides/subject-31.csv","xpyriment","Jazzy James","3.1.9","yes","yes","59a800d99ad5a1025d81bb03","59a801616c613b0251691de0","no","no","0","j","f","space","NA","space","space","j","1319","2390","17193","NA","39797","6985","1319","2","legacy","1024","1","44100","-16","experiment","lpal","2","1","1","0","1","Eng, Swedish","31","","odd","7816601","7798876","NA","NA","7818992","7816597","NA","6821286","7816124","6821287","6821287","7719667","7759469","7918148","7916644","7919468","7770948","7766756","7798875","NA","7660656","7701630","7797224","7766523","7816601","7766759","NA","7918148","7918148","NA","NA","7916640","NAP perception","34","30996","39","yes","1024"
"87.5","yes","87.5","796.525","796.525","white","no","xpyriment","Ich habe die obigen Informationen gelesen und verstanden.","legacy","legacy","0","uniform","1","0","0","undefined","undefined","1","j","2","1","NA","0","1","0","0","0","0","0","0","0","0","49","49","49","0","0","0","NA","0","0","2","0","0","0","2","49","49","49","49","49","Fri Oct 27 11:45:37 2017","Forced-choice identification task with a practice and an experimental phase","yes","NAP_GER_AA_4blocks_noglides.osexp","/Users/aviadalbert/Documents/Academisch/UoC/Dissertation/Experiment/OpenSesame/NAP-FC/NAP_GER_AA_4blocks_noglides","yes","no","sans","no","20","no","black","no","Weiter","yes","768","legacy","39","9","0","/Users/aviadalbert/Documents/Academisch/UoC/Dissertation/Experiment/OpenSesame/NAP-FC/NAP_GER_AA_4blocks_noglides/subject-31.csv","xpyriment","Jazzy James","3.1.9","yes","yes","59a800d99ad5a1025d81bb03","59a801616c613b0251691de0","no","no","0","j","f","space","NA","space","space","j","865","2390","17193","NA","39797","6985","865","2","legacy","1024","1","44100","-16","experiment","esmal","2","1","1","0","1","Eng, Swedish","31","","odd","7816601","7798876","NA","NA","7818992","7816597","NA","6821286","7816124","6821287","6821287","7719667","7759469","7921259","7919756","7922125","7770948","7766756","7798875","NA","7660656","7701630","7797224","7766523","7816601","7766759","NA","7921259","7921259","NA","NA","7919752","NAP perception","35","31861","40","yes","1024"
"87.8048780488","yes","87.8048780488","795.512195122","795.512195122","white","no","xpyriment","Ich habe die obigen Informationen gelesen und verstanden.","legacy","legacy","0","uniform","1","0","0","undefined","undefined","1","f","2","1","NA","0","1","0","0","0","0","0","0","0","0","50","50","50","0","0","0","NA","0","0","2","0","0","0","2","50","50","50","50","50","Fri Oct 27 11:45:37 2017","Forced-choice identification task with a practice and an experimental phase","yes","NAP_GER_AA_4blocks_noglides.osexp","/Users/aviadalbert/Documents/Academisch/UoC/Dissertation/Experiment/OpenSesame/NAP-FC/NAP_GER_AA_4blocks_noglides","yes","no","sans","no","20","no","black","no","Weiter","yes","768","legacy","40","9","0","/Users/aviadalbert/Documents/Academisch/UoC/Dissertation/Experiment/OpenSesame/NAP-FC/NAP_GER_AA_4blocks_noglides/subject-31.csv","xpyriment","Jazzy James","3.1.9","yes","yes","59a800d99ad5a1025d81bb03","59a801616c613b0251691de0","no","no","0","f","f","space","NA","space","space","f","755","2390","17193","NA","39797","6985","755","2","legacy","1024","1","44100","-16","experiment","lkal","2","1","1","0","1","Eng, Swedish","31","","odd","7816601","7798876","NA","NA","7818992","7816597","NA","6821286","7816124","6821287","6821287","7719667","7759469","7923898","7922395","7924654","7770948","7766756","7798875","NA","7660656","7701630","7797224","7766523","7816601","7766759","NA","7923898","7923898","NA","NA","7922391","NAP perception","36","32616","41","yes","1024"
"85.7142857143","yes","85.7142857143","807.476190476","807.476190476","white","no","xpyriment","Ich habe die obigen Informationen gelesen und verstanden.","legacy","legacy","0","uniform","0","0","0","undefined","undefined","0","f","2","1","NA","0","1","0","0","0","0","0","0","0","0","51","51","51","0","0","0","NA","0","0","2","0","0","0","2","51","51","51","51","51","Fri Oct 27 11:45:37 2017","Forced-choice identification task with a practice and an experimental phase","yes","NAP_GER_AA_4blocks_noglides.osexp","/Users/aviadalbert/Documents/Academisch/UoC/Dissertation/Experiment/OpenSesame/NAP-FC/NAP_GER_AA_4blocks_noglides","yes","no","sans","no","20","no","black","no","Weiter","yes","768","legacy","41","9","0","/Users/aviadalbert/Documents/Academisch/UoC/Dissertation/Experiment/OpenSesame/NAP-FC/NAP_GER_AA_4blocks_noglides/subject-31.csv","xpyriment","Jazzy James","3.1.9","yes","yes","59a800d99ad5a1025d81bb03","59a801616c613b0251691de0","no","no","0","j","f","space","NA","space","space","j","1298","2390","17193","NA","39797","6985","1298","2","legacy","1024","1","44100","-16","experiment","msal","2","1","1","0","1","Eng, Swedish","31","","odd","7816601","7798876","NA","NA","7818992","7816597","NA","6821286","7816124","6821287","6821287","7719667","7759469","7926437","7924931","7927737","7770948","7766756","7798875","NA","7660656","7701630","7797224","7766523","7816601","7766759","NA","7926437","7926437","NA","NA","7924928","NAP perception","36","33914","42","yes","1024"
"86.0465116279","yes","86.0465116279","806.046511628","806.046511628","white","no","xpyriment","Ich habe die obigen Informationen gelesen und verstanden.","legacy","legacy","0","uniform","1","0","0","undefined","undefined","1","f","2","1","NA","0","1","0","0","0","0","0","0","0","0","52","52","52","0","0","0","NA","0","0","2","0","0","0","2","52","52","52","52","52","Fri Oct 27 11:45:37 2017","Forced-choice identification task with a practice and an experimental phase","yes","NAP_GER_AA_4blocks_noglides.osexp","/Users/aviadalbert/Documents/Academisch/UoC/Dissertation/Experiment/OpenSesame/NAP-FC/NAP_GER_AA_4blocks_noglides","yes","no","sans","no","20","no","black","no","Weiter","yes","768","legacy","42","9","0","/Users/aviadalbert/Documents/Academisch/UoC/Dissertation/Experiment/OpenSesame/NAP-FC/NAP_GER_AA_4blocks_noglides/subject-31.csv","xpyriment","Jazzy James","3.1.9","yes","yes","59a800d99ad5a1025d81bb03","59a801616c613b0251691de0","no","no","0","f","f","space","NA","space","space","f","746","2390","17193","NA","39797","6985","746","2","legacy","1024","1","44100","-16","experiment","sfal","2","1","1","0","1","Eng, Swedish","31","","odd","7816601","7798876","NA","NA","7818992","7816597","NA","6821286","7816124","6821287","6821287","7719667","7759469","7929533","7928029","7930281","7770948","7766756","7798875","NA","7660656","7701630","7797224","7766523","7816601","7766759","NA","7929533","7929533","NA","NA","7928025","NAP perception","37","34660","43","yes","1024"
"86.3636363636","yes","86.3636363636","803.75","803.75","white","no","xpyriment","Ich habe die obigen Informationen gelesen und verstanden.","legacy","legacy","0","uniform","1","0","0","undefined","undefined","1","f","2","1","NA","0","1","0","0","0","0","0","0","0","0","53","53","53","0","0","0","NA","0","0","2","0","0","0","2","53","53","53","53","53","Fri Oct 27 11:45:37 2017","Forced-choice identification task with a practice and an experimental phase","yes","NAP_GER_AA_4blocks_noglides.osexp","/Users/aviadalbert/Documents/Academisch/UoC/Dissertation/Experiment/OpenSesame/NAP-FC/NAP_GER_AA_4blocks_noglides","yes","no","sans","no","20","no","black","no","Weiter","yes","768","legacy","43","9","0","/Users/aviadalbert/Documents/Academisch/UoC/Dissertation/Experiment/OpenSesame/NAP-FC/NAP_GER_AA_4blocks_noglides/subject-31.csv","xpyriment","Jazzy James","3.1.9","yes","yes","59a800d99ad5a1025d81bb03","59a801616c613b0251691de0","no","no","0","f","f","space","NA","space","space","f","705","2390","17193","NA","39797","6985","705","2","legacy","1024","1","44100","-16","experiment","vzal","2","1","1","0","1","Eng, Swedish","31","","odd","7816601","7798876","NA","NA","7818992","7816597","NA","6821286","7816124","6821287","6821287","7719667","7759469","7932046","7930542","7932753","7770948","7766756","7798875","NA","7660656","7701630","7797224","7766523","7816601","7766759","NA","7932046","7932046","NA","NA","7930539","NAP perception","38","35365","44","yes","1024"
"86.6666666667","yes","86.6666666667","800.066666667","800.066666667","white","no","xpyriment","Ich habe die obigen Informationen gelesen und verstanden.","legacy","legacy","0","uniform","1","0","0","undefined","undefined","1","f","2","1","NA","0","1","0","0","0","0","0","0","0","0","54","54","54","0","0","0","NA","0","0","2","0","0","0","2","54","54","54","54","54","Fri Oct 27 11:45:37 2017","Forced-choice identification task with a practice and an experimental phase","yes","NAP_GER_AA_4blocks_noglides.osexp","/Users/aviadalbert/Documents/Academisch/UoC/Dissertation/Experiment/OpenSesame/NAP-FC/NAP_GER_AA_4blocks_noglides","yes","no","sans","no","20","no","black","no","Weiter","yes","768","legacy","44","9","0","/Users/aviadalbert/Documents/Academisch/UoC/Dissertation/Experiment/OpenSesame/NAP-FC/NAP_GER_AA_4blocks_noglides/subject-31.csv","xpyriment","Jazzy James","3.1.9","yes","yes","59a800d99ad5a1025d81bb03","59a801616c613b0251691de0","no","no","0","f","f","space","NA","space","space","f","638","2390","17193","NA","39797","6985","638","2","legacy","1024","1","44100","-16","experiment","lval","2","1","1","0","1","Eng, Swedish","31","","odd","7816601","7798876","NA","NA","7818992","7816597","NA","6821286","7816124","6821287","6821287","7719667","7759469","7934521","7933018","7935161","7770948","7766756","7798875","NA","7660656","7701630","7797224","7766523","7816601","7766759","NA","7934521","7934521","NA","NA","7933014","NAP perception","39","36003","45","yes","1024"
"86.9565217391","yes","86.9565217391","798.086956522","798.086956522","white","no","xpyriment","Ich habe die obigen Informationen gelesen und verstanden.","legacy","legacy","0","uniform","1","0","0","undefined","undefined","1","j","2","1","NA","0","1","0","0","0","0","0","0","0","0","55","55","55","0","0","0","NA","0","0","2","0","0","0","2","55","55","55","55","55","Fri Oct 27 11:45:37 2017","Forced-choice identification task with a practice and an experimental phase","yes","NAP_GER_AA_4blocks_noglides.osexp","/Users/aviadalbert/Documents/Academisch/UoC/Dissertation/Experiment/OpenSesame/NAP-FC/NAP_GER_AA_4blocks_noglides","yes","no","sans","no","20","no","black","no","Weiter","yes","768","legacy","45","9","0","/Users/aviadalbert/Documents/Academisch/UoC/Dissertation/Experiment/OpenSesame/NAP-FC/NAP_GER_AA_4blocks_noglides/subject-31.csv","xpyriment","Jazzy James","3.1.9","yes","yes","59a800d99ad5a1025d81bb03","59a801616c613b0251691de0","no","no","0","j","f","space","NA","space","space","j","709","2390","17193","NA","39797","6985","709","2","legacy","1024","1","44100","-16","experiment","lepal","2","1","1","0","1","Eng, Swedish","31","","odd","7816601","7798876","NA","NA","7818992","7816597","NA","6821286","7816124","6821287","6821287","7719667","7759469","7936936","7935431","7937647","7770948","7766756","7798875","NA","7660656","7701630","7797224","7766523","7816601","7766759","NA","7936936","7936936","NA","NA","7935427","NAP perception","40","36712","46","yes","1024"
"87.2340425532","yes","87.2340425532","795.723404255","795.723404255","white","no","xpyriment","Ich habe die obigen Informationen gelesen und verstanden.","legacy","legacy","0","uniform","1","0","0","undefined","undefined","1","f","2","1","NA","0","1","0","0","0","0","0","0","0","0","56","56","56","0","0","0","NA","0","0","2","0","0","0","2","56","56","56","56","56","Fri Oct 27 11:45:37 2017","Forced-choice identification task with a practice and an experimental phase","yes","NAP_GER_AA_4blocks_noglides.osexp","/Users/aviadalbert/Documents/Academisch/UoC/Dissertation/Experiment/OpenSesame/NAP-FC/NAP_GER_AA_4blocks_noglides","yes","no","sans","no","20","no","black","no","Weiter","yes","768","legacy","46","9","0","/Users/aviadalbert/Documents/Academisch/UoC/Dissertation/Experiment/OpenSesame/NAP-FC/NAP_GER_AA_4blocks_noglides/subject-31.csv","xpyriment","Jazzy James","3.1.9","yes","yes","59a800d99ad5a1025d81bb03","59a801616c613b0251691de0","no","no","0","f","f","space","NA","space","space","f","687","2390","17193","NA","39797","6985","687","2","legacy","1024","1","44100","-16","experiment","ʃmal","2","1","1","0","1","Eng, Swedish","31","","odd","7816601","7798876","NA","NA","7818992","7816597","NA","6821286","7816124","6821287","6821287","7719667","7759469","7939444","7937940","7940133","7770948","7766756","7798875","NA","7660656","7701630","7797224","7766523","7816601","7766759","NA","7939444","7939444","NA","NA","7937937","NAP perception","41","37399","47","yes","1024"
"87.5","yes","87.5","793.895833333","793.895833333","white","no","xpyriment","Ich habe die obigen Informationen gelesen und verstanden.","legacy","legacy","0","uniform","1","0","0","undefined","undefined","1","j","2","1","NA","0","1","0","0","0","0","0","0","0","0","57","57","57","0","0","0","NA","0","0","2","0","0","0","2","57","57","57","57","57","Fri Oct 27 11:45:37 2017","Forced-choice identification task with a practice and an experimental phase","yes","NAP_GER_AA_4blocks_noglides.osexp","/Users/aviadalbert/Documents/Academisch/UoC/Dissertation/Experiment/OpenSesame/NAP-FC/NAP_GER_AA_4blocks_noglides","yes","no","sans","no","20","no","black","no","Weiter","yes","768","legacy","47","9","0","/Users/aviadalbert/Documents/Academisch/UoC/Dissertation/Experiment/OpenSesame/NAP-FC/NAP_GER_AA_4blocks_noglides/subject-31.csv","xpyriment","Jazzy James","3.1.9","yes","yes","59a800d99ad5a1025d81bb03","59a801616c613b0251691de0","no","no","0","j","f","space","NA","space","space","j","708","2390","17193","NA","39797","6985","708","2","legacy","1024","1","44100","-16","experiment","mezal","2","1","1","0","1","Eng, Swedish","31","","odd","7816601","7798876","NA","NA","7818992","7816597","NA","6821286","7816124","6821287","6821287","7719667","7759469","7941903","7940395","7942613","7770948","7766756","7798875","NA","7660656","7701630","7797224","7766523","7816601","7766759","NA","7941902","7941903","NA","NA","7940391","NAP perception","42","38107","48","yes","1024"
"87.7551020408","yes","87.7551020408","792.448979592","792.448979592","white","no","xpyriment","Ich habe die obigen Informationen gelesen und verstanden.","legacy","legacy","0","uniform","1","0","0","undefined","undefined","1","j","2","1","NA","0","1","0","0","0","0","0","0","0","0","58","58","58","0","0","0","NA","0","0","2","0","0","0","2","58","58","58","58","58","Fri Oct 27 11:45:37 2017","Forced-choice identification task with a practice and an experimental phase","yes","NAP_GER_AA_4blocks_noglides.osexp","/Users/aviadalbert/Documents/Academisch/UoC/Dissertation/Experiment/OpenSesame/NAP-FC/NAP_GER_AA_4blocks_noglides","yes","no","sans","no","20","no","black","no","Weiter","yes","768","legacy","48","9","0","/Users/aviadalbert/Documents/Academisch/UoC/Dissertation/Experiment/OpenSesame/NAP-FC/NAP_GER_AA_4blocks_noglides/subject-31.csv","xpyriment","Jazzy James","3.1.9","yes","yes","59a800d99ad5a1025d81bb03","59a801616c613b0251691de0","no","no","0","j","f","space","NA","space","space","j","723","2390","17193","NA","39797","6985","723","2","legacy","1024","1","44100","-16","experiment","semal","2","1","1","0","1","Eng, Swedish","31","","odd","7816601","7798876","NA","NA","7818992","7816597","NA","6821286","7816124","6821287","6821287","7719667","7759469","7944399","7942895","7945124","7770948","7766756","7798875","NA","7660656","7701630","7797224","7766523","7816601","7766759","NA","7944399","7944399","NA","NA","7942891","NAP perception","43","38830","49","yes","1024"
"88","yes","88","791.26","791.26","white","no","xpyriment","Ich habe die obigen Informationen gelesen und verstanden.","legacy","legacy","0","uniform","1","0","0","undefined","undefined","1","j","2","1","NA","0","1","0","0","0","0","0","0","0","0","59","59","59","0","0","0","NA","0","0","2","0","0","0","2","59","59","59","59","59","Fri Oct 27 11:45:37 2017","Forced-choice identification task with a practice and an experimental phase","yes","NAP_GER_AA_4blocks_noglides.osexp","/Users/aviadalbert/Documents/Academisch/UoC/Dissertation/Experiment/OpenSesame/NAP-FC/NAP_GER_AA_4blocks_noglides","yes","no","sans","no","20","no","black","no","Weiter","yes","768","legacy","49","9","0","/Users/aviadalbert/Documents/Academisch/UoC/Dissertation/Experiment/OpenSesame/NAP-FC/NAP_GER_AA_4blocks_noglides/subject-31.csv","xpyriment","Jazzy James","3.1.9","yes","yes","59a800d99ad5a1025d81bb03","59a801616c613b0251691de0","no","no","0","j","f","space","NA","space","space","j","733","2390","17193","NA","39797","6985","733","2","legacy","1024","1","44100","-16","experiment","elmal","2","1","1","0","1","Eng, Swedish","31","","odd","7816601","7798876","NA","NA","7818992","7816597","NA","6821286","7816124","6821287","6821287","7719667","7759469","7946907","7945401","7947642","7770948","7766756","7798875","NA","7660656","7701630","7797224","7766523","7816601","7766759","NA","7946907","7946907","NA","NA","7945397","NAP perception","44","39563","50","yes","1024"
"88.2352941176","yes","88.2352941176","791.725490196","791.725490196","white","no","xpyriment","Ich habe die obigen Informationen gelesen und verstanden.","legacy","legacy","0","uniform","1","0","0","undefined","undefined","1","f","2","1","NA","0","1","0","0","0","0","0","0","0","0","60","60","60","0","0","0","NA","0","0","2","0","0","0","2","60","60","60","60","60","Fri Oct 27 11:45:37 2017","Forced-choice identification task with a practice and an experimental phase","yes","NAP_GER_AA_4blocks_noglides.osexp","/Users/aviadalbert/Documents/Academisch/UoC/Dissertation/Experiment/OpenSesame/NAP-FC/NAP_GER_AA_4blocks_noglides","yes","no","sans","no","20","no","black","no","Weiter","yes","768","legacy","50","9","0","/Users/aviadalbert/Documents/Academisch/UoC/Dissertation/Experiment/OpenSesame/NAP-FC/NAP_GER_AA_4blocks_noglides/subject-31.csv","xpyriment","Jazzy James","3.1.9","yes","yes","59a800d99ad5a1025d81bb03","59a801616c613b0251691de0","no","no","0","f","f","space","NA","space","space","f","815","2390","17193","NA","39797","6985","815","2","legacy","1024","1","44100","-16","experiment","lmal","2","1","1","0","1","Eng, Swedish","31","","odd","7816601","7798876","NA","NA","7818992","7816597","NA","6821286","7816124","6821287","6821287","7719667","7759469","7949420","7947917","7950237","7770948","7766756","7798875","NA","7660656","7701630","7797224","7766523","7816601","7766759","NA","7949420","7949420","NA","NA","7947913","NAP perception","45","40378","51","yes","1024"
"88.4615384615","yes","88.4615384615","792.153846154","792.153846154","white","no","xpyriment","Ich habe die obigen Informationen gelesen und verstanden.","legacy","legacy","0","uniform","1","0","0","undefined","undefined","1","j","2","1","NA","0","1","0","0","0","0","0","0","0","0","61","61","61","0","0","0","NA","0","0","2","0","0","0","2","61","61","61","61","61","Fri Oct 27 11:45:37 2017","Forced-choice identification task with a practice and an experimental phase","yes","NAP_GER_AA_4blocks_noglides.osexp","/Users/aviadalbert/Documents/Academisch/UoC/Dissertation/Experiment/OpenSesame/NAP-FC/NAP_GER_AA_4blocks_noglides","yes","no","sans","no","20","no","black","no","Weiter","yes","768","legacy","51","9","0","/Users/aviadalbert/Documents/Academisch/UoC/Dissertation/Experiment/OpenSesame/NAP-FC/NAP_GER_AA_4blocks_noglides/subject-31.csv","xpyriment","Jazzy James","3.1.9","yes","yes","59a800d99ad5a1025d81bb03","59a801616c613b0251691de0","no","no","0","j","f","space","NA","space","space","j","814","2390","17193","NA","39797","6985","814","2","legacy","1024","1","44100","-16","experiment","velal","2","1","1","0","1","Eng, Swedish","31","","odd","7816601","7798876","NA","NA","7818992","7816597","NA","6821286","7816124","6821287","6821287","7719667","7759469","7952008","7950505","7952824","7770948","7766756","7798875","NA","7660656","7701630","7797224","7766523","7816601","7766759","NA","7952008","7952008","NA","NA","7950501","NAP perception","46","41192","52","yes","1024"
"88.679245283","yes","88.679245283","793.320754717","793.320754717","white","no","xpyriment","Ich habe die obigen Informationen gelesen und verstanden.","legacy","legacy","0","uniform","1","0","0","undefined","undefined","1","j","2","1","NA","0","1","0","0","0","0","0","0","0","0","62","62","62","0","0","0","NA","0","0","2","0","0","0","2","62","62","62","62","62","Fri Oct 27 11:45:37 2017","Forced-choice identification task with a practice and an experimental phase","yes","NAP_GER_AA_4blocks_noglides.osexp","/Users/aviadalbert/Documents/Academisch/UoC/Dissertation/Experiment/OpenSesame/NAP-FC/NAP_GER_AA_4blocks_noglides","yes","no","sans","no","20","no","black","no","Weiter","yes","768","legacy","52","9","0","/Users/aviadalbert/Documents/Academisch/UoC/Dissertation/Experiment/OpenSesame/NAP-FC/NAP_GER_AA_4blocks_noglides/subject-31.csv","xpyriment","Jazzy James","3.1.9","yes","yes","59a800d99ad5a1025d81bb03","59a801616c613b0251691de0","no","no","0","j","f","space","NA","space","space","j","854","2390","17193","NA","39797","6985","854","2","legacy","1024","1","44100","-16","experiment","lekal","2","1","1","0","1","Eng, Swedish","31","","odd","7816601","7798876","NA","NA","7818992","7816597","NA","6821286","7816124","6821287","6821287","7719667","7759469","7954608","7953105","7955463","7770948","7766756","7798875","NA","7660656","7701630","7797224","7766523","7816601","7766759","NA","7954608","7954608","NA","NA","7953101","NAP perception","47","42046","53","yes","1024"
"88.8888888889","yes","88.8888888889","794.259259259","794.259259259","white","no","xpyriment","Ich habe die obigen Informationen gelesen und verstanden.","legacy","legacy","0","uniform","1","0","0","undefined","undefined","1","f","2","1","NA","0","1","0","0","0","0","0","0","0","0","63","63","63","0","0","0","NA","0","0","2","0","0","0","2","63","63","63","63","63","Fri Oct 27 11:45:37 2017","Forced-choice identification task with a practice and an experimental phase","yes","NAP_GER_AA_4blocks_noglides.osexp","/Users/aviadalbert/Documents/Academisch/UoC/Dissertation/Experiment/OpenSesame/NAP-FC/NAP_GER_AA_4blocks_noglides","yes","no","sans","no","20","no","black","no","Weiter","yes","768","legacy","53","9","0","/Users/aviadalbert/Documents/Academisch/UoC/Dissertation/Experiment/OpenSesame/NAP-FC/NAP_GER_AA_4blocks_noglides/subject-31.csv","xpyriment","Jazzy James","3.1.9","yes","yes","59a800d99ad5a1025d81bb03","59a801616c613b0251691de0","no","no","0","f","f","space","NA","space","space","f","844","2390","17193","NA","39797","6985","844","2","legacy","1024","1","44100","-16","experiment","lmal","2","1","1","0","1","Eng, Swedish","31","","odd","7816601","7798876","NA","NA","7818992","7816597","NA","6821286","7816124","6821287","6821287","7719667","7759469","7957244","7955740","7958089","7770948","7766756","7798875","NA","7660656","7701630","7797224","7766523","7816601","7766759","NA","7957244","7957244","NA","NA","7955737","NAP perception","48","42890","54","yes","1024"
"89.0909090909","yes","89.0909090909","792.963636364","792.963636364","white","no","xpyriment","Ich habe die obigen Informationen gelesen und verstanden.","legacy","legacy","0","uniform","1","0","0","undefined","undefined","1","f","2","1","NA","0","1","0","0","0","0","0","0","0","0","64","64","64","0","0","0","NA","0","0","2","0","0","0","2","64","64","64","64","64","Fri Oct 27 11:45:37 2017","Forced-choice identification task with a practice and an experimental phase","yes","NAP_GER_AA_4blocks_noglides.osexp","/Users/aviadalbert/Documents/Academisch/UoC/Dissertation/Experiment/OpenSesame/NAP-FC/NAP_GER_AA_4blocks_noglides","yes","no","sans","no","20","no","black","no","Weiter","yes","768","legacy","54","9","0","/Users/aviadalbert/Documents/Academisch/UoC/Dissertation/Experiment/OpenSesame/NAP-FC/NAP_GER_AA_4blocks_noglides/subject-31.csv","xpyriment","Jazzy James","3.1.9","yes","yes","59a800d99ad5a1025d81bb03","59a801616c613b0251691de0","no","no","0","f","f","space","NA","space","space","f","723","2390","17193","NA","39797","6985","723","2","legacy","1024","1","44100","-16","experiment","npal","2","1","1","0","1","Eng, Swedish","31","","odd","7816601","7798876","NA","NA","7818992","7816597","NA","6821286","7816124","6821287","6821287","7719667","7759469","7959878","7958374","7960602","7770948","7766756","7798875","NA","7660656","7701630","7797224","7766523","7816601","7766759","NA","7959878","7959878","NA","NA","7958370","NAP perception","49","43613","55","yes","1024"
