"acc","accept_status","accuracy","average_response_time","avg_rt","background","bidi","canvas_backend","checkbox_status","clock_backend","color_backend","compensation","coordinates","correct","correct_block_activation","correct_block_exit","correct_instructions_1","correct_instructions_2","correct_keyboard_response","correct_response","count_block_activation","count_block_exit","count_block_info_QA","count_cont_e_block_message","count_e_block_loop","count_e_block_sequence","count_end_of_experiment","count_experiment","count_experimental_loop","count_form_consent","count_info_forms","count_instructions_1","count_instructions_2","count_keyboard_response","count_listen_message","count_logger","count_p_block_loop","count_p_block_sequence","count_p_feedback","count_pause_feedback","count_personal_details_form_1","count_personal_details_form_2","count_post_loop_blank","count_practice_loop","count_pre_e_block_message","count_pre_p_block_message","count_reset_feedback","count_stimulus_image","count_stimulus_sound","count_timeout_message","count_timeout_sound","count_trial_sequence","datetime","description","disable_garbage_collection","experiment_file","experiment_path","expyriment_opengl","font_bold","font_family","font_italic","font_size","font_underline","foreground","form_clicks","form_response","fullscreen","height","keyboard_backend","live_row","live_row_p_block_loop","live_row_practice_loop","logfile","mouse_backend","opensesame_codename","opensesame_version","osf_always_upload_data","osf_always_upload_experiment","osf_datanode_id","osf_id","practice","pygame_doublebuf","repeat_cycle","response","response_block_activation","response_block_exit","response_block_info_QA","response_instructions_1","response_instructions_2","response_keyboard_response","response_time","response_time_block_activation","response_time_block_exit","response_time_block_info_QA","response_time_instructions_1","response_time_instructions_2","response_time_keyboard_response","round_decimals","sampler_backend","sound_buf_size","sound_channels","sound_freq","sound_sample_size","start","stimulus","subject_age","subject_education","subject_gender","subject_german_native","subject_handedness","subject_language_other","subject_nr","subject_other_native_lang","subject_parity","time_block_activation","time_block_exit","time_block_info_QA","time_cont_e_block_message","time_e_block_loop","time_e_block_sequence","time_end_of_experiment","time_experiment","time_experimental_loop","time_form_consent","time_info_forms","time_instructions_1","time_instructions_2","time_keyboard_response","time_listen_message","time_logger","time_p_block_loop","time_p_block_sequence","time_p_feedback","time_pause_feedback","time_personal_details_form_1","time_personal_details_form_2","time_post_loop_blank","time_practice_loop","time_pre_e_block_message","time_pre_p_block_message","time_reset_feedback","time_stimulus_image","time_stimulus_sound","time_timeout_message","time_timeout_sound","time_trial_sequence","title","total_correct","total_response_time","total_responses","uniform_coordinates","width"
"100","yes","100","929","929","white","no","xpyriment","Ich habe die obigen Informationen gelesen und verstanden.","legacy","legacy","0","uniform","1","0","NA","undefined","undefined","1","f","0","0","NA","NA","NA","NA","NA","0","0","0","0","0","0","0","0","0","0","0","NA","NA","0","0","0","0","NA","0","0","0","0","0","0","0","Thu Oct 26 10:31:11 2017","Forced-choice identification task with a practice and an experimental phase","yes","NAP_GER_AA_4blocks_noglides.osexp","/Users/aviadalbert/Documents/Academisch/UoC/Dissertation/Experiment/OpenSesame/NAP-FC/NAP_GER_AA_4blocks_noglides","yes","no","sans","no","20","no","black","no","Weiter","yes","768","legacy","0","0","0","/Users/aviadalbert/Documents/Academisch/UoC/Dissertation/Experiment/OpenSesame/NAP-FC/NAP_GER_AA_4blocks_noglides/subject-20.csv","xpyriment","Jazzy James","3.1.9","yes","yes","59a800d99ad5a1025d81bb03","59a801616c613b0251691de0","yes","no","0","f","f","NA","NA","space","space","f","929","4646","NA","NA","21756","20816","929","2","legacy","1024","1","44100","-16","experiment","flal","2","1","1","0","1","eng,fra,dutch","20","","even","2532233","NA","NA","NA","NA","NA","NA","2445456","NA","2445457","2445457","2489376","2511137","2538595","2537090","2539526","2536880","2532229","NA","NA","2448331","2476048","NA","2532015","NA","2532233","NA","2538595","2538595","NA","NA","2537087","NAP perception","1","929","1","yes","1024"
"100","yes","100","892.5","892.5","white","no","xpyriment","Ich habe die obigen Informationen gelesen und verstanden.","legacy","legacy","0","uniform","1","0","NA","undefined","undefined","1","j","0","0","NA","NA","NA","NA","NA","0","0","0","0","0","0","1","1","1","0","0","NA","NA","0","0","0","0","NA","0","0","1","1","1","1","1","Thu Oct 26 10:31:11 2017","Forced-choice identification task with a practice and an experimental phase","yes","NAP_GER_AA_4blocks_noglides.osexp","/Users/aviadalbert/Documents/Academisch/UoC/Dissertation/Experiment/OpenSesame/NAP-FC/NAP_GER_AA_4blocks_noglides","yes","no","sans","no","20","no","black","no","Weiter","yes","768","legacy","1","1","0","/Users/aviadalbert/Documents/Academisch/UoC/Dissertation/Experiment/OpenSesame/NAP-FC/NAP_GER_AA_4blocks_noglides/subject-20.csv","xpyriment","Jazzy James","3.1.9","yes","yes","59a800d99ad5a1025d81bb03","59a801616c613b0251691de0","yes","no","0","j","f","NA","NA","space","space","j","856","4646","NA","NA","21756","20816","856","2","legacy","1024","1","44100","-16","experiment","lepal","2","1","1","0","1","eng,fra,dutch","20","","even","2532233","NA","NA","NA","NA","NA","NA","2445456","NA","2445457","2445457","2489376","2511137","2541315","2539812","2542173","2536880","2532229","NA","NA","2448331","2476048","NA","2532015","NA","2532233","NA","2541315","2541315","NA","NA","2539808","NAP perception","2","1785","2","yes","1024"
"100","yes","100","854","854","white","no","xpyriment","Ich habe die obigen Informationen gelesen und verstanden.","legacy","legacy","0","uniform","1","0","NA","undefined","undefined","1","j","0","0","NA","NA","NA","NA","NA","0","0","0","0","0","0","2","2","2","0","0","NA","NA","0","0","0","0","NA","0","0","2","2","2","2","2","Thu Oct 26 10:31:11 2017","Forced-choice identification task with a practice and an experimental phase","yes","NAP_GER_AA_4blocks_noglides.osexp","/Users/aviadalbert/Documents/Academisch/UoC/Dissertation/Experiment/OpenSesame/NAP-FC/NAP_GER_AA_4blocks_noglides","yes","no","sans","no","20","no","black","no","Weiter","yes","768","legacy","2","2","0","/Users/aviadalbert/Documents/Academisch/UoC/Dissertation/Experiment/OpenSesame/NAP-FC/NAP_GER_AA_4blocks_noglides/subject-20.csv","xpyriment","Jazzy James","3.1.9","yes","yes","59a800d99ad5a1025d81bb03","59a801616c613b0251691de0","yes","no","0","j","f","NA","NA","space","space","j","777","4646","NA","NA","21756","20816","777","2","legacy","1024","1","44100","-16","experiment","emtal","2","1","1","0","1","eng,fra,dutch","20","","even","2532233","NA","NA","NA","NA","NA","NA","2445456","NA","2445457","2445457","2489376","2511137","2543948","2542442","2544727","2536880","2532229","NA","NA","2448331","2476048","NA","2532015","NA","2532233","NA","2543948","2543948","NA","NA","2542438","NAP perception","3","2562","3","yes","1024"
"100","yes","100","853","853","white","no","xpyriment","Ich habe die obigen Informationen gelesen und verstanden.","legacy","legacy","0","uniform","1","0","NA","undefined","undefined","1","f","0","0","NA","NA","NA","NA","NA","0","0","0","0","0","0","3","3","3","0","0","NA","NA","0","0","0","0","NA","0","0","3","3","3","3","3","Thu Oct 26 10:31:11 2017","Forced-choice identification task with a practice and an experimental phase","yes","NAP_GER_AA_4blocks_noglides.osexp","/Users/aviadalbert/Documents/Academisch/UoC/Dissertation/Experiment/OpenSesame/NAP-FC/NAP_GER_AA_4blocks_noglides","yes","no","sans","no","20","no","black","no","Weiter","yes","768","legacy","3","3","0","/Users/aviadalbert/Documents/Academisch/UoC/Dissertation/Experiment/OpenSesame/NAP-FC/NAP_GER_AA_4blocks_noglides/subject-20.csv","xpyriment","Jazzy James","3.1.9","yes","yes","59a800d99ad5a1025d81bb03","59a801616c613b0251691de0","yes","no","0","f","f","NA","NA","space","space","f","850","4646","NA","NA","21756","20816","850","2","legacy","1024","1","44100","-16","experiment","ʃpal","2","1","1","0","1","eng,fra,dutch","20","","even","2532233","NA","NA","NA","NA","NA","NA","2445456","NA","2445457","2445457","2489376","2511137","2546518","2545014","2547370","2536880","2532229","NA","NA","2448331","2476048","NA","2532015","NA","2532233","NA","2546517","2546518","NA","NA","2545010","NAP perception","4","3412","4","yes","1024"
"100","yes","100","819.6","819.6","white","no","xpyriment","Ich habe die obigen Informationen gelesen und verstanden.","legacy","legacy","0","uniform","1","0","NA","undefined","undefined","1","j","0","0","NA","NA","NA","NA","NA","0","0","0","0","0","0","4","4","4","0","0","NA","NA","0","0","0","0","NA","0","0","4","4","4","4","4","Thu Oct 26 10:31:11 2017","Forced-choice identification task with a practice and an experimental phase","yes","NAP_GER_AA_4blocks_noglides.osexp","/Users/aviadalbert/Documents/Academisch/UoC/Dissertation/Experiment/OpenSesame/NAP-FC/NAP_GER_AA_4blocks_noglides","yes","no","sans","no","20","no","black","no","Weiter","yes","768","legacy","4","4","0","/Users/aviadalbert/Documents/Academisch/UoC/Dissertation/Experiment/OpenSesame/NAP-FC/NAP_GER_AA_4blocks_noglides/subject-20.csv","xpyriment","Jazzy James","3.1.9","yes","yes","59a800d99ad5a1025d81bb03","59a801616c613b0251691de0","yes","no","0","j","f","NA","NA","space","space","j","686","4646","NA","NA","21756","20816","686","2","legacy","1024","1","44100","-16","experiment","nefal","2","1","1","0","1","eng,fra,dutch","20","","even","2532233","NA","NA","NA","NA","NA","NA","2445456","NA","2445457","2445457","2489376","2511137","2549156","2547652","2549843","2536880","2532229","NA","NA","2448331","2476048","NA","2532015","NA","2532233","NA","2549156","2549156","NA","NA","2547649","NAP perception","5","4098","5","yes","1024"
"100","yes","100","836","836","white","no","xpyriment","Ich habe die obigen Informationen gelesen und verstanden.","legacy","legacy","0","uniform","1","0","NA","undefined","undefined","1","f","0","0","NA","NA","NA","NA","NA","0","0","0","0","0","0","5","5","5","0","0","NA","NA","0","0","0","0","NA","0","0","5","5","5","5","5","Thu Oct 26 10:31:11 2017","Forced-choice identification task with a practice and an experimental phase","yes","NAP_GER_AA_4blocks_noglides.osexp","/Users/aviadalbert/Documents/Academisch/UoC/Dissertation/Experiment/OpenSesame/NAP-FC/NAP_GER_AA_4blocks_noglides","yes","no","sans","no","20","no","black","no","Weiter","yes","768","legacy","5","5","0","/Users/aviadalbert/Documents/Academisch/UoC/Dissertation/Experiment/OpenSesame/NAP-FC/NAP_GER_AA_4blocks_noglides/subject-20.csv","xpyriment","Jazzy James","3.1.9","yes","yes","59a800d99ad5a1025d81bb03","59a801616c613b0251691de0","yes","no","0","f","f","NA","NA","space","space","f","918","4646","NA","NA","21756","20816","918","2","legacy","1024","1","44100","-16","experiment","sfal","2","1","1","0","1","eng,fra,dutch","20","","even","2532233","NA","NA","NA","NA","NA","NA","2445456","NA","2445457","2445457","2489376","2511137","2551634","2550127","2552554","2536880","2532229","NA","NA","2448331","2476048","NA","2532015","NA","2532233","NA","2551633","2551633","NA","NA","2550123","NAP perception","6","5016","6","yes","1024"
"100","yes","100","859","859","white","no","xpyriment","Ich habe die obigen Informationen gelesen und verstanden.","legacy","legacy","0","uniform","1","0","NA","undefined","undefined","1","f","0","0","NA","NA","NA","NA","NA","0","0","0","0","0","0","6","6","6","0","0","NA","NA","0","0","0","0","NA","0","0","6","6","6","6","6","Thu Oct 26 10:31:11 2017","Forced-choice identification task with a practice and an experimental phase","yes","NAP_GER_AA_4blocks_noglides.osexp","/Users/aviadalbert/Documents/Academisch/UoC/Dissertation/Experiment/OpenSesame/NAP-FC/NAP_GER_AA_4blocks_noglides","yes","no","sans","no","20","no","black","no","Weiter","yes","768","legacy","6","6","0","/Users/aviadalbert/Documents/Academisch/UoC/Dissertation/Experiment/OpenSesame/NAP-FC/NAP_GER_AA_4blocks_noglides/subject-20.csv","xpyriment","Jazzy James","3.1.9","yes","yes","59a800d99ad5a1025d81bb03","59a801616c613b0251691de0","yes","no","0","f","f","NA","NA","space","space","f","997","4646","NA","NA","21756","20816","997","2","legacy","1024","1","44100","-16","experiment","zmal","2","1","1","0","1","eng,fra,dutch","20","","even","2532233","NA","NA","NA","NA","NA","NA","2445456","NA","2445457","2445457","2489376","2511137","2554338","2552833","2555336","2536880","2532229","NA","NA","2448331","2476048","NA","2532015","NA","2532233","NA","2554338","2554338","NA","NA","2552829","NAP perception","7","6013","7","yes","1024"
"100","yes","100","851.75","851.75","white","no","xpyriment","Ich habe die obigen Informationen gelesen und verstanden.","legacy","legacy","0","uniform","1","0","NA","undefined","undefined","1","j","0","0","NA","NA","NA","NA","NA","0","0","0","0","0","0","7","7","7","0","0","NA","NA","0","0","0","0","NA","0","0","7","7","7","7","7","Thu Oct 26 10:31:11 2017","Forced-choice identification task with a practice and an experimental phase","yes","NAP_GER_AA_4blocks_noglides.osexp","/Users/aviadalbert/Documents/Academisch/UoC/Dissertation/Experiment/OpenSesame/NAP-FC/NAP_GER_AA_4blocks_noglides","yes","no","sans","no","20","no","black","no","Weiter","yes","768","legacy","7","7","0","/Users/aviadalbert/Documents/Academisch/UoC/Dissertation/Experiment/OpenSesame/NAP-FC/NAP_GER_AA_4blocks_noglides/subject-20.csv","xpyriment","Jazzy James","3.1.9","yes","yes","59a800d99ad5a1025d81bb03","59a801616c613b0251691de0","yes","no","0","j","f","NA","NA","space","space","j","801","4646","NA","NA","21756","20816","801","2","legacy","1024","1","44100","-16","experiment","mesal","2","1","1","0","1","eng,fra,dutch","20","","even","2532233","NA","NA","NA","NA","NA","NA","2445456","NA","2445457","2445457","2489376","2511137","2557130","2555626","2557932","2536880","2532229","NA","NA","2448331","2476048","NA","2532015","NA","2532233","NA","2557129","2557130","NA","NA","2555622","NAP perception","8","6814","8","yes","1024"
"100","yes","100","826.222222222","826.222222222","white","no","xpyriment","Ich habe die obigen Informationen gelesen und verstanden.","legacy","legacy","0","uniform","1","0","NA","undefined","undefined","1","j","0","0","NA","NA","NA","NA","NA","0","0","0","0","0","0","8","8","8","0","0","NA","NA","0","0","0","0","NA","0","0","8","8","8","8","8","Thu Oct 26 10:31:11 2017","Forced-choice identification task with a practice and an experimental phase","yes","NAP_GER_AA_4blocks_noglides.osexp","/Users/aviadalbert/Documents/Academisch/UoC/Dissertation/Experiment/OpenSesame/NAP-FC/NAP_GER_AA_4blocks_noglides","yes","no","sans","no","20","no","black","no","Weiter","yes","768","legacy","8","8","0","/Users/aviadalbert/Documents/Academisch/UoC/Dissertation/Experiment/OpenSesame/NAP-FC/NAP_GER_AA_4blocks_noglides/subject-20.csv","xpyriment","Jazzy James","3.1.9","yes","yes","59a800d99ad5a1025d81bb03","59a801616c613b0251691de0","yes","no","0","j","f","NA","NA","space","space","j","622","4646","NA","NA","21756","20816","622","2","legacy","1024","1","44100","-16","experiment","enval","2","1","1","0","1","eng,fra,dutch","20","","even","2532233","NA","NA","NA","NA","NA","NA","2445456","NA","2445457","2445457","2489376","2511137","2559714","2558207","2560338","2536880","2532229","NA","NA","2448331","2476048","NA","2532015","NA","2532233","NA","2559714","2559714","NA","NA","2558203","NAP perception","9","7436","9","yes","1024"
"100","yes","100","822.7","822.7","white","no","xpyriment","Ich habe die obigen Informationen gelesen und verstanden.","legacy","legacy","0","uniform","1","0","NA","undefined","undefined","1","f","0","0","NA","NA","NA","NA","NA","0","0","0","0","0","0","9","9","9","0","0","NA","NA","0","0","0","0","NA","0","0","9","9","9","9","9","Thu Oct 26 10:31:11 2017","Forced-choice identification task with a practice and an experimental phase","yes","NAP_GER_AA_4blocks_noglides.osexp","/Users/aviadalbert/Documents/Academisch/UoC/Dissertation/Experiment/OpenSesame/NAP-FC/NAP_GER_AA_4blocks_noglides","yes","no","sans","no","20","no","black","no","Weiter","yes","768","legacy","9","9","0","/Users/aviadalbert/Documents/Academisch/UoC/Dissertation/Experiment/OpenSesame/NAP-FC/NAP_GER_AA_4blocks_noglides/subject-20.csv","xpyriment","Jazzy James","3.1.9","yes","yes","59a800d99ad5a1025d81bb03","59a801616c613b0251691de0","yes","no","0","f","f","NA","NA","space","space","f","791","4646","NA","NA","21756","20816","791","2","legacy","1024","1","44100","-16","experiment","vlal","2","1","1","0","1","eng,fra,dutch","20","","even","2532233","NA","NA","NA","NA","NA","NA","2445456","NA","2445457","2445457","2489376","2511137","2562121","2560618","2562913","2536880","2532229","NA","NA","2448331","2476048","NA","2532015","NA","2532233","NA","2562121","2562121","NA","NA","2560614","NAP perception","10","8227","10","yes","1024"
"100","yes","100","883","883","white","no","xpyriment","Ich habe die obigen Informationen gelesen und verstanden.","legacy","legacy","0","uniform","1","0","0","undefined","undefined","1","f","2","1","NA","0","1","0","0","0","0","0","0","0","0","10","10","10","0","0","0","NA","0","0","2","0","0","0","2","10","10","10","10","10","Thu Oct 26 10:31:11 2017","Forced-choice identification task with a practice and an experimental phase","yes","NAP_GER_AA_4blocks_noglides.osexp","/Users/aviadalbert/Documents/Academisch/UoC/Dissertation/Experiment/OpenSesame/NAP-FC/NAP_GER_AA_4blocks_noglides","yes","no","sans","no","20","no","black","no","Weiter","yes","768","legacy","0","9","0","/Users/aviadalbert/Documents/Academisch/UoC/Dissertation/Experiment/OpenSesame/NAP-FC/NAP_GER_AA_4blocks_noglides/subject-20.csv","xpyriment","Jazzy James","3.1.9","yes","yes","59a800d99ad5a1025d81bb03","59a801616c613b0251691de0","no","no","0","f","f","space","NA","space","space","f","883","2739","17782","NA","21756","20816","883","2","legacy","1024","1","44100","-16","experiment","mlal","2","1","1","0","1","eng,fra,dutch","20","","even","2582962","2564630","NA","NA","2585702","2582959","NA","2445456","2582467","2445457","2445457","2489376","2511137","2587424","2585920","2588309","2536880","2532229","2564629","NA","2448331","2476048","2562974","2532015","2582962","2532233","NA","2587424","2587424","NA","NA","2585916","NAP perception","1","883","1","yes","1024"
"100","yes","100","835","835","white","no","xpyriment","Ich habe die obigen Informationen gelesen und verstanden.","legacy","legacy","0","uniform","1","0","0","undefined","undefined","1","f","2","1","NA","0","1","0","0","0","0","0","0","0","0","11","11","11","0","0","0","NA","0","0","2","0","0","0","2","11","11","11","11","11","Thu Oct 26 10:31:11 2017","Forced-choice identification task with a practice and an experimental phase","yes","NAP_GER_AA_4blocks_noglides.osexp","/Users/aviadalbert/Documents/Academisch/UoC/Dissertation/Experiment/OpenSesame/NAP-FC/NAP_GER_AA_4blocks_noglides","yes","no","sans","no","20","no","black","no","Weiter","yes","768","legacy","1","9","0","/Users/aviadalbert/Documents/Academisch/UoC/Dissertation/Experiment/OpenSesame/NAP-FC/NAP_GER_AA_4blocks_noglides/subject-20.csv","xpyriment","Jazzy James","3.1.9","yes","yes","59a800d99ad5a1025d81bb03","59a801616c613b0251691de0","no","no","0","f","f","space","NA","space","space","f","787","2739","17782","NA","21756","20816","787","2","legacy","1024","1","44100","-16","experiment","spal","2","1","1","0","1","eng,fra,dutch","20","","even","2582962","2564630","NA","NA","2585702","2582959","NA","2445456","2582467","2445457","2445457","2489376","2511137","2590082","2588579","2590870","2536880","2532229","2564629","NA","2448331","2476048","2562974","2532015","2582962","2532233","NA","2590082","2590082","NA","NA","2588575","NAP perception","2","1670","2","yes","1024"
"100","yes","100","859.333333333","859.333333333","white","no","xpyriment","Ich habe die obigen Informationen gelesen und verstanden.","legacy","legacy","0","uniform","1","0","0","undefined","undefined","1","f","2","1","NA","0","1","0","0","0","0","0","0","0","0","12","12","12","0","0","0","NA","0","0","2","0","0","0","2","12","12","12","12","12","Thu Oct 26 10:31:11 2017","Forced-choice identification task with a practice and an experimental phase","yes","NAP_GER_AA_4blocks_noglides.osexp","/Users/aviadalbert/Documents/Academisch/UoC/Dissertation/Experiment/OpenSesame/NAP-FC/NAP_GER_AA_4blocks_noglides","yes","no","sans","no","20","no","black","no","Weiter","yes","768","legacy","2","9","0","/Users/aviadalbert/Documents/Academisch/UoC/Dissertation/Experiment/OpenSesame/NAP-FC/NAP_GER_AA_4blocks_noglides/subject-20.csv","xpyriment","Jazzy James","3.1.9","yes","yes","59a800d99ad5a1025d81bb03","59a801616c613b0251691de0","no","no","0","f","f","space","NA","space","space","f","908","2739","17782","NA","21756","20816","908","2","legacy","1024","1","44100","-16","experiment","nmal","2","1","1","0","1","eng,fra,dutch","20","","even","2582962","2564630","NA","NA","2585702","2582959","NA","2445456","2582467","2445457","2445457","2489376","2511137","2592654","2591148","2593563","2536880","2532229","2564629","NA","2448331","2476048","2562974","2532015","2582962","2532233","NA","2592654","2592654","NA","NA","2591144","NAP perception","3","2578","3","yes","1024"
"100","yes","100","909.25","909.25","white","no","xpyriment","Ich habe die obigen Informationen gelesen und verstanden.","legacy","legacy","0","uniform","1","0","0","undefined","undefined","1","f","2","1","NA","0","1","0","0","0","0","0","0","0","0","13","13","13","0","0","0","NA","0","0","2","0","0","0","2","13","13","13","13","13","Thu Oct 26 10:31:11 2017","Forced-choice identification task with a practice and an experimental phase","yes","NAP_GER_AA_4blocks_noglides.osexp","/Users/aviadalbert/Documents/Academisch/UoC/Dissertation/Experiment/OpenSesame/NAP-FC/NAP_GER_AA_4blocks_noglides","yes","no","sans","no","20","no","black","no","Weiter","yes","768","legacy","3","9","0","/Users/aviadalbert/Documents/Academisch/UoC/Dissertation/Experiment/OpenSesame/NAP-FC/NAP_GER_AA_4blocks_noglides/subject-20.csv","xpyriment","Jazzy James","3.1.9","yes","yes","59a800d99ad5a1025d81bb03","59a801616c613b0251691de0","no","no","0","f","f","space","NA","space","space","f","1059","2739","17782","NA","21756","20816","1059","2","legacy","1024","1","44100","-16","experiment","smal","2","1","1","0","1","eng,fra,dutch","20","","even","2582962","2564630","NA","NA","2585702","2582959","NA","2445456","2582467","2445457","2445457","2489376","2511137","2595334","2593829","2596395","2536880","2532229","2564629","NA","2448331","2476048","2562974","2532015","2582962","2532233","NA","2595334","2595334","NA","NA","2593826","NAP perception","4","3637","4","yes","1024"
"100","yes","100","941.8","941.8","white","no","xpyriment","Ich habe die obigen Informationen gelesen und verstanden.","legacy","legacy","0","uniform","1","0","0","undefined","undefined","1","f","2","1","NA","0","1","0","0","0","0","0","0","0","0","14","14","14","0","0","0","NA","0","0","2","0","0","0","2","14","14","14","14","14","Thu Oct 26 10:31:11 2017","Forced-choice identification task with a practice and an experimental phase","yes","NAP_GER_AA_4blocks_noglides.osexp","/Users/aviadalbert/Documents/Academisch/UoC/Dissertation/Experiment/OpenSesame/NAP-FC/NAP_GER_AA_4blocks_noglides","yes","no","sans","no","20","no","black","no","Weiter","yes","768","legacy","4","9","0","/Users/aviadalbert/Documents/Academisch/UoC/Dissertation/Experiment/OpenSesame/NAP-FC/NAP_GER_AA_4blocks_noglides/subject-20.csv","xpyriment","Jazzy James","3.1.9","yes","yes","59a800d99ad5a1025d81bb03","59a801616c613b0251691de0","no","no","0","f","f","space","NA","space","space","f","1072","2739","17782","NA","21756","20816","1072","2","legacy","1024","1","44100","-16","experiment","lfal","2","1","1","0","1","eng,fra,dutch","20","","even","2582962","2564630","NA","NA","2585702","2582959","NA","2445456","2582467","2445457","2445457","2489376","2511137","2598169","2596665","2599243","2536880","2532229","2564629","NA","2448331","2476048","2562974","2532015","2582962","2532233","NA","2598169","2598169","NA","NA","2596661","NAP perception","5","4709","5","yes","1024"
"100","yes","100","917.5","917.5","white","no","xpyriment","Ich habe die obigen Informationen gelesen und verstanden.","legacy","legacy","0","uniform","1","0","0","undefined","undefined","1","f","2","1","NA","0","1","0","0","0","0","0","0","0","0","15","15","15","0","0","0","NA","0","0","2","0","0","0","2","15","15","15","15","15","Thu Oct 26 10:31:11 2017","Forced-choice identification task with a practice and an experimental phase","yes","NAP_GER_AA_4blocks_noglides.osexp","/Users/aviadalbert/Documents/Academisch/UoC/Dissertation/Experiment/OpenSesame/NAP-FC/NAP_GER_AA_4blocks_noglides","yes","no","sans","no","20","no","black","no","Weiter","yes","768","legacy","5","9","0","/Users/aviadalbert/Documents/Academisch/UoC/Dissertation/Experiment/OpenSesame/NAP-FC/NAP_GER_AA_4blocks_noglides/subject-20.csv","xpyriment","Jazzy James","3.1.9","yes","yes","59a800d99ad5a1025d81bb03","59a801616c613b0251691de0","no","no","0","f","f","space","NA","space","space","f","796","2739","17782","NA","21756","20816","796","2","legacy","1024","1","44100","-16","experiment","sfal","2","1","1","0","1","eng,fra,dutch","20","","even","2582962","2564630","NA","NA","2585702","2582959","NA","2445456","2582467","2445457","2445457","2489376","2511137","2601022","2599516","2601819","2536880","2532229","2564629","NA","2448331","2476048","2562974","2532015","2582962","2532233","NA","2601022","2601022","NA","NA","2599512","NAP perception","6","5505","6","yes","1024"
"100","yes","100","918.857142857","918.857142857","white","no","xpyriment","Ich habe die obigen Informationen gelesen und verstanden.","legacy","legacy","0","uniform","1","0","0","undefined","undefined","1","j","2","1","NA","0","1","0","0","0","0","0","0","0","0","16","16","16","0","0","0","NA","0","0","2","0","0","0","2","16","16","16","16","16","Thu Oct 26 10:31:11 2017","Forced-choice identification task with a practice and an experimental phase","yes","NAP_GER_AA_4blocks_noglides.osexp","/Users/aviadalbert/Documents/Academisch/UoC/Dissertation/Experiment/OpenSesame/NAP-FC/NAP_GER_AA_4blocks_noglides","yes","no","sans","no","20","no","black","no","Weiter","yes","768","legacy","6","9","0","/Users/aviadalbert/Documents/Academisch/UoC/Dissertation/Experiment/OpenSesame/NAP-FC/NAP_GER_AA_4blocks_noglides/subject-20.csv","xpyriment","Jazzy James","3.1.9","yes","yes","59a800d99ad5a1025d81bb03","59a801616c613b0251691de0","no","no","0","j","f","space","NA","space","space","j","927","2739","17782","NA","21756","20816","927","2","legacy","1024","1","44100","-16","experiment","sefal","2","1","1","0","1","eng,fra,dutch","20","","even","2582962","2564630","NA","NA","2585702","2582959","NA","2445456","2582467","2445457","2445457","2489376","2511137","2603602","2602095","2604530","2536880","2532229","2564629","NA","2448331","2476048","2562974","2532015","2582962","2532233","NA","2603602","2603602","NA","NA","2602091","NAP perception","7","6432","7","yes","1024"
"100","yes","100","891.875","891.875","white","no","xpyriment","Ich habe die obigen Informationen gelesen und verstanden.","legacy","legacy","0","uniform","1","0","0","undefined","undefined","1","j","2","1","NA","0","1","0","0","0","0","0","0","0","0","17","17","17","0","0","0","NA","0","0","2","0","0","0","2","17","17","17","17","17","Thu Oct 26 10:31:11 2017","Forced-choice identification task with a practice and an experimental phase","yes","NAP_GER_AA_4blocks_noglides.osexp","/Users/aviadalbert/Documents/Academisch/UoC/Dissertation/Experiment/OpenSesame/NAP-FC/NAP_GER_AA_4blocks_noglides","yes","no","sans","no","20","no","black","no","Weiter","yes","768","legacy","7","9","0","/Users/aviadalbert/Documents/Academisch/UoC/Dissertation/Experiment/OpenSesame/NAP-FC/NAP_GER_AA_4blocks_noglides/subject-20.csv","xpyriment","Jazzy James","3.1.9","yes","yes","59a800d99ad5a1025d81bb03","59a801616c613b0251691de0","no","no","0","j","f","space","NA","space","space","j","703","2739","17782","NA","21756","20816","703","2","legacy","1024","1","44100","-16","experiment","sepal","2","1","1","0","1","eng,fra,dutch","20","","even","2582962","2564630","NA","NA","2585702","2582959","NA","2445456","2582467","2445457","2445457","2489376","2511137","2606308","2604805","2607012","2536880","2532229","2564629","NA","2448331","2476048","2562974","2532015","2582962","2532233","NA","2606308","2606308","NA","NA","2604801","NAP perception","8","7135","8","yes","1024"
"88.8888888889","yes","88.8888888889","902.666666667","902.666666667","white","no","xpyriment","Ich habe die obigen Informationen gelesen und verstanden.","legacy","legacy","0","uniform","0","0","0","undefined","undefined","0","f","2","1","NA","0","1","0","0","0","0","0","0","0","0","18","18","18","0","0","0","NA","0","0","2","0","0","0","2","18","18","18","18","18","Thu Oct 26 10:31:11 2017","Forced-choice identification task with a practice and an experimental phase","yes","NAP_GER_AA_4blocks_noglides.osexp","/Users/aviadalbert/Documents/Academisch/UoC/Dissertation/Experiment/OpenSesame/NAP-FC/NAP_GER_AA_4blocks_noglides","yes","no","sans","no","20","no","black","no","Weiter","yes","768","legacy","8","9","0","/Users/aviadalbert/Documents/Academisch/UoC/Dissertation/Experiment/OpenSesame/NAP-FC/NAP_GER_AA_4blocks_noglides/subject-20.csv","xpyriment","Jazzy James","3.1.9","yes","yes","59a800d99ad5a1025d81bb03","59a801616c613b0251691de0","no","no","0","j","f","space","NA","space","space","j","989","2739","17782","NA","21756","20816","989","2","legacy","1024","1","44100","-16","experiment","lmal","2","1","1","0","1","eng,fra,dutch","20","","even","2582962","2564630","NA","NA","2585702","2582959","NA","2445456","2582467","2445457","2445457","2489376","2511137","2608798","2607291","2609788","2536880","2532229","2564629","NA","2448331","2476048","2562974","2532015","2582962","2532233","NA","2608797","2608797","NA","NA","2607287","NAP perception","8","8124","9","yes","1024"
"80","yes","80","888.7","888.7","white","no","xpyriment","Ich habe die obigen Informationen gelesen und verstanden.","legacy","legacy","0","uniform","0","0","0","undefined","undefined","0","f","2","1","NA","0","1","0","0","0","0","0","0","0","0","19","19","19","0","0","0","NA","0","0","2","0","0","0","2","19","19","19","19","19","Thu Oct 26 10:31:11 2017","Forced-choice identification task with a practice and an experimental phase","yes","NAP_GER_AA_4blocks_noglides.osexp","/Users/aviadalbert/Documents/Academisch/UoC/Dissertation/Experiment/OpenSesame/NAP-FC/NAP_GER_AA_4blocks_noglides","yes","no","sans","no","20","no","black","no","Weiter","yes","768","legacy","9","9","0","/Users/aviadalbert/Documents/Academisch/UoC/Dissertation/Experiment/OpenSesame/NAP-FC/NAP_GER_AA_4blocks_noglides/subject-20.csv","xpyriment","Jazzy James","3.1.9","yes","yes","59a800d99ad5a1025d81bb03","59a801616c613b0251691de0","no","no","0","j","f","space","NA","space","space","j","763","2739","17782","NA","21756","20816","763","2","legacy","1024","1","44100","-16","experiment","lmal","2","1","1","0","1","eng,fra,dutch","20","","even","2582962","2564630","NA","NA","2585702","2582959","NA","2445456","2582467","2445457","2445457","2489376","2511137","2611568","2610060","2612332","2536880","2532229","2564629","NA","2448331","2476048","2562974","2532015","2582962","2532233","NA","2611567","2611567","NA","NA","2610056","NAP perception","8","8887","10","yes","1024"
"81.8181818182","yes","81.8181818182","887.818181818","887.818181818","white","no","xpyriment","Ich habe die obigen Informationen gelesen und verstanden.","legacy","legacy","0","uniform","1","0","0","undefined","undefined","1","j","2","1","NA","0","1","0","0","0","0","0","0","0","0","20","20","20","0","0","0","NA","0","0","2","0","0","0","2","20","20","20","20","20","Thu Oct 26 10:31:11 2017","Forced-choice identification task with a practice and an experimental phase","yes","NAP_GER_AA_4blocks_noglides.osexp","/Users/aviadalbert/Documents/Academisch/UoC/Dissertation/Experiment/OpenSesame/NAP-FC/NAP_GER_AA_4blocks_noglides","yes","no","sans","no","20","no","black","no","Weiter","yes","768","legacy","10","9","0","/Users/aviadalbert/Documents/Academisch/UoC/Dissertation/Experiment/OpenSesame/NAP-FC/NAP_GER_AA_4blocks_noglides/subject-20.csv","xpyriment","Jazzy James","3.1.9","yes","yes","59a800d99ad5a1025d81bb03","59a801616c613b0251691de0","no","no","0","j","f","space","NA","space","space","j","879","2739","17782","NA","21756","20816","879","2","legacy","1024","1","44100","-16","experiment","fesal","2","1","1","0","1","eng,fra,dutch","20","","even","2582962","2564630","NA","NA","2585702","2582959","NA","2445456","2582467","2445457","2445457","2489376","2511137","2614114","2612608","2614994","2536880","2532229","2564629","NA","2448331","2476048","2562974","2532015","2582962","2532233","NA","2614113","2614113","NA","NA","2612604","NAP perception","9","9766","11","yes","1024"
"83.3333333333","yes","83.3333333333","876.833333333","876.833333333","white","no","xpyriment","Ich habe die obigen Informationen gelesen und verstanden.","legacy","legacy","0","uniform","1","0","0","undefined","undefined","1","f","2","1","NA","0","1","0","0","0","0","0","0","0","0","21","21","21","0","0","0","NA","0","0","2","0","0","0","2","21","21","21","21","21","Thu Oct 26 10:31:11 2017","Forced-choice identification task with a practice and an experimental phase","yes","NAP_GER_AA_4blocks_noglides.osexp","/Users/aviadalbert/Documents/Academisch/UoC/Dissertation/Experiment/OpenSesame/NAP-FC/NAP_GER_AA_4blocks_noglides","yes","no","sans","no","20","no","black","no","Weiter","yes","768","legacy","11","9","0","/Users/aviadalbert/Documents/Academisch/UoC/Dissertation/Experiment/OpenSesame/NAP-FC/NAP_GER_AA_4blocks_noglides/subject-20.csv","xpyriment","Jazzy James","3.1.9","yes","yes","59a800d99ad5a1025d81bb03","59a801616c613b0251691de0","no","no","0","f","f","space","NA","space","space","f","756","2739","17782","NA","21756","20816","756","2","legacy","1024","1","44100","-16","experiment","mzal","2","1","1","0","1","eng,fra,dutch","20","","even","2582962","2564630","NA","NA","2585702","2582959","NA","2445456","2582467","2445457","2445457","2489376","2511137","2616772","2615268","2617529","2536880","2532229","2564629","NA","2448331","2476048","2562974","2532015","2582962","2532233","NA","2616772","2616772","NA","NA","2615265","NAP perception","10","10522","12","yes","1024"
"84.6153846154","yes","84.6153846154","860.846153846","860.846153846","white","no","xpyriment","Ich habe die obigen Informationen gelesen und verstanden.","legacy","legacy","0","uniform","1","0","0","undefined","undefined","1","j","2","1","NA","0","1","0","0","0","0","0","0","0","0","22","22","22","0","0","0","NA","0","0","2","0","0","0","2","22","22","22","22","22","Thu Oct 26 10:31:11 2017","Forced-choice identification task with a practice and an experimental phase","yes","NAP_GER_AA_4blocks_noglides.osexp","/Users/aviadalbert/Documents/Academisch/UoC/Dissertation/Experiment/OpenSesame/NAP-FC/NAP_GER_AA_4blocks_noglides","yes","no","sans","no","20","no","black","no","Weiter","yes","768","legacy","12","9","0","/Users/aviadalbert/Documents/Academisch/UoC/Dissertation/Experiment/OpenSesame/NAP-FC/NAP_GER_AA_4blocks_noglides/subject-20.csv","xpyriment","Jazzy James","3.1.9","yes","yes","59a800d99ad5a1025d81bb03","59a801616c613b0251691de0","no","no","0","j","f","space","NA","space","space","j","669","2739","17782","NA","21756","20816","669","2","legacy","1024","1","44100","-16","experiment","ʃepal","2","1","1","0","1","eng,fra,dutch","20","","even","2582962","2564630","NA","NA","2585702","2582959","NA","2445456","2582467","2445457","2445457","2489376","2511137","2619318","2617813","2619988","2536880","2532229","2564629","NA","2448331","2476048","2562974","2532015","2582962","2532233","NA","2619318","2619318","NA","NA","2617810","NAP perception","11","11191","13","yes","1024"
"85.7142857143","yes","85.7142857143","840.214285714","840.214285714","white","no","xpyriment","Ich habe die obigen Informationen gelesen und verstanden.","legacy","legacy","0","uniform","1","0","0","undefined","undefined","1","j","2","1","NA","0","1","0","0","0","0","0","0","0","0","23","23","23","0","0","0","NA","0","0","2","0","0","0","2","23","23","23","23","23","Thu Oct 26 10:31:11 2017","Forced-choice identification task with a practice and an experimental phase","yes","NAP_GER_AA_4blocks_noglides.osexp","/Users/aviadalbert/Documents/Academisch/UoC/Dissertation/Experiment/OpenSesame/NAP-FC/NAP_GER_AA_4blocks_noglides","yes","no","sans","no","20","no","black","no","Weiter","yes","768","legacy","13","9","0","/Users/aviadalbert/Documents/Academisch/UoC/Dissertation/Experiment/OpenSesame/NAP-FC/NAP_GER_AA_4blocks_noglides/subject-20.csv","xpyriment","Jazzy James","3.1.9","yes","yes","59a800d99ad5a1025d81bb03","59a801616c613b0251691de0","no","no","0","j","f","space","NA","space","space","j","572","2739","17782","NA","21756","20816","572","2","legacy","1024","1","44100","-16","experiment","nepal","2","1","1","0","1","eng,fra,dutch","20","","even","2582962","2564630","NA","NA","2585702","2582959","NA","2445456","2582467","2445457","2445457","2489376","2511137","2621772","2620267","2622345","2536880","2532229","2564629","NA","2448331","2476048","2562974","2532015","2582962","2532233","NA","2621772","2621772","NA","NA","2620263","NAP perception","12","11763","14","yes","1024"
"86.6666666667","yes","86.6666666667","835.666666667","835.666666667","white","no","xpyriment","Ich habe die obigen Informationen gelesen und verstanden.","legacy","legacy","0","uniform","1","0","0","undefined","undefined","1","f","2","1","NA","0","1","0","0","0","0","0","0","0","0","24","24","24","0","0","0","NA","0","0","2","0","0","0","2","24","24","24","24","24","Thu Oct 26 10:31:11 2017","Forced-choice identification task with a practice and an experimental phase","yes","NAP_GER_AA_4blocks_noglides.osexp","/Users/aviadalbert/Documents/Academisch/UoC/Dissertation/Experiment/OpenSesame/NAP-FC/NAP_GER_AA_4blocks_noglides","yes","no","sans","no","20","no","black","no","Weiter","yes","768","legacy","14","9","0","/Users/aviadalbert/Documents/Academisch/UoC/Dissertation/Experiment/OpenSesame/NAP-FC/NAP_GER_AA_4blocks_noglides/subject-20.csv","xpyriment","Jazzy James","3.1.9","yes","yes","59a800d99ad5a1025d81bb03","59a801616c613b0251691de0","no","no","0","f","f","space","NA","space","space","f","772","2739","17782","NA","21756","20816","772","2","legacy","1024","1","44100","-16","experiment","vlal","2","1","1","0","1","eng,fra,dutch","20","","even","2582962","2564630","NA","NA","2585702","2582959","NA","2445456","2582467","2445457","2445457","2489376","2511137","2624116","2622611","2624890","2536880","2532229","2564629","NA","2448331","2476048","2562974","2532015","2582962","2532233","NA","2624116","2624116","NA","NA","2622607","NAP perception","13","12535","15","yes","1024"
"87.5","yes","87.5","822.75","822.75","white","no","xpyriment","Ich habe die obigen Informationen gelesen und verstanden.","legacy","legacy","0","uniform","1","0","0","undefined","undefined","1","j","2","1","NA","0","1","0","0","0","0","0","0","0","0","25","25","25","0","0","0","NA","0","0","2","0","0","0","2","25","25","25","25","25","Thu Oct 26 10:31:11 2017","Forced-choice identification task with a practice and an experimental phase","yes","NAP_GER_AA_4blocks_noglides.osexp","/Users/aviadalbert/Documents/Academisch/UoC/Dissertation/Experiment/OpenSesame/NAP-FC/NAP_GER_AA_4blocks_noglides","yes","no","sans","no","20","no","black","no","Weiter","yes","768","legacy","15","9","0","/Users/aviadalbert/Documents/Academisch/UoC/Dissertation/Experiment/OpenSesame/NAP-FC/NAP_GER_AA_4blocks_noglides/subject-20.csv","xpyriment","Jazzy James","3.1.9","yes","yes","59a800d99ad5a1025d81bb03","59a801616c613b0251691de0","no","no","0","j","f","space","NA","space","space","j","629","2739","17782","NA","21756","20816","629","2","legacy","1024","1","44100","-16","experiment","enval","2","1","1","0","1","eng,fra,dutch","20","","even","2582962","2564630","NA","NA","2585702","2582959","NA","2445456","2582467","2445457","2445457","2489376","2511137","2626675","2625170","2627306","2536880","2532229","2564629","NA","2448331","2476048","2562974","2532015","2582962","2532233","NA","2626675","2626675","NA","NA","2625167","NAP perception","14","13164","16","yes","1024"
"88.2352941176","yes","88.2352941176","813.529411765","813.529411765","white","no","xpyriment","Ich habe die obigen Informationen gelesen und verstanden.","legacy","legacy","0","uniform","1","0","0","undefined","undefined","1","j","2","1","NA","0","1","0","0","0","0","0","0","0","0","26","26","26","0","0","0","NA","0","0","2","0","0","0","2","26","26","26","26","26","Thu Oct 26 10:31:11 2017","Forced-choice identification task with a practice and an experimental phase","yes","NAP_GER_AA_4blocks_noglides.osexp","/Users/aviadalbert/Documents/Academisch/UoC/Dissertation/Experiment/OpenSesame/NAP-FC/NAP_GER_AA_4blocks_noglides","yes","no","sans","no","20","no","black","no","Weiter","yes","768","legacy","16","9","0","/Users/aviadalbert/Documents/Academisch/UoC/Dissertation/Experiment/OpenSesame/NAP-FC/NAP_GER_AA_4blocks_noglides/subject-20.csv","xpyriment","Jazzy James","3.1.9","yes","yes","59a800d99ad5a1025d81bb03","59a801616c613b0251691de0","no","no","0","j","f","space","NA","space","space","j","666","2739","17782","NA","21756","20816","666","2","legacy","1024","1","44100","-16","experiment","metal","2","1","1","0","1","eng,fra,dutch","20","","even","2582962","2564630","NA","NA","2585702","2582959","NA","2445456","2582467","2445457","2445457","2489376","2511137","2629085","2627579","2629753","2536880","2532229","2564629","NA","2448331","2476048","2562974","2532015","2582962","2532233","NA","2629085","2629085","NA","NA","2627575","NAP perception","15","13830","17","yes","1024"
"88.8888888889","yes","88.8888888889","809.5","809.5","white","no","xpyriment","Ich habe die obigen Informationen gelesen und verstanden.","legacy","legacy","0","uniform","1","0","0","undefined","undefined","1","f","2","1","NA","0","1","0","0","0","0","0","0","0","0","27","27","27","0","0","0","NA","0","0","2","0","0","0","2","27","27","27","27","27","Thu Oct 26 10:31:11 2017","Forced-choice identification task with a practice and an experimental phase","yes","NAP_GER_AA_4blocks_noglides.osexp","/Users/aviadalbert/Documents/Academisch/UoC/Dissertation/Experiment/OpenSesame/NAP-FC/NAP_GER_AA_4blocks_noglides","yes","no","sans","no","20","no","black","no","Weiter","yes","768","legacy","17","9","0","/Users/aviadalbert/Documents/Academisch/UoC/Dissertation/Experiment/OpenSesame/NAP-FC/NAP_GER_AA_4blocks_noglides/subject-20.csv","xpyriment","Jazzy James","3.1.9","yes","yes","59a800d99ad5a1025d81bb03","59a801616c613b0251691de0","no","no","0","f","f","space","NA","space","space","f","741","2739","17782","NA","21756","20816","741","2","legacy","1024","1","44100","-16","experiment","ʃfal","2","1","1","0","1","eng,fra,dutch","20","","even","2582962","2564630","NA","NA","2585702","2582959","NA","2445456","2582467","2445457","2445457","2489376","2511137","2631526","2630023","2632269","2536880","2532229","2564629","NA","2448331","2476048","2562974","2532015","2582962","2532233","NA","2631526","2631526","NA","NA","2630019","NAP perception","16","14571","18","yes","1024"
"89.4736842105","yes","89.4736842105","852.736842105","852.736842105","white","no","xpyriment","Ich habe die obigen Informationen gelesen und verstanden.","legacy","legacy","0","uniform","1","0","0","undefined","undefined","1","j","2","1","NA","0","1","0","0","0","0","0","0","0","0","28","28","28","0","0","0","NA","0","0","2","0","0","0","2","28","28","28","28","28","Thu Oct 26 10:31:11 2017","Forced-choice identification task with a practice and an experimental phase","yes","NAP_GER_AA_4blocks_noglides.osexp","/Users/aviadalbert/Documents/Academisch/UoC/Dissertation/Experiment/OpenSesame/NAP-FC/NAP_GER_AA_4blocks_noglides","yes","no","sans","no","20","no","black","no","Weiter","yes","768","legacy","18","9","0","/Users/aviadalbert/Documents/Academisch/UoC/Dissertation/Experiment/OpenSesame/NAP-FC/NAP_GER_AA_4blocks_noglides/subject-20.csv","xpyriment","Jazzy James","3.1.9","yes","yes","59a800d99ad5a1025d81bb03","59a801616c613b0251691de0","no","no","0","j","f","space","NA","space","space","j","1631","2739","17782","NA","21756","20816","1631","2","legacy","1024","1","44100","-16","experiment","emsal","2","1","1","0","1","eng,fra,dutch","20","","even","2582962","2564630","NA","NA","2585702","2582959","NA","2445456","2582467","2445457","2445457","2489376","2511137","2634050","2632547","2635683","2536880","2532229","2564629","NA","2448331","2476048","2562974","2532015","2582962","2532233","NA","2634050","2634050","NA","NA","2632543","NAP perception","17","16202","19","yes","1024"
"90","yes","90","859.7","859.7","white","no","xpyriment","Ich habe die obigen Informationen gelesen und verstanden.","legacy","legacy","0","uniform","1","0","0","undefined","undefined","1","f","2","1","NA","0","1","0","0","0","0","0","0","0","0","29","29","29","0","0","0","NA","0","0","2","0","0","0","2","29","29","29","29","29","Thu Oct 26 10:31:11 2017","Forced-choice identification task with a practice and an experimental phase","yes","NAP_GER_AA_4blocks_noglides.osexp","/Users/aviadalbert/Documents/Academisch/UoC/Dissertation/Experiment/OpenSesame/NAP-FC/NAP_GER_AA_4blocks_noglides","yes","no","sans","no","20","no","black","no","Weiter","yes","768","legacy","19","9","0","/Users/aviadalbert/Documents/Academisch/UoC/Dissertation/Experiment/OpenSesame/NAP-FC/NAP_GER_AA_4blocks_noglides/subject-20.csv","xpyriment","Jazzy James","3.1.9","yes","yes","59a800d99ad5a1025d81bb03","59a801616c613b0251691de0","no","no","0","f","f","space","NA","space","space","f","992","2739","17782","NA","21756","20816","992","2","legacy","1024","1","44100","-16","experiment","fnal","2","1","1","0","1","eng,fra,dutch","20","","even","2582962","2564630","NA","NA","2585702","2582959","NA","2445456","2582467","2445457","2445457","2489376","2511137","2637463","2635960","2638457","2536880","2532229","2564629","NA","2448331","2476048","2562974","2532015","2582962","2532233","NA","2637463","2637463","NA","NA","2635956","NAP perception","18","17194","20","yes","1024"
"90.4761904762","yes","90.4761904762","869.19047619","869.19047619","white","no","xpyriment","Ich habe die obigen Informationen gelesen und verstanden.","legacy","legacy","0","uniform","1","0","0","undefined","undefined","1","j","2","1","NA","0","1","0","0","0","0","0","0","0","0","30","30","30","0","0","0","NA","0","0","2","0","0","0","2","30","30","30","30","30","Thu Oct 26 10:31:11 2017","Forced-choice identification task with a practice and an experimental phase","yes","NAP_GER_AA_4blocks_noglides.osexp","/Users/aviadalbert/Documents/Academisch/UoC/Dissertation/Experiment/OpenSesame/NAP-FC/NAP_GER_AA_4blocks_noglides","yes","no","sans","no","20","no","black","no","Weiter","yes","768","legacy","20","9","0","/Users/aviadalbert/Documents/Academisch/UoC/Dissertation/Experiment/OpenSesame/NAP-FC/NAP_GER_AA_4blocks_noglides/subject-20.csv","xpyriment","Jazzy James","3.1.9","yes","yes","59a800d99ad5a1025d81bb03","59a801616c613b0251691de0","no","no","0","j","f","space","NA","space","space","j","1059","2739","17782","NA","21756","20816","1059","2","legacy","1024","1","44100","-16","experiment","semal","2","1","1","0","1","eng,fra,dutch","20","","even","2582962","2564630","NA","NA","2585702","2582959","NA","2445456","2582467","2445457","2445457","2489376","2511137","2640234","2638730","2641294","2536880","2532229","2564629","NA","2448331","2476048","2562974","2532015","2582962","2532233","NA","2640233","2640234","NA","NA","2638726","NAP perception","19","18253","21","yes","1024"
"86.3636363636","yes","86.3636363636","888.636363636","888.636363636","white","no","xpyriment","Ich habe die obigen Informationen gelesen und verstanden.","legacy","legacy","0","uniform","0","0","0","undefined","undefined","0","f","2","1","NA","0","1","0","0","0","0","0","0","0","0","31","31","31","0","0","0","NA","0","0","2","0","0","0","2","31","31","31","31","31","Thu Oct 26 10:31:11 2017","Forced-choice identification task with a practice and an experimental phase","yes","NAP_GER_AA_4blocks_noglides.osexp","/Users/aviadalbert/Documents/Academisch/UoC/Dissertation/Experiment/OpenSesame/NAP-FC/NAP_GER_AA_4blocks_noglides","yes","no","sans","no","20","no","black","no","Weiter","yes","768","legacy","21","9","0","/Users/aviadalbert/Documents/Academisch/UoC/Dissertation/Experiment/OpenSesame/NAP-FC/NAP_GER_AA_4blocks_noglides/subject-20.csv","xpyriment","Jazzy James","3.1.9","yes","yes","59a800d99ad5a1025d81bb03","59a801616c613b0251691de0","no","no","0","j","f","space","NA","space","space","j","1297","2739","17782","NA","21756","20816","1297","2","legacy","1024","1","44100","-16","experiment","mlal","2","1","1","0","1","eng,fra,dutch","20","","even","2582962","2564630","NA","NA","2585702","2582959","NA","2445456","2582467","2445457","2445457","2489376","2511137","2643076","2641570","2644374","2536880","2532229","2564629","NA","2448331","2476048","2562974","2532015","2582962","2532233","NA","2643075","2643075","NA","NA","2641566","NAP perception","19","19550","22","yes","1024"
"86.9565217391","yes","86.9565217391","887.608695652","887.608695652","white","no","xpyriment","Ich habe die obigen Informationen gelesen und verstanden.","legacy","legacy","0","uniform","1","0","0","undefined","undefined","1","f","2","1","NA","0","1","0","0","0","0","0","0","0","0","32","32","32","0","0","0","NA","0","0","2","0","0","0","2","32","32","32","32","32","Thu Oct 26 10:31:11 2017","Forced-choice identification task with a practice and an experimental phase","yes","NAP_GER_AA_4blocks_noglides.osexp","/Users/aviadalbert/Documents/Academisch/UoC/Dissertation/Experiment/OpenSesame/NAP-FC/NAP_GER_AA_4blocks_noglides","yes","no","sans","no","20","no","black","no","Weiter","yes","768","legacy","22","9","0","/Users/aviadalbert/Documents/Academisch/UoC/Dissertation/Experiment/OpenSesame/NAP-FC/NAP_GER_AA_4blocks_noglides/subject-20.csv","xpyriment","Jazzy James","3.1.9","yes","yes","59a800d99ad5a1025d81bb03","59a801616c613b0251691de0","no","no","0","f","f","space","NA","space","space","f","865","2739","17782","NA","21756","20816","865","2","legacy","1024","1","44100","-16","experiment","vzal","2","1","1","0","1","eng,fra,dutch","20","","even","2582962","2564630","NA","NA","2585702","2582959","NA","2445456","2582467","2445457","2445457","2489376","2511137","2646164","2644660","2647031","2536880","2532229","2564629","NA","2448331","2476048","2562974","2532015","2582962","2532233","NA","2646164","2646164","NA","NA","2644656","NAP perception","20","20415","23","yes","1024"
"87.5","yes","87.5","882.916666667","882.916666667","white","no","xpyriment","Ich habe die obigen Informationen gelesen und verstanden.","legacy","legacy","0","uniform","1","0","0","undefined","undefined","1","j","2","1","NA","0","1","0","0","0","0","0","0","0","0","33","33","33","0","0","0","NA","0","0","2","0","0","0","2","33","33","33","33","33","Thu Oct 26 10:31:11 2017","Forced-choice identification task with a practice and an experimental phase","yes","NAP_GER_AA_4blocks_noglides.osexp","/Users/aviadalbert/Documents/Academisch/UoC/Dissertation/Experiment/OpenSesame/NAP-FC/NAP_GER_AA_4blocks_noglides","yes","no","sans","no","20","no","black","no","Weiter","yes","768","legacy","23","9","0","/Users/aviadalbert/Documents/Academisch/UoC/Dissertation/Experiment/OpenSesame/NAP-FC/NAP_GER_AA_4blocks_noglides/subject-20.csv","xpyriment","Jazzy James","3.1.9","yes","yes","59a800d99ad5a1025d81bb03","59a801616c613b0251691de0","no","no","0","j","f","space","NA","space","space","j","775","2739","17782","NA","21756","20816","775","2","legacy","1024","1","44100","-16","experiment","ʃefal","2","1","1","0","1","eng,fra,dutch","20","","even","2582962","2564630","NA","NA","2585702","2582959","NA","2445456","2582467","2445457","2445457","2489376","2511137","2648820","2647312","2649596","2536880","2532229","2564629","NA","2448331","2476048","2562974","2532015","2582962","2532233","NA","2648819","2648819","NA","NA","2647308","NAP perception","21","21190","24","yes","1024"
"88","yes","88","879.44","879.44","white","no","xpyriment","Ich habe die obigen Informationen gelesen und verstanden.","legacy","legacy","0","uniform","1","0","0","undefined","undefined","1","j","2","1","NA","0","1","0","0","0","0","0","0","0","0","34","34","34","0","0","0","NA","0","0","2","0","0","0","2","34","34","34","34","34","Thu Oct 26 10:31:11 2017","Forced-choice identification task with a practice and an experimental phase","yes","NAP_GER_AA_4blocks_noglides.osexp","/Users/aviadalbert/Documents/Academisch/UoC/Dissertation/Experiment/OpenSesame/NAP-FC/NAP_GER_AA_4blocks_noglides","yes","no","sans","no","20","no","black","no","Weiter","yes","768","legacy","24","9","0","/Users/aviadalbert/Documents/Academisch/UoC/Dissertation/Experiment/OpenSesame/NAP-FC/NAP_GER_AA_4blocks_noglides/subject-20.csv","xpyriment","Jazzy James","3.1.9","yes","yes","59a800d99ad5a1025d81bb03","59a801616c613b0251691de0","no","no","0","j","f","space","NA","space","space","j","796","2739","17782","NA","21756","20816","796","2","legacy","1024","1","44100","-16","experiment","eʃfal","2","1","1","0","1","eng,fra,dutch","20","","even","2582962","2564630","NA","NA","2585702","2582959","NA","2445456","2582467","2445457","2445457","2489376","2511137","2651374","2649870","2652171","2536880","2532229","2564629","NA","2448331","2476048","2562974","2532015","2582962","2532233","NA","2651373","2651374","NA","NA","2649866","NAP perception","22","21986","25","yes","1024"
"88.4615384615","yes","88.4615384615","875.384615385","875.384615385","white","no","xpyriment","Ich habe die obigen Informationen gelesen und verstanden.","legacy","legacy","0","uniform","1","0","0","undefined","undefined","1","f","2","1","NA","0","1","0","0","0","0","0","0","0","0","35","35","35","0","0","0","NA","0","0","2","0","0","0","2","35","35","35","35","35","Thu Oct 26 10:31:11 2017","Forced-choice identification task with a practice and an experimental phase","yes","NAP_GER_AA_4blocks_noglides.osexp","/Users/aviadalbert/Documents/Academisch/UoC/Dissertation/Experiment/OpenSesame/NAP-FC/NAP_GER_AA_4blocks_noglides","yes","no","sans","no","20","no","black","no","Weiter","yes","768","legacy","25","9","0","/Users/aviadalbert/Documents/Academisch/UoC/Dissertation/Experiment/OpenSesame/NAP-FC/NAP_GER_AA_4blocks_noglides/subject-20.csv","xpyriment","Jazzy James","3.1.9","yes","yes","59a800d99ad5a1025d81bb03","59a801616c613b0251691de0","no","no","0","f","f","space","NA","space","space","f","774","2739","17782","NA","21756","20816","774","2","legacy","1024","1","44100","-16","experiment","fsal","2","1","1","0","1","eng,fra,dutch","20","","even","2582962","2564630","NA","NA","2585702","2582959","NA","2445456","2582467","2445457","2445457","2489376","2511137","2653944","2652436","2654719","2536880","2532229","2564629","NA","2448331","2476048","2562974","2532015","2582962","2532233","NA","2653944","2653944","NA","NA","2652432","NAP perception","23","22760","26","yes","1024"
"88.8888888889","yes","88.8888888889","869.185185185","869.185185185","white","no","xpyriment","Ich habe die obigen Informationen gelesen und verstanden.","legacy","legacy","0","uniform","1","0","0","undefined","undefined","1","f","2","1","NA","0","1","0","0","0","0","0","0","0","0","36","36","36","0","0","0","NA","0","0","2","0","0","0","2","36","36","36","36","36","Thu Oct 26 10:31:11 2017","Forced-choice identification task with a practice and an experimental phase","yes","NAP_GER_AA_4blocks_noglides.osexp","/Users/aviadalbert/Documents/Academisch/UoC/Dissertation/Experiment/OpenSesame/NAP-FC/NAP_GER_AA_4blocks_noglides","yes","no","sans","no","20","no","black","no","Weiter","yes","768","legacy","26","9","0","/Users/aviadalbert/Documents/Academisch/UoC/Dissertation/Experiment/OpenSesame/NAP-FC/NAP_GER_AA_4blocks_noglides/subject-20.csv","xpyriment","Jazzy James","3.1.9","yes","yes","59a800d99ad5a1025d81bb03","59a801616c613b0251691de0","no","no","0","f","f","space","NA","space","space","f","708","2739","17782","NA","21756","20816","708","2","legacy","1024","1","44100","-16","experiment","msal","2","1","1","0","1","eng,fra,dutch","20","","even","2582962","2564630","NA","NA","2585702","2582959","NA","2445456","2582467","2445457","2445457","2489376","2511137","2656503","2655000","2657212","2536880","2532229","2564629","NA","2448331","2476048","2562974","2532015","2582962","2532233","NA","2656503","2656503","NA","NA","2654997","NAP perception","24","23468","27","yes","1024"
"85.7142857143","yes","85.7142857143","863.071428571","863.071428571","white","no","xpyriment","Ich habe die obigen Informationen gelesen und verstanden.","legacy","legacy","0","uniform","0","0","0","undefined","undefined","0","f","2","1","NA","0","1","0","0","0","0","0","0","0","0","37","37","37","0","0","0","NA","0","0","2","0","0","0","2","37","37","37","37","37","Thu Oct 26 10:31:11 2017","Forced-choice identification task with a practice and an experimental phase","yes","NAP_GER_AA_4blocks_noglides.osexp","/Users/aviadalbert/Documents/Academisch/UoC/Dissertation/Experiment/OpenSesame/NAP-FC/NAP_GER_AA_4blocks_noglides","yes","no","sans","no","20","no","black","no","Weiter","yes","768","legacy","27","9","0","/Users/aviadalbert/Documents/Academisch/UoC/Dissertation/Experiment/OpenSesame/NAP-FC/NAP_GER_AA_4blocks_noglides/subject-20.csv","xpyriment","Jazzy James","3.1.9","yes","yes","59a800d99ad5a1025d81bb03","59a801616c613b0251691de0","no","no","0","j","f","space","NA","space","space","j","698","2739","17782","NA","21756","20816","698","2","legacy","1024","1","44100","-16","experiment","npal","2","1","1","0","1","eng,fra,dutch","20","","even","2582962","2564630","NA","NA","2585702","2582959","NA","2445456","2582467","2445457","2445457","2489376","2511137","2659008","2657501","2659707","2536880","2532229","2564629","NA","2448331","2476048","2562974","2532015","2582962","2532233","NA","2659008","2659008","NA","NA","2657497","NAP perception","24","24166","28","yes","1024"
"86.2068965517","yes","86.2068965517","861.206896552","861.206896552","white","no","xpyriment","Ich habe die obigen Informationen gelesen und verstanden.","legacy","legacy","0","uniform","1","0","0","undefined","undefined","1","j","2","1","NA","0","1","0","0","0","0","0","0","0","0","38","38","38","0","0","0","NA","0","0","2","0","0","0","2","38","38","38","38","38","Thu Oct 26 10:31:11 2017","Forced-choice identification task with a practice and an experimental phase","yes","NAP_GER_AA_4blocks_noglides.osexp","/Users/aviadalbert/Documents/Academisch/UoC/Dissertation/Experiment/OpenSesame/NAP-FC/NAP_GER_AA_4blocks_noglides","yes","no","sans","no","20","no","black","no","Weiter","yes","768","legacy","28","9","0","/Users/aviadalbert/Documents/Academisch/UoC/Dissertation/Experiment/OpenSesame/NAP-FC/NAP_GER_AA_4blocks_noglides/subject-20.csv","xpyriment","Jazzy James","3.1.9","yes","yes","59a800d99ad5a1025d81bb03","59a801616c613b0251691de0","no","no","0","j","f","space","NA","space","space","j","809","2739","17782","NA","21756","20816","809","2","legacy","1024","1","44100","-16","experiment","esmal","2","1","1","0","1","eng,fra,dutch","20","","even","2582962","2564630","NA","NA","2585702","2582959","NA","2445456","2582467","2445457","2445457","2489376","2511137","2661490","2659985","2662300","2536880","2532229","2564629","NA","2448331","2476048","2562974","2532015","2582962","2532233","NA","2661489","2661490","NA","NA","2659981","NAP perception","25","24975","29","yes","1024"
"86.6666666667","yes","86.6666666667","854.033333333","854.033333333","white","no","xpyriment","Ich habe die obigen Informationen gelesen und verstanden.","legacy","legacy","0","uniform","1","0","0","undefined","undefined","1","j","2","1","NA","0","1","0","0","0","0","0","0","0","0","39","39","39","0","0","0","NA","0","0","2","0","0","0","2","39","39","39","39","39","Thu Oct 26 10:31:11 2017","Forced-choice identification task with a practice and an experimental phase","yes","NAP_GER_AA_4blocks_noglides.osexp","/Users/aviadalbert/Documents/Academisch/UoC/Dissertation/Experiment/OpenSesame/NAP-FC/NAP_GER_AA_4blocks_noglides","yes","no","sans","no","20","no","black","no","Weiter","yes","768","legacy","29","9","0","/Users/aviadalbert/Documents/Academisch/UoC/Dissertation/Experiment/OpenSesame/NAP-FC/NAP_GER_AA_4blocks_noglides/subject-20.csv","xpyriment","Jazzy James","3.1.9","yes","yes","59a800d99ad5a1025d81bb03","59a801616c613b0251691de0","no","no","0","j","f","space","NA","space","space","j","646","2739","17782","NA","21756","20816","646","2","legacy","1024","1","44100","-16","experiment","felal","2","1","1","0","1","eng,fra,dutch","20","","even","2582962","2564630","NA","NA","2585702","2582959","NA","2445456","2582467","2445457","2445457","2489376","2511137","2664092","2662589","2664739","2536880","2532229","2564629","NA","2448331","2476048","2562974","2532015","2582962","2532233","NA","2664092","2664092","NA","NA","2662585","NAP perception","26","25621","30","yes","1024"
"87.0967741935","yes","87.0967741935","848.35483871","848.35483871","white","no","xpyriment","Ich habe die obigen Informationen gelesen und verstanden.","legacy","legacy","0","uniform","1","0","0","undefined","undefined","1","j","2","1","NA","0","1","0","0","0","0","0","0","0","0","40","40","40","0","0","0","NA","0","0","2","0","0","0","2","40","40","40","40","40","Thu Oct 26 10:31:11 2017","Forced-choice identification task with a practice and an experimental phase","yes","NAP_GER_AA_4blocks_noglides.osexp","/Users/aviadalbert/Documents/Academisch/UoC/Dissertation/Experiment/OpenSesame/NAP-FC/NAP_GER_AA_4blocks_noglides","yes","no","sans","no","20","no","black","no","Weiter","yes","768","legacy","30","9","0","/Users/aviadalbert/Documents/Academisch/UoC/Dissertation/Experiment/OpenSesame/NAP-FC/NAP_GER_AA_4blocks_noglides/subject-20.csv","xpyriment","Jazzy James","3.1.9","yes","yes","59a800d99ad5a1025d81bb03","59a801616c613b0251691de0","no","no","0","j","f","space","NA","space","space","j","678","2739","17782","NA","21756","20816","678","2","legacy","1024","1","44100","-16","experiment","eʃpal","2","1","1","0","1","eng,fra,dutch","20","","even","2582962","2564630","NA","NA","2585702","2582959","NA","2445456","2582467","2445457","2445457","2489376","2511137","2666531","2665027","2667210","2536880","2532229","2564629","NA","2448331","2476048","2562974","2532015","2582962","2532233","NA","2666531","2666531","NA","NA","2665024","NAP perception","27","26299","31","yes","1024"
"87.5","yes","87.5","846.375","846.375","white","no","xpyriment","Ich habe die obigen Informationen gelesen und verstanden.","legacy","legacy","0","uniform","1","0","0","undefined","undefined","1","j","2","1","NA","0","1","0","0","0","0","0","0","0","0","41","41","41","0","0","0","NA","0","0","2","0","0","0","2","41","41","41","41","41","Thu Oct 26 10:31:11 2017","Forced-choice identification task with a practice and an experimental phase","yes","NAP_GER_AA_4blocks_noglides.osexp","/Users/aviadalbert/Documents/Academisch/UoC/Dissertation/Experiment/OpenSesame/NAP-FC/NAP_GER_AA_4blocks_noglides","yes","no","sans","no","20","no","black","no","Weiter","yes","768","legacy","31","9","0","/Users/aviadalbert/Documents/Academisch/UoC/Dissertation/Experiment/OpenSesame/NAP-FC/NAP_GER_AA_4blocks_noglides/subject-20.csv","xpyriment","Jazzy James","3.1.9","yes","yes","59a800d99ad5a1025d81bb03","59a801616c613b0251691de0","no","no","0","j","f","space","NA","space","space","j","785","2739","17782","NA","21756","20816","785","2","legacy","1024","1","44100","-16","experiment","emnal","2","1","1","0","1","eng,fra,dutch","20","","even","2582962","2564630","NA","NA","2585702","2582959","NA","2445456","2582467","2445457","2445457","2489376","2511137","2668995","2667490","2669781","2536880","2532229","2564629","NA","2448331","2476048","2562974","2532015","2582962","2532233","NA","2668994","2668995","NA","NA","2667486","NAP perception","28","27084","32","yes","1024"
"84.8484848485","yes","84.8484848485","840.818181818","840.818181818","white","no","xpyriment","Ich habe die obigen Informationen gelesen und verstanden.","legacy","legacy","0","uniform","0","0","0","undefined","undefined","0","f","2","1","NA","0","1","0","0","0","0","0","0","0","0","42","42","42","0","0","0","NA","0","0","2","0","0","0","2","42","42","42","42","42","Thu Oct 26 10:31:11 2017","Forced-choice identification task with a practice and an experimental phase","yes","NAP_GER_AA_4blocks_noglides.osexp","/Users/aviadalbert/Documents/Academisch/UoC/Dissertation/Experiment/OpenSesame/NAP-FC/NAP_GER_AA_4blocks_noglides","yes","no","sans","no","20","no","black","no","Weiter","yes","768","legacy","32","9","0","/Users/aviadalbert/Documents/Academisch/UoC/Dissertation/Experiment/OpenSesame/NAP-FC/NAP_GER_AA_4blocks_noglides/subject-20.csv","xpyriment","Jazzy James","3.1.9","yes","yes","59a800d99ad5a1025d81bb03","59a801616c613b0251691de0","no","no","0","j","f","space","NA","space","space","j","663","2739","17782","NA","21756","20816","663","2","legacy","1024","1","44100","-16","experiment","mtal","2","1","1","0","1","eng,fra,dutch","20","","even","2582962","2564630","NA","NA","2585702","2582959","NA","2445456","2582467","2445457","2445457","2489376","2511137","2671569","2670061","2672234","2536880","2532229","2564629","NA","2448331","2476048","2562974","2532015","2582962","2532233","NA","2671569","2671569","NA","NA","2670057","NAP perception","28","27747","33","yes","1024"
"82.3529411765","yes","82.3529411765","841.5","841.5","white","no","xpyriment","Ich habe die obigen Informationen gelesen und verstanden.","legacy","legacy","0","uniform","0","0","0","undefined","undefined","0","f","2","1","NA","0","1","0","0","0","0","0","0","0","0","43","43","43","0","0","0","NA","0","0","2","0","0","0","2","43","43","43","43","43","Thu Oct 26 10:31:11 2017","Forced-choice identification task with a practice and an experimental phase","yes","NAP_GER_AA_4blocks_noglides.osexp","/Users/aviadalbert/Documents/Academisch/UoC/Dissertation/Experiment/OpenSesame/NAP-FC/NAP_GER_AA_4blocks_noglides","yes","no","sans","no","20","no","black","no","Weiter","yes","768","legacy","33","9","0","/Users/aviadalbert/Documents/Academisch/UoC/Dissertation/Experiment/OpenSesame/NAP-FC/NAP_GER_AA_4blocks_noglides/subject-20.csv","xpyriment","Jazzy James","3.1.9","yes","yes","59a800d99ad5a1025d81bb03","59a801616c613b0251691de0","no","no","0","j","f","space","NA","space","space","j","864","2739","17782","NA","21756","20816","864","2","legacy","1024","1","44100","-16","experiment","mtal","2","1","1","0","1","eng,fra,dutch","20","","even","2582962","2564630","NA","NA","2585702","2582959","NA","2445456","2582467","2445457","2445457","2489376","2511137","2674018","2672512","2674884","2536880","2532229","2564629","NA","2448331","2476048","2562974","2532015","2582962","2532233","NA","2674018","2674018","NA","NA","2672508","NAP perception","28","28611","34","yes","1024"
"82.8571428571","yes","82.8571428571","864.885714286","864.885714286","white","no","xpyriment","Ich habe die obigen Informationen gelesen und verstanden.","legacy","legacy","0","uniform","1","0","0","undefined","undefined","1","f","2","1","NA","0","1","0","0","0","0","0","0","0","0","44","44","44","0","0","0","NA","0","0","2","0","0","0","2","44","44","44","44","44","Thu Oct 26 10:31:11 2017","Forced-choice identification task with a practice and an experimental phase","yes","NAP_GER_AA_4blocks_noglides.osexp","/Users/aviadalbert/Documents/Academisch/UoC/Dissertation/Experiment/OpenSesame/NAP-FC/NAP_GER_AA_4blocks_noglides","yes","no","sans","no","20","no","black","no","Weiter","yes","768","legacy","34","9","0","/Users/aviadalbert/Documents/Academisch/UoC/Dissertation/Experiment/OpenSesame/NAP-FC/NAP_GER_AA_4blocks_noglides/subject-20.csv","xpyriment","Jazzy James","3.1.9","yes","yes","59a800d99ad5a1025d81bb03","59a801616c613b0251691de0","no","no","0","f","f","space","NA","space","space","f","1660","2739","17782","NA","21756","20816","1660","2","legacy","1024","1","44100","-16","experiment","zmal","2","1","1","0","1","eng,fra,dutch","20","","even","2582962","2564630","NA","NA","2585702","2582959","NA","2445456","2582467","2445457","2445457","2489376","2511137","2676666","2675162","2678328","2536880","2532229","2564629","NA","2448331","2476048","2562974","2532015","2582962","2532233","NA","2676666","2676666","NA","NA","2675158","NAP perception","29","30271","35","yes","1024"
"83.3333333333","yes","83.3333333333","861.416666667","861.416666667","white","no","xpyriment","Ich habe die obigen Informationen gelesen und verstanden.","legacy","legacy","0","uniform","1","0","0","undefined","undefined","1","j","2","1","NA","0","1","0","0","0","0","0","0","0","0","45","45","45","0","0","0","NA","0","0","2","0","0","0","2","45","45","45","45","45","Thu Oct 26 10:31:11 2017","Forced-choice identification task with a practice and an experimental phase","yes","NAP_GER_AA_4blocks_noglides.osexp","/Users/aviadalbert/Documents/Academisch/UoC/Dissertation/Experiment/OpenSesame/NAP-FC/NAP_GER_AA_4blocks_noglides","yes","no","sans","no","20","no","black","no","Weiter","yes","768","legacy","35","9","0","/Users/aviadalbert/Documents/Academisch/UoC/Dissertation/Experiment/OpenSesame/NAP-FC/NAP_GER_AA_4blocks_noglides/subject-20.csv","xpyriment","Jazzy James","3.1.9","yes","yes","59a800d99ad5a1025d81bb03","59a801616c613b0251691de0","no","no","0","j","f","space","NA","space","space","j","740","2739","17782","NA","21756","20816","740","2","legacy","1024","1","44100","-16","experiment","evzal","2","1","1","0","1","eng,fra,dutch","20","","even","2582962","2564630","NA","NA","2585702","2582959","NA","2445456","2582467","2445457","2445457","2489376","2511137","2680113","2678610","2680855","2536880","2532229","2564629","NA","2448331","2476048","2562974","2532015","2582962","2532233","NA","2680113","2680113","NA","NA","2678606","NAP perception","30","31011","36","yes","1024"
"83.7837837838","yes","83.7837837838","876.540540541","876.540540541","white","no","xpyriment","Ich habe die obigen Informationen gelesen und verstanden.","legacy","legacy","0","uniform","1","0","0","undefined","undefined","1","f","2","1","NA","0","1","0","0","0","0","0","0","0","0","46","46","46","0","0","0","NA","0","0","2","0","0","0","2","46","46","46","46","46","Thu Oct 26 10:31:11 2017","Forced-choice identification task with a practice and an experimental phase","yes","NAP_GER_AA_4blocks_noglides.osexp","/Users/aviadalbert/Documents/Academisch/UoC/Dissertation/Experiment/OpenSesame/NAP-FC/NAP_GER_AA_4blocks_noglides","yes","no","sans","no","20","no","black","no","Weiter","yes","768","legacy","36","9","0","/Users/aviadalbert/Documents/Academisch/UoC/Dissertation/Experiment/OpenSesame/NAP-FC/NAP_GER_AA_4blocks_noglides/subject-20.csv","xpyriment","Jazzy James","3.1.9","yes","yes","59a800d99ad5a1025d81bb03","59a801616c613b0251691de0","no","no","0","f","f","space","NA","space","space","f","1421","2739","17782","NA","21756","20816","1421","2","legacy","1024","1","44100","-16","experiment","nval","2","1","1","0","1","eng,fra,dutch","20","","even","2582962","2564630","NA","NA","2585702","2582959","NA","2445456","2582467","2445457","2445457","2489376","2511137","2682649","2681143","2684072","2536880","2532229","2564629","NA","2448331","2476048","2562974","2532015","2582962","2532233","NA","2682648","2682649","NA","NA","2681139","NAP perception","31","32432","37","yes","1024"
"84.2105263158","yes","84.2105263158","877.868421053","877.868421053","white","no","xpyriment","Ich habe die obigen Informationen gelesen und verstanden.","legacy","legacy","0","uniform","1","0","0","undefined","undefined","1","f","2","1","NA","0","1","0","0","0","0","0","0","0","0","47","47","47","0","0","0","NA","0","0","2","0","0","0","2","47","47","47","47","47","Thu Oct 26 10:31:11 2017","Forced-choice identification task with a practice and an experimental phase","yes","NAP_GER_AA_4blocks_noglides.osexp","/Users/aviadalbert/Documents/Academisch/UoC/Dissertation/Experiment/OpenSesame/NAP-FC/NAP_GER_AA_4blocks_noglides","yes","no","sans","no","20","no","black","no","Weiter","yes","768","legacy","37","9","0","/Users/aviadalbert/Documents/Academisch/UoC/Dissertation/Experiment/OpenSesame/NAP-FC/NAP_GER_AA_4blocks_noglides/subject-20.csv","xpyriment","Jazzy James","3.1.9","yes","yes","59a800d99ad5a1025d81bb03","59a801616c613b0251691de0","no","no","0","f","f","space","NA","space","space","f","927","2739","17782","NA","21756","20816","927","2","legacy","1024","1","44100","-16","experiment","mnal","2","1","1","0","1","eng,fra,dutch","20","","even","2582962","2564630","NA","NA","2585702","2582959","NA","2445456","2582467","2445457","2445457","2489376","2511137","2685841","2684336","2686770","2536880","2532229","2564629","NA","2448331","2476048","2562974","2532015","2582962","2532233","NA","2685840","2685841","NA","NA","2684332","NAP perception","32","33359","38","yes","1024"
"84.6153846154","yes","84.6153846154","875.794871795","875.794871795","white","no","xpyriment","Ich habe die obigen Informationen gelesen und verstanden.","legacy","legacy","0","uniform","1","0","0","undefined","undefined","1","j","2","1","NA","0","1","0","0","0","0","0","0","0","0","48","48","48","0","0","0","NA","0","0","2","0","0","0","2","48","48","48","48","48","Thu Oct 26 10:31:11 2017","Forced-choice identification task with a practice and an experimental phase","yes","NAP_GER_AA_4blocks_noglides.osexp","/Users/aviadalbert/Documents/Academisch/UoC/Dissertation/Experiment/OpenSesame/NAP-FC/NAP_GER_AA_4blocks_noglides","yes","no","sans","no","20","no","black","no","Weiter","yes","768","legacy","38","9","0","/Users/aviadalbert/Documents/Academisch/UoC/Dissertation/Experiment/OpenSesame/NAP-FC/NAP_GER_AA_4blocks_noglides/subject-20.csv","xpyriment","Jazzy James","3.1.9","yes","yes","59a800d99ad5a1025d81bb03","59a801616c613b0251691de0","no","no","0","j","f","space","NA","space","space","j","797","2739","17782","NA","21756","20816","797","2","legacy","1024","1","44100","-16","experiment","lemal","2","1","1","0","1","eng,fra,dutch","20","","even","2582962","2564630","NA","NA","2585702","2582959","NA","2445456","2582467","2445457","2445457","2489376","2511137","2688543","2687036","2689342","2536880","2532229","2564629","NA","2448331","2476048","2562974","2532015","2582962","2532233","NA","2688542","2688543","NA","NA","2687032","NAP perception","33","34156","39","yes","1024"
"85","yes","85","880.8","880.8","white","no","xpyriment","Ich habe die obigen Informationen gelesen und verstanden.","legacy","legacy","0","uniform","1","0","0","undefined","undefined","1","f","2","1","NA","0","1","0","0","0","0","0","0","0","0","49","49","49","0","0","0","NA","0","0","2","0","0","0","2","49","49","49","49","49","Thu Oct 26 10:31:11 2017","Forced-choice identification task with a practice and an experimental phase","yes","NAP_GER_AA_4blocks_noglides.osexp","/Users/aviadalbert/Documents/Academisch/UoC/Dissertation/Experiment/OpenSesame/NAP-FC/NAP_GER_AA_4blocks_noglides","yes","no","sans","no","20","no","black","no","Weiter","yes","768","legacy","39","9","0","/Users/aviadalbert/Documents/Academisch/UoC/Dissertation/Experiment/OpenSesame/NAP-FC/NAP_GER_AA_4blocks_noglides/subject-20.csv","xpyriment","Jazzy James","3.1.9","yes","yes","59a800d99ad5a1025d81bb03","59a801616c613b0251691de0","no","no","0","f","f","space","NA","space","space","f","1076","2739","17782","NA","21756","20816","1076","2","legacy","1024","1","44100","-16","experiment","vzal","2","1","1","0","1","eng,fra,dutch","20","","even","2582962","2564630","NA","NA","2585702","2582959","NA","2445456","2582467","2445457","2445457","2489376","2511137","2691119","2689615","2692197","2536880","2532229","2564629","NA","2448331","2476048","2562974","2532015","2582962","2532233","NA","2691119","2691119","NA","NA","2689611","NAP perception","34","35232","40","yes","1024"
"85.3658536585","yes","85.3658536585","881.414634146","881.414634146","white","no","xpyriment","Ich habe die obigen Informationen gelesen und verstanden.","legacy","legacy","0","uniform","1","0","0","undefined","undefined","1","j","2","1","NA","0","1","0","0","0","0","0","0","0","0","50","50","50","0","0","0","NA","0","0","2","0","0","0","2","50","50","50","50","50","Thu Oct 26 10:31:11 2017","Forced-choice identification task with a practice and an experimental phase","yes","NAP_GER_AA_4blocks_noglides.osexp","/Users/aviadalbert/Documents/Academisch/UoC/Dissertation/Experiment/OpenSesame/NAP-FC/NAP_GER_AA_4blocks_noglides","yes","no","sans","no","20","no","black","no","Weiter","yes","768","legacy","40","9","0","/Users/aviadalbert/Documents/Academisch/UoC/Dissertation/Experiment/OpenSesame/NAP-FC/NAP_GER_AA_4blocks_noglides/subject-20.csv","xpyriment","Jazzy James","3.1.9","yes","yes","59a800d99ad5a1025d81bb03","59a801616c613b0251691de0","no","no","0","j","f","space","NA","space","space","j","906","2739","17782","NA","21756","20816","906","2","legacy","1024","1","44100","-16","experiment","nemal","2","1","1","0","1","eng,fra,dutch","20","","even","2582962","2564630","NA","NA","2585702","2582959","NA","2445456","2582467","2445457","2445457","2489376","2511137","2693994","2692489","2694902","2536880","2532229","2564629","NA","2448331","2476048","2562974","2532015","2582962","2532233","NA","2693994","2693994","NA","NA","2692485","NAP perception","35","36138","41","yes","1024"
"85.7142857143","yes","85.7142857143","879.285714286","879.285714286","white","no","xpyriment","Ich habe die obigen Informationen gelesen und verstanden.","legacy","legacy","0","uniform","1","0","0","undefined","undefined","1","j","2","1","NA","0","1","0","0","0","0","0","0","0","0","51","51","51","0","0","0","NA","0","0","2","0","0","0","2","51","51","51","51","51","Thu Oct 26 10:31:11 2017","Forced-choice identification task with a practice and an experimental phase","yes","NAP_GER_AA_4blocks_noglides.osexp","/Users/aviadalbert/Documents/Academisch/UoC/Dissertation/Experiment/OpenSesame/NAP-FC/NAP_GER_AA_4blocks_noglides","yes","no","sans","no","20","no","black","no","Weiter","yes","768","legacy","41","9","0","/Users/aviadalbert/Documents/Academisch/UoC/Dissertation/Experiment/OpenSesame/NAP-FC/NAP_GER_AA_4blocks_noglides/subject-20.csv","xpyriment","Jazzy James","3.1.9","yes","yes","59a800d99ad5a1025d81bb03","59a801616c613b0251691de0","no","no","0","j","f","space","NA","space","space","j","792","2739","17782","NA","21756","20816","792","2","legacy","1024","1","44100","-16","experiment","venal","2","1","1","0","1","eng,fra,dutch","20","","even","2582962","2564630","NA","NA","2585702","2582959","NA","2445456","2582467","2445457","2445457","2489376","2511137","2696693","2695186","2697486","2536880","2532229","2564629","NA","2448331","2476048","2562974","2532015","2582962","2532233","NA","2696693","2696693","NA","NA","2695182","NAP perception","36","36930","42","yes","1024"
"86.0465116279","yes","86.0465116279","874.581395349","874.581395349","white","no","xpyriment","Ich habe die obigen Informationen gelesen und verstanden.","legacy","legacy","0","uniform","1","0","0","undefined","undefined","1","j","2","1","NA","0","1","0","0","0","0","0","0","0","0","52","52","52","0","0","0","NA","0","0","2","0","0","0","2","52","52","52","52","52","Thu Oct 26 10:31:11 2017","Forced-choice identification task with a practice and an experimental phase","yes","NAP_GER_AA_4blocks_noglides.osexp","/Users/aviadalbert/Documents/Academisch/UoC/Dissertation/Experiment/OpenSesame/NAP-FC/NAP_GER_AA_4blocks_noglides","yes","no","sans","no","20","no","black","no","Weiter","yes","768","legacy","42","9","0","/Users/aviadalbert/Documents/Academisch/UoC/Dissertation/Experiment/OpenSesame/NAP-FC/NAP_GER_AA_4blocks_noglides/subject-20.csv","xpyriment","Jazzy James","3.1.9","yes","yes","59a800d99ad5a1025d81bb03","59a801616c613b0251691de0","no","no","0","j","f","space","NA","space","space","j","677","2739","17782","NA","21756","20816","677","2","legacy","1024","1","44100","-16","experiment","vezal","2","1","1","0","1","eng,fra,dutch","20","","even","2582962","2564630","NA","NA","2585702","2582959","NA","2445456","2582467","2445457","2445457","2489376","2511137","2699258","2697754","2699936","2536880","2532229","2564629","NA","2448331","2476048","2562974","2532015","2582962","2532233","NA","2699258","2699258","NA","NA","2697751","NAP perception","37","37607","43","yes","1024"
"86.3636363636","yes","86.3636363636","868.522727273","868.522727273","white","no","xpyriment","Ich habe die obigen Informationen gelesen und verstanden.","legacy","legacy","0","uniform","1","0","0","undefined","undefined","1","f","2","1","NA","0","1","0","0","0","0","0","0","0","0","53","53","53","0","0","0","NA","0","0","2","0","0","0","2","53","53","53","53","53","Thu Oct 26 10:31:11 2017","Forced-choice identification task with a practice and an experimental phase","yes","NAP_GER_AA_4blocks_noglides.osexp","/Users/aviadalbert/Documents/Academisch/UoC/Dissertation/Experiment/OpenSesame/NAP-FC/NAP_GER_AA_4blocks_noglides","yes","no","sans","no","20","no","black","no","Weiter","yes","768","legacy","43","9","0","/Users/aviadalbert/Documents/Academisch/UoC/Dissertation/Experiment/OpenSesame/NAP-FC/NAP_GER_AA_4blocks_noglides/subject-20.csv","xpyriment","Jazzy James","3.1.9","yes","yes","59a800d99ad5a1025d81bb03","59a801616c613b0251691de0","no","no","0","f","f","space","NA","space","space","f","608","2739","17782","NA","21756","20816","608","2","legacy","1024","1","44100","-16","experiment","flal","2","1","1","0","1","eng,fra,dutch","20","","even","2582962","2564630","NA","NA","2585702","2582959","NA","2445456","2582467","2445457","2445457","2489376","2511137","2701712","2700208","2702321","2536880","2532229","2564629","NA","2448331","2476048","2562974","2532015","2582962","2532233","NA","2701711","2701712","NA","NA","2700205","NAP perception","38","38215","44","yes","1024"
"86.6666666667","yes","86.6666666667","864.977777778","864.977777778","white","no","xpyriment","Ich habe die obigen Informationen gelesen und verstanden.","legacy","legacy","0","uniform","1","0","0","undefined","undefined","1","j","2","1","NA","0","1","0","0","0","0","0","0","0","0","54","54","54","0","0","0","NA","0","0","2","0","0","0","2","54","54","54","54","54","Thu Oct 26 10:31:11 2017","Forced-choice identification task with a practice and an experimental phase","yes","NAP_GER_AA_4blocks_noglides.osexp","/Users/aviadalbert/Documents/Academisch/UoC/Dissertation/Experiment/OpenSesame/NAP-FC/NAP_GER_AA_4blocks_noglides","yes","no","sans","no","20","no","black","no","Weiter","yes","768","legacy","44","9","0","/Users/aviadalbert/Documents/Academisch/UoC/Dissertation/Experiment/OpenSesame/NAP-FC/NAP_GER_AA_4blocks_noglides/subject-20.csv","xpyriment","Jazzy James","3.1.9","yes","yes","59a800d99ad5a1025d81bb03","59a801616c613b0251691de0","no","no","0","j","f","space","NA","space","space","j","709","2739","17782","NA","21756","20816","709","2","legacy","1024","1","44100","-16","experiment","efnal","2","1","1","0","1","eng,fra,dutch","20","","even","2582962","2564630","NA","NA","2585702","2582959","NA","2445456","2582467","2445457","2445457","2489376","2511137","2704106","2702603","2704817","2536880","2532229","2564629","NA","2448331","2476048","2562974","2532015","2582962","2532233","NA","2704106","2704106","NA","NA","2702599","NAP perception","39","38924","45","yes","1024"
"84.7826086957","yes","84.7826086957","877.043478261","877.043478261","white","no","xpyriment","Ich habe die obigen Informationen gelesen und verstanden.","legacy","legacy","0","uniform","0","0","0","undefined","undefined","0","f","2","1","NA","0","1","0","0","0","0","0","0","0","0","55","55","55","0","0","0","NA","0","0","2","0","0","0","2","55","55","55","55","55","Thu Oct 26 10:31:11 2017","Forced-choice identification task with a practice and an experimental phase","yes","NAP_GER_AA_4blocks_noglides.osexp","/Users/aviadalbert/Documents/Academisch/UoC/Dissertation/Experiment/OpenSesame/NAP-FC/NAP_GER_AA_4blocks_noglides","yes","no","sans","no","20","no","black","no","Weiter","yes","768","legacy","45","9","0","/Users/aviadalbert/Documents/Academisch/UoC/Dissertation/Experiment/OpenSesame/NAP-FC/NAP_GER_AA_4blocks_noglides/subject-20.csv","xpyriment","Jazzy James","3.1.9","yes","yes","59a800d99ad5a1025d81bb03","59a801616c613b0251691de0","no","no","0","j","f","space","NA","space","space","j","1420","2739","17782","NA","21756","20816","1420","2","legacy","1024","1","44100","-16","experiment","lfal","2","1","1","0","1","eng,fra,dutch","20","","even","2582962","2564630","NA","NA","2585702","2582959","NA","2445456","2582467","2445457","2445457","2489376","2511137","2706598","2705095","2708019","2536880","2532229","2564629","NA","2448331","2476048","2562974","2532015","2582962","2532233","NA","2706598","2706598","NA","NA","2705091","NAP perception","39","40344","46","yes","1024"
"85.1063829787","yes","85.1063829787","883.382978723","883.382978723","white","no","xpyriment","Ich habe die obigen Informationen gelesen und verstanden.","legacy","legacy","0","uniform","1","0","0","undefined","undefined","1","f","2","1","NA","0","1","0","0","0","0","0","0","0","0","56","56","56","0","0","0","NA","0","0","2","0","0","0","2","56","56","56","56","56","Thu Oct 26 10:31:11 2017","Forced-choice identification task with a practice and an experimental phase","yes","NAP_GER_AA_4blocks_noglides.osexp","/Users/aviadalbert/Documents/Academisch/UoC/Dissertation/Experiment/OpenSesame/NAP-FC/NAP_GER_AA_4blocks_noglides","yes","no","sans","no","20","no","black","no","Weiter","yes","768","legacy","46","9","0","/Users/aviadalbert/Documents/Academisch/UoC/Dissertation/Experiment/OpenSesame/NAP-FC/NAP_GER_AA_4blocks_noglides/subject-20.csv","xpyriment","Jazzy James","3.1.9","yes","yes","59a800d99ad5a1025d81bb03","59a801616c613b0251691de0","no","no","0","f","f","space","NA","space","space","f","1175","2739","17782","NA","21756","20816","1175","2","legacy","1024","1","44100","-16","experiment","zmal","2","1","1","0","1","eng,fra,dutch","20","","even","2582962","2564630","NA","NA","2585702","2582959","NA","2445456","2582467","2445457","2445457","2489376","2511137","2709814","2708310","2710990","2536880","2532229","2564629","NA","2448331","2476048","2562974","2532015","2582962","2532233","NA","2709814","2709814","NA","NA","2708306","NAP perception","40","41519","47","yes","1024"
"85.4166666667","yes","85.4166666667","895","895","white","no","xpyriment","Ich habe die obigen Informationen gelesen und verstanden.","legacy","legacy","0","uniform","1","0","0","undefined","undefined","1","j","2","1","NA","0","1","0","0","0","0","0","0","0","0","57","57","57","0","0","0","NA","0","0","2","0","0","0","2","57","57","57","57","57","Thu Oct 26 10:31:11 2017","Forced-choice identification task with a practice and an experimental phase","yes","NAP_GER_AA_4blocks_noglides.osexp","/Users/aviadalbert/Documents/Academisch/UoC/Dissertation/Experiment/OpenSesame/NAP-FC/NAP_GER_AA_4blocks_noglides","yes","no","sans","no","20","no","black","no","Weiter","yes","768","legacy","47","9","0","/Users/aviadalbert/Documents/Academisch/UoC/Dissertation/Experiment/OpenSesame/NAP-FC/NAP_GER_AA_4blocks_noglides/subject-20.csv","xpyriment","Jazzy James","3.1.9","yes","yes","59a800d99ad5a1025d81bb03","59a801616c613b0251691de0","no","no","0","j","f","space","NA","space","space","j","1441","2739","17782","NA","21756","20816","1441","2","legacy","1024","1","44100","-16","experiment","fenal","2","1","1","0","1","eng,fra,dutch","20","","even","2582962","2564630","NA","NA","2585702","2582959","NA","2445456","2582467","2445457","2445457","2489376","2511137","2712764","2711259","2714206","2536880","2532229","2564629","NA","2448331","2476048","2562974","2532015","2582962","2532233","NA","2712764","2712764","NA","NA","2711255","NAP perception","41","42960","48","yes","1024"
"85.7142857143","yes","85.7142857143","891.12244898","891.12244898","white","no","xpyriment","Ich habe die obigen Informationen gelesen und verstanden.","legacy","legacy","0","uniform","1","0","0","undefined","undefined","1","j","2","1","NA","0","1","0","0","0","0","0","0","0","0","58","58","58","0","0","0","NA","0","0","2","0","0","0","2","58","58","58","58","58","Thu Oct 26 10:31:11 2017","Forced-choice identification task with a practice and an experimental phase","yes","NAP_GER_AA_4blocks_noglides.osexp","/Users/aviadalbert/Documents/Academisch/UoC/Dissertation/Experiment/OpenSesame/NAP-FC/NAP_GER_AA_4blocks_noglides","yes","no","sans","no","20","no","black","no","Weiter","yes","768","legacy","48","9","0","/Users/aviadalbert/Documents/Academisch/UoC/Dissertation/Experiment/OpenSesame/NAP-FC/NAP_GER_AA_4blocks_noglides/subject-20.csv","xpyriment","Jazzy James","3.1.9","yes","yes","59a800d99ad5a1025d81bb03","59a801616c613b0251691de0","no","no","0","j","f","space","NA","space","space","j","705","2739","17782","NA","21756","20816","705","2","legacy","1024","1","44100","-16","experiment","elfal","2","1","1","0","1","eng,fra,dutch","20","","even","2582962","2564630","NA","NA","2585702","2582959","NA","2445456","2582467","2445457","2445457","2489376","2511137","2715991","2714484","2716698","2536880","2532229","2564629","NA","2448331","2476048","2562974","2532015","2582962","2532233","NA","2715991","2715991","NA","NA","2714480","NAP perception","42","43665","49","yes","1024"
"86","yes","86","888.2","888.2","white","no","xpyriment","Ich habe die obigen Informationen gelesen und verstanden.","legacy","legacy","0","uniform","1","0","0","undefined","undefined","1","j","2","1","NA","0","1","0","0","0","0","0","0","0","0","59","59","59","0","0","0","NA","0","0","2","0","0","0","2","59","59","59","59","59","Thu Oct 26 10:31:11 2017","Forced-choice identification task with a practice and an experimental phase","yes","NAP_GER_AA_4blocks_noglides.osexp","/Users/aviadalbert/Documents/Academisch/UoC/Dissertation/Experiment/OpenSesame/NAP-FC/NAP_GER_AA_4blocks_noglides","yes","no","sans","no","20","no","black","no","Weiter","yes","768","legacy","49","9","0","/Users/aviadalbert/Documents/Academisch/UoC/Dissertation/Experiment/OpenSesame/NAP-FC/NAP_GER_AA_4blocks_noglides/subject-20.csv","xpyriment","Jazzy James","3.1.9","yes","yes","59a800d99ad5a1025d81bb03","59a801616c613b0251691de0","no","no","0","j","f","space","NA","space","space","j","745","2739","17782","NA","21756","20816","745","2","legacy","1024","1","44100","-16","experiment","mesal","2","1","1","0","1","eng,fra,dutch","20","","even","2582962","2564630","NA","NA","2585702","2582959","NA","2445456","2582467","2445457","2445457","2489376","2511137","2718473","2716970","2719220","2536880","2532229","2564629","NA","2448331","2476048","2562974","2532015","2582962","2532233","NA","2718473","2718473","NA","NA","2716966","NAP perception","43","44410","50","yes","1024"
"84.3137254902","yes","84.3137254902","887.019607843","887.019607843","white","no","xpyriment","Ich habe die obigen Informationen gelesen und verstanden.","legacy","legacy","0","uniform","0","0","0","undefined","undefined","0","f","2","1","NA","0","1","0","0","0","0","0","0","0","0","60","60","60","0","0","0","NA","0","0","2","0","0","0","2","60","60","60","60","60","Thu Oct 26 10:31:11 2017","Forced-choice identification task with a practice and an experimental phase","yes","NAP_GER_AA_4blocks_noglides.osexp","/Users/aviadalbert/Documents/Academisch/UoC/Dissertation/Experiment/OpenSesame/NAP-FC/NAP_GER_AA_4blocks_noglides","yes","no","sans","no","20","no","black","no","Weiter","yes","768","legacy","50","9","0","/Users/aviadalbert/Documents/Academisch/UoC/Dissertation/Experiment/OpenSesame/NAP-FC/NAP_GER_AA_4blocks_noglides/subject-20.csv","xpyriment","Jazzy James","3.1.9","yes","yes","59a800d99ad5a1025d81bb03","59a801616c613b0251691de0","no","no","0","j","f","space","NA","space","space","j","828","2739","17782","NA","21756","20816","828","2","legacy","1024","1","44100","-16","experiment","lval","2","1","1","0","1","eng,fra,dutch","20","","even","2582962","2564630","NA","NA","2585702","2582959","NA","2445456","2582467","2445457","2445457","2489376","2511137","2721007","2719504","2721837","2536880","2532229","2564629","NA","2448331","2476048","2562974","2532015","2582962","2532233","NA","2721007","2721007","NA","NA","2719500","NAP perception","43","45238","51","yes","1024"
"84.6153846154","yes","84.6153846154","894.634615385","894.634615385","white","no","xpyriment","Ich habe die obigen Informationen gelesen und verstanden.","legacy","legacy","0","uniform","1","0","0","undefined","undefined","1","f","2","1","NA","0","1","0","0","0","0","0","0","0","0","61","61","61","0","0","0","NA","0","0","2","0","0","0","2","61","61","61","61","61","Thu Oct 26 10:31:11 2017","Forced-choice identification task with a practice and an experimental phase","yes","NAP_GER_AA_4blocks_noglides.osexp","/Users/aviadalbert/Documents/Academisch/UoC/Dissertation/Experiment/OpenSesame/NAP-FC/NAP_GER_AA_4blocks_noglides","yes","no","sans","no","20","no","black","no","Weiter","yes","768","legacy","51","9","0","/Users/aviadalbert/Documents/Academisch/UoC/Dissertation/Experiment/OpenSesame/NAP-FC/NAP_GER_AA_4blocks_noglides/subject-20.csv","xpyriment","Jazzy James","3.1.9","yes","yes","59a800d99ad5a1025d81bb03","59a801616c613b0251691de0","no","no","0","f","f","space","NA","space","space","f","1283","2739","17782","NA","21756","20816","1283","2","legacy","1024","1","44100","-16","experiment","nfal","2","1","1","0","1","eng,fra,dutch","20","","even","2582962","2564630","NA","NA","2585702","2582959","NA","2445456","2582467","2445457","2445457","2489376","2511137","2723611","2722108","2724896","2536880","2532229","2564629","NA","2448331","2476048","2562974","2532015","2582962","2532233","NA","2723611","2723611","NA","NA","2722104","NAP perception","44","46521","52","yes","1024"
"84.9056603774","yes","84.9056603774","892.622641509","892.622641509","white","no","xpyriment","Ich habe die obigen Informationen gelesen und verstanden.","legacy","legacy","0","uniform","1","0","0","undefined","undefined","1","j","2","1","NA","0","1","0","0","0","0","0","0","0","0","62","62","62","0","0","0","NA","0","0","2","0","0","0","2","62","62","62","62","62","Thu Oct 26 10:31:11 2017","Forced-choice identification task with a practice and an experimental phase","yes","NAP_GER_AA_4blocks_noglides.osexp","/Users/aviadalbert/Documents/Academisch/UoC/Dissertation/Experiment/OpenSesame/NAP-FC/NAP_GER_AA_4blocks_noglides","yes","no","sans","no","20","no","black","no","Weiter","yes","768","legacy","52","9","0","/Users/aviadalbert/Documents/Academisch/UoC/Dissertation/Experiment/OpenSesame/NAP-FC/NAP_GER_AA_4blocks_noglides/subject-20.csv","xpyriment","Jazzy James","3.1.9","yes","yes","59a800d99ad5a1025d81bb03","59a801616c613b0251691de0","no","no","0","j","f","space","NA","space","space","j","788","2739","17782","NA","21756","20816","788","2","legacy","1024","1","44100","-16","experiment","ezmal","2","1","1","0","1","eng,fra,dutch","20","","even","2582962","2564630","NA","NA","2585702","2582959","NA","2445456","2582467","2445457","2445457","2489376","2511137","2726679","2725173","2727469","2536880","2532229","2564629","NA","2448331","2476048","2562974","2532015","2582962","2532233","NA","2726678","2726679","NA","NA","2725170","NAP perception","45","47309","53","yes","1024"
"85.1851851852","yes","85.1851851852","892.240740741","892.240740741","white","no","xpyriment","Ich habe die obigen Informationen gelesen und verstanden.","legacy","legacy","0","uniform","1","0","0","undefined","undefined","1","j","2","1","NA","0","1","0","0","0","0","0","0","0","0","63","63","63","0","0","0","NA","0","0","2","0","0","0","2","63","63","63","63","63","Thu Oct 26 10:31:11 2017","Forced-choice identification task with a practice and an experimental phase","yes","NAP_GER_AA_4blocks_noglides.osexp","/Users/aviadalbert/Documents/Academisch/UoC/Dissertation/Experiment/OpenSesame/NAP-FC/NAP_GER_AA_4blocks_noglides","yes","no","sans","no","20","no","black","no","Weiter","yes","768","legacy","53","9","0","/Users/aviadalbert/Documents/Academisch/UoC/Dissertation/Experiment/OpenSesame/NAP-FC/NAP_GER_AA_4blocks_noglides/subject-20.csv","xpyriment","Jazzy James","3.1.9","yes","yes","59a800d99ad5a1025d81bb03","59a801616c613b0251691de0","no","no","0","j","f","space","NA","space","space","j","872","2739","17782","NA","21756","20816","872","2","legacy","1024","1","44100","-16","experiment","emzal","2","1","1","0","1","eng,fra,dutch","20","","even","2582962","2564630","NA","NA","2585702","2582959","NA","2445456","2582467","2445457","2445457","2489376","2511137","2729271","2727765","2730145","2536880","2532229","2564629","NA","2448331","2476048","2562974","2532015","2582962","2532233","NA","2729271","2729271","NA","NA","2727761","NAP perception","46","48181","54","yes","1024"
"85.4545454545","yes","85.4545454545","891.545454545","891.545454545","white","no","xpyriment","Ich habe die obigen Informationen gelesen und verstanden.","legacy","legacy","0","uniform","1","0","0","undefined","undefined","1","j","2","1","NA","0","1","0","0","0","0","0","0","0","0","64","64","64","0","0","0","NA","0","0","2","0","0","0","2","64","64","64","64","64","Thu Oct 26 10:31:11 2017","Forced-choice identification task with a practice and an experimental phase","yes","NAP_GER_AA_4blocks_noglides.osexp","/Users/aviadalbert/Documents/Academisch/UoC/Dissertation/Experiment/OpenSesame/NAP-FC/NAP_GER_AA_4blocks_noglides","yes","no","sans","no","20","no","black","no","Weiter","yes","768","legacy","54","9","0","/Users/aviadalbert/Documents/Academisch/UoC/Dissertation/Experiment/OpenSesame/NAP-FC/NAP_GER_AA_4blocks_noglides/subject-20.csv","xpyriment","Jazzy James","3.1.9","yes","yes","59a800d99ad5a1025d81bb03","59a801616c613b0251691de0","no","no","0","j","f","space","NA","space","space","j","854","2739","17782","NA","21756","20816","854","2","legacy","1024","1","44100","-16","experiment","elpal","2","1","1","0","1","eng,fra,dutch","20","","even","2582962","2564630","NA","NA","2585702","2582959","NA","2445456","2582467","2445457","2445457","2489376","2511137","2731920","2730417","2732776","2536880","2532229","2564629","NA","2448331","2476048","2562974","2532015","2582962","2532233","NA","2731920","2731920","NA","NA","2730413","NAP perception","47","49035","55","yes","1024"
