"acc","accept_status","accuracy","average_response_time","avg_rt","background","bidi","canvas_backend","checkbox_status","clock_backend","color_backend","compensation","coordinates","correct","correct_block_activation","correct_block_exit","correct_instructions_1","correct_instructions_2","correct_keyboard_response","correct_response","count_block_activation","count_block_exit","count_block_info_QA","count_cont_e_block_message","count_e_block_loop","count_e_block_sequence","count_end_of_experiment","count_experiment","count_experimental_loop","count_form_consent","count_info_forms","count_instructions_1","count_instructions_2","count_keyboard_response","count_listen_message","count_logger","count_p_block_loop","count_p_block_sequence","count_p_feedback","count_pause_feedback","count_personal_details_form_1","count_personal_details_form_2","count_post_loop_blank","count_practice_loop","count_pre_e_block_message","count_pre_p_block_message","count_reset_feedback","count_stimulus_image","count_stimulus_sound","count_timeout_message","count_timeout_sound","count_trial_sequence","datetime","description","disable_garbage_collection","experiment_file","experiment_path","expyriment_opengl","font_bold","font_family","font_italic","font_size","font_underline","foreground","form_clicks","form_response","fullscreen","height","keyboard_backend","live_row","live_row_p_block_loop","live_row_practice_loop","logfile","mouse_backend","opensesame_codename","opensesame_version","osf_always_upload_data","osf_always_upload_experiment","osf_datanode_id","osf_id","practice","pygame_doublebuf","repeat_cycle","response","response_block_activation","response_block_exit","response_block_info_QA","response_instructions_1","response_instructions_2","response_keyboard_response","response_time","response_time_block_activation","response_time_block_exit","response_time_block_info_QA","response_time_instructions_1","response_time_instructions_2","response_time_keyboard_response","round_decimals","sampler_backend","sound_buf_size","sound_channels","sound_freq","sound_sample_size","start","stimulus","subject_age","subject_education","subject_gender","subject_german_native","subject_handedness","subject_language_other","subject_nr","subject_other_native_lang","subject_parity","time_block_activation","time_block_exit","time_block_info_QA","time_cont_e_block_message","time_e_block_loop","time_e_block_sequence","time_end_of_experiment","time_experiment","time_experimental_loop","time_form_consent","time_info_forms","time_instructions_1","time_instructions_2","time_keyboard_response","time_listen_message","time_logger","time_p_block_loop","time_p_block_sequence","time_p_feedback","time_pause_feedback","time_personal_details_form_1","time_personal_details_form_2","time_post_loop_blank","time_practice_loop","time_pre_e_block_message","time_pre_p_block_message","time_reset_feedback","time_stimulus_image","time_stimulus_sound","time_timeout_message","time_timeout_sound","time_trial_sequence","title","total_correct","total_response_time","total_responses","uniform_coordinates","width"
"100","yes","100","1657","1657","white","no","xpyriment","Ich habe die obigen Informationen gelesen und verstanden.","legacy","legacy","0","uniform","1","0","NA","undefined","undefined","1","f","0","0","NA","NA","NA","NA","NA","0","0","0","0","0","0","0","0","0","0","0","NA","NA","0","0","0","0","NA","0","0","0","0","0","0","0","Fri Nov  3 11:47:54 2017","Forced-choice identification task with a practice and an experimental phase","yes","NAP_GER_AA_4blocks_noglides.osexp","/Users/aviadalbert/Documents/Academisch/UoC/Dissertation/Experiment/OpenSesame/NAP-FC/NAP_GER_AA_4blocks_noglides","yes","no","sans","no","20","no","black","no","Weiter","yes","768","legacy","0","0","0","/Users/aviadalbert/Documents/Academisch/UoC/Dissertation/Experiment/OpenSesame/NAP-FC/NAP_GER_AA_4blocks_noglides/subject-40.csv","xpyriment","Jazzy James","3.1.9","yes","yes","59a800d99ad5a1025d81bb03","59a801616c613b0251691de0","yes","no","0","f","j","NA","NA","m","k","f","1657","5200","NA","NA","26780","32962","1657","2","legacy","1024","1","44100","-16","experiment","flal","2","0","1","0","1","Englisch","40","","even","5766045","NA","NA","NA","NA","NA","NA","5121022","NA","5121023","5121023","5705992","5732776","5772959","5771453","5774617","5771246","5766041","NA","NA","5641432","5688746","NA","5765809","NA","5766044","NA","5772959","5772959","NA","NA","5771449","NAP perception","1","1657","1","yes","1024"
"100","yes","100","1394.5","1394.5","white","no","xpyriment","Ich habe die obigen Informationen gelesen und verstanden.","legacy","legacy","0","uniform","1","0","NA","undefined","undefined","1","j","0","0","NA","NA","NA","NA","NA","0","0","0","0","0","0","1","1","1","0","0","NA","NA","0","0","0","0","NA","0","0","1","1","1","1","1","Fri Nov  3 11:47:54 2017","Forced-choice identification task with a practice and an experimental phase","yes","NAP_GER_AA_4blocks_noglides.osexp","/Users/aviadalbert/Documents/Academisch/UoC/Dissertation/Experiment/OpenSesame/NAP-FC/NAP_GER_AA_4blocks_noglides","yes","no","sans","no","20","no","black","no","Weiter","yes","768","legacy","1","1","0","/Users/aviadalbert/Documents/Academisch/UoC/Dissertation/Experiment/OpenSesame/NAP-FC/NAP_GER_AA_4blocks_noglides/subject-40.csv","xpyriment","Jazzy James","3.1.9","yes","yes","59a800d99ad5a1025d81bb03","59a801616c613b0251691de0","yes","no","0","j","j","NA","NA","m","k","j","1132","5200","NA","NA","26780","32962","1132","2","legacy","1024","1","44100","-16","experiment","lepal","2","0","1","0","1","Englisch","40","","even","5766045","NA","NA","NA","NA","NA","NA","5121022","NA","5121023","5121023","5705992","5732776","5776391","5774886","5777524","5771246","5766041","NA","NA","5641432","5688746","NA","5765809","NA","5766044","NA","5776391","5776391","NA","NA","5774882","NAP perception","2","2789","2","yes","1024"
"100","yes","100","1350","1350","white","no","xpyriment","Ich habe die obigen Informationen gelesen und verstanden.","legacy","legacy","0","uniform","1","0","NA","undefined","undefined","1","j","0","0","NA","NA","NA","NA","NA","0","0","0","0","0","0","2","2","2","0","0","NA","NA","0","0","0","0","NA","0","0","2","2","2","2","2","Fri Nov  3 11:47:54 2017","Forced-choice identification task with a practice and an experimental phase","yes","NAP_GER_AA_4blocks_noglides.osexp","/Users/aviadalbert/Documents/Academisch/UoC/Dissertation/Experiment/OpenSesame/NAP-FC/NAP_GER_AA_4blocks_noglides","yes","no","sans","no","20","no","black","no","Weiter","yes","768","legacy","2","2","0","/Users/aviadalbert/Documents/Academisch/UoC/Dissertation/Experiment/OpenSesame/NAP-FC/NAP_GER_AA_4blocks_noglides/subject-40.csv","xpyriment","Jazzy James","3.1.9","yes","yes","59a800d99ad5a1025d81bb03","59a801616c613b0251691de0","yes","no","0","j","j","NA","NA","m","k","j","1261","5200","NA","NA","26780","32962","1261","2","legacy","1024","1","44100","-16","experiment","emtal","2","0","1","0","1","Englisch","40","","even","5766045","NA","NA","NA","NA","NA","NA","5121022","NA","5121023","5121023","5705992","5732776","5779294","5777790","5780556","5771246","5766041","NA","NA","5641432","5688746","NA","5765809","NA","5766044","NA","5779294","5779294","NA","NA","5777785","NAP perception","3","4050","3","yes","1024"
"100","yes","100","1327.5","1327.5","white","no","xpyriment","Ich habe die obigen Informationen gelesen und verstanden.","legacy","legacy","0","uniform","1","0","NA","undefined","undefined","1","f","0","0","NA","NA","NA","NA","NA","0","0","0","0","0","0","3","3","3","0","0","NA","NA","0","0","0","0","NA","0","0","3","3","3","3","3","Fri Nov  3 11:47:54 2017","Forced-choice identification task with a practice and an experimental phase","yes","NAP_GER_AA_4blocks_noglides.osexp","/Users/aviadalbert/Documents/Academisch/UoC/Dissertation/Experiment/OpenSesame/NAP-FC/NAP_GER_AA_4blocks_noglides","yes","no","sans","no","20","no","black","no","Weiter","yes","768","legacy","3","3","0","/Users/aviadalbert/Documents/Academisch/UoC/Dissertation/Experiment/OpenSesame/NAP-FC/NAP_GER_AA_4blocks_noglides/subject-40.csv","xpyriment","Jazzy James","3.1.9","yes","yes","59a800d99ad5a1025d81bb03","59a801616c613b0251691de0","yes","no","0","f","j","NA","NA","m","k","f","1260","5200","NA","NA","26780","32962","1260","2","legacy","1024","1","44100","-16","experiment","ʃpal","2","0","1","0","1","Englisch","40","","even","5766045","NA","NA","NA","NA","NA","NA","5121022","NA","5121023","5121023","5705992","5732776","5782342","5780835","5783604","5771246","5766041","NA","NA","5641432","5688746","NA","5765809","NA","5766044","NA","5782342","5782342","NA","NA","5780831","NAP perception","4","5310","4","yes","1024"
"100","yes","100","1292.6","1292.6","white","no","xpyriment","Ich habe die obigen Informationen gelesen und verstanden.","legacy","legacy","0","uniform","1","0","NA","undefined","undefined","1","j","0","0","NA","NA","NA","NA","NA","0","0","0","0","0","0","4","4","4","0","0","NA","NA","0","0","0","0","NA","0","0","4","4","4","4","4","Fri Nov  3 11:47:54 2017","Forced-choice identification task with a practice and an experimental phase","yes","NAP_GER_AA_4blocks_noglides.osexp","/Users/aviadalbert/Documents/Academisch/UoC/Dissertation/Experiment/OpenSesame/NAP-FC/NAP_GER_AA_4blocks_noglides","yes","no","sans","no","20","no","black","no","Weiter","yes","768","legacy","4","4","0","/Users/aviadalbert/Documents/Academisch/UoC/Dissertation/Experiment/OpenSesame/NAP-FC/NAP_GER_AA_4blocks_noglides/subject-40.csv","xpyriment","Jazzy James","3.1.9","yes","yes","59a800d99ad5a1025d81bb03","59a801616c613b0251691de0","yes","no","0","j","j","NA","NA","m","k","j","1153","5200","NA","NA","26780","32962","1153","2","legacy","1024","1","44100","-16","experiment","nefal","2","0","1","0","1","Englisch","40","","even","5766045","NA","NA","NA","NA","NA","NA","5121022","NA","5121023","5121023","5705992","5732776","5785377","5783872","5786531","5771246","5766041","NA","NA","5641432","5688746","NA","5765809","NA","5766044","NA","5785376","5785376","NA","NA","5783868","NAP perception","5","6463","5","yes","1024"
"100","yes","100","1250.83333333","1250.83333333","white","no","xpyriment","Ich habe die obigen Informationen gelesen und verstanden.","legacy","legacy","0","uniform","1","0","NA","undefined","undefined","1","f","0","0","NA","NA","NA","NA","NA","0","0","0","0","0","0","5","5","5","0","0","NA","NA","0","0","0","0","NA","0","0","5","5","5","5","5","Fri Nov  3 11:47:54 2017","Forced-choice identification task with a practice and an experimental phase","yes","NAP_GER_AA_4blocks_noglides.osexp","/Users/aviadalbert/Documents/Academisch/UoC/Dissertation/Experiment/OpenSesame/NAP-FC/NAP_GER_AA_4blocks_noglides","yes","no","sans","no","20","no","black","no","Weiter","yes","768","legacy","5","5","0","/Users/aviadalbert/Documents/Academisch/UoC/Dissertation/Experiment/OpenSesame/NAP-FC/NAP_GER_AA_4blocks_noglides/subject-40.csv","xpyriment","Jazzy James","3.1.9","yes","yes","59a800d99ad5a1025d81bb03","59a801616c613b0251691de0","yes","no","0","f","j","NA","NA","m","k","f","1042","5200","NA","NA","26780","32962","1042","2","legacy","1024","1","44100","-16","experiment","sfal","2","0","1","0","1","Englisch","40","","even","5766045","NA","NA","NA","NA","NA","NA","5121022","NA","5121023","5121023","5705992","5732776","5788322","5786815","5789365","5771246","5766041","NA","NA","5641432","5688746","NA","5765809","NA","5766044","NA","5788322","5788322","NA","NA","5786811","NAP perception","6","7505","6","yes","1024"
"100","yes","100","1226.85714286","1226.85714286","white","no","xpyriment","Ich habe die obigen Informationen gelesen und verstanden.","legacy","legacy","0","uniform","1","0","NA","undefined","undefined","1","f","0","0","NA","NA","NA","NA","NA","0","0","0","0","0","0","6","6","6","0","0","NA","NA","0","0","0","0","NA","0","0","6","6","6","6","6","Fri Nov  3 11:47:54 2017","Forced-choice identification task with a practice and an experimental phase","yes","NAP_GER_AA_4blocks_noglides.osexp","/Users/aviadalbert/Documents/Academisch/UoC/Dissertation/Experiment/OpenSesame/NAP-FC/NAP_GER_AA_4blocks_noglides","yes","no","sans","no","20","no","black","no","Weiter","yes","768","legacy","6","6","0","/Users/aviadalbert/Documents/Academisch/UoC/Dissertation/Experiment/OpenSesame/NAP-FC/NAP_GER_AA_4blocks_noglides/subject-40.csv","xpyriment","Jazzy James","3.1.9","yes","yes","59a800d99ad5a1025d81bb03","59a801616c613b0251691de0","yes","no","0","f","j","NA","NA","m","k","f","1083","5200","NA","NA","26780","32962","1083","2","legacy","1024","1","44100","-16","experiment","zmal","2","0","1","0","1","Englisch","40","","even","5766045","NA","NA","NA","NA","NA","NA","5121022","NA","5121023","5121023","5705992","5732776","5791142","5789635","5792226","5771246","5766041","NA","NA","5641432","5688746","NA","5765809","NA","5766044","NA","5791141","5791142","NA","NA","5789631","NAP perception","7","8588","7","yes","1024"
"100","yes","100","1217.375","1217.375","white","no","xpyriment","Ich habe die obigen Informationen gelesen und verstanden.","legacy","legacy","0","uniform","1","0","NA","undefined","undefined","1","j","0","0","NA","NA","NA","NA","NA","0","0","0","0","0","0","7","7","7","0","0","NA","NA","0","0","0","0","NA","0","0","7","7","7","7","7","Fri Nov  3 11:47:54 2017","Forced-choice identification task with a practice and an experimental phase","yes","NAP_GER_AA_4blocks_noglides.osexp","/Users/aviadalbert/Documents/Academisch/UoC/Dissertation/Experiment/OpenSesame/NAP-FC/NAP_GER_AA_4blocks_noglides","yes","no","sans","no","20","no","black","no","Weiter","yes","768","legacy","7","7","0","/Users/aviadalbert/Documents/Academisch/UoC/Dissertation/Experiment/OpenSesame/NAP-FC/NAP_GER_AA_4blocks_noglides/subject-40.csv","xpyriment","Jazzy James","3.1.9","yes","yes","59a800d99ad5a1025d81bb03","59a801616c613b0251691de0","yes","no","0","j","j","NA","NA","m","k","j","1151","5200","NA","NA","26780","32962","1151","2","legacy","1024","1","44100","-16","experiment","mesal","2","0","1","0","1","Englisch","40","","even","5766045","NA","NA","NA","NA","NA","NA","5121022","NA","5121023","5121023","5705992","5732776","5794012","5792508","5795164","5771246","5766041","NA","NA","5641432","5688746","NA","5765809","NA","5766044","NA","5794011","5794011","NA","NA","5792504","NAP perception","8","9739","8","yes","1024"
"100","yes","100","1168.33333333","1168.33333333","white","no","xpyriment","Ich habe die obigen Informationen gelesen und verstanden.","legacy","legacy","0","uniform","1","0","NA","undefined","undefined","1","j","0","0","NA","NA","NA","NA","NA","0","0","0","0","0","0","8","8","8","0","0","NA","NA","0","0","0","0","NA","0","0","8","8","8","8","8","Fri Nov  3 11:47:54 2017","Forced-choice identification task with a practice and an experimental phase","yes","NAP_GER_AA_4blocks_noglides.osexp","/Users/aviadalbert/Documents/Academisch/UoC/Dissertation/Experiment/OpenSesame/NAP-FC/NAP_GER_AA_4blocks_noglides","yes","no","sans","no","20","no","black","no","Weiter","yes","768","legacy","8","8","0","/Users/aviadalbert/Documents/Academisch/UoC/Dissertation/Experiment/OpenSesame/NAP-FC/NAP_GER_AA_4blocks_noglides/subject-40.csv","xpyriment","Jazzy James","3.1.9","yes","yes","59a800d99ad5a1025d81bb03","59a801616c613b0251691de0","yes","no","0","j","j","NA","NA","m","k","j","776","5200","NA","NA","26780","32962","776","2","legacy","1024","1","44100","-16","experiment","enval","2","0","1","0","1","Englisch","40","","even","5766045","NA","NA","NA","NA","NA","NA","5121022","NA","5121023","5121023","5705992","5732776","5796935","5795428","5797712","5771246","5766041","NA","NA","5641432","5688746","NA","5765809","NA","5766044","NA","5796934","5796934","NA","NA","5795424","NAP perception","9","10515","9","yes","1024"
"100","yes","100","1150.9","1150.9","white","no","xpyriment","Ich habe die obigen Informationen gelesen und verstanden.","legacy","legacy","0","uniform","1","0","NA","undefined","undefined","1","f","0","0","NA","NA","NA","NA","NA","0","0","0","0","0","0","9","9","9","0","0","NA","NA","0","0","0","0","NA","0","0","9","9","9","9","9","Fri Nov  3 11:47:54 2017","Forced-choice identification task with a practice and an experimental phase","yes","NAP_GER_AA_4blocks_noglides.osexp","/Users/aviadalbert/Documents/Academisch/UoC/Dissertation/Experiment/OpenSesame/NAP-FC/NAP_GER_AA_4blocks_noglides","yes","no","sans","no","20","no","black","no","Weiter","yes","768","legacy","9","9","0","/Users/aviadalbert/Documents/Academisch/UoC/Dissertation/Experiment/OpenSesame/NAP-FC/NAP_GER_AA_4blocks_noglides/subject-40.csv","xpyriment","Jazzy James","3.1.9","yes","yes","59a800d99ad5a1025d81bb03","59a801616c613b0251691de0","yes","no","0","f","j","NA","NA","m","k","f","994","5200","NA","NA","26780","32962","994","2","legacy","1024","1","44100","-16","experiment","vlal","2","0","1","0","1","Englisch","40","","even","5766045","NA","NA","NA","NA","NA","NA","5121022","NA","5121023","5121023","5705992","5732776","5799508","5798002","5800504","5771246","5766041","NA","NA","5641432","5688746","NA","5765809","NA","5766044","NA","5799508","5799508","NA","NA","5797999","NAP perception","10","11509","10","yes","1024"
"100","yes","100","961","961","white","no","xpyriment","Ich habe die obigen Informationen gelesen und verstanden.","legacy","legacy","0","uniform","1","0","0","undefined","undefined","1","j","2","1","NA","0","1","0","0","0","0","0","0","0","0","10","10","10","0","0","0","NA","0","0","2","0","0","0","2","10","10","10","10","10","Fri Nov  3 11:47:54 2017","Forced-choice identification task with a practice and an experimental phase","yes","NAP_GER_AA_4blocks_noglides.osexp","/Users/aviadalbert/Documents/Academisch/UoC/Dissertation/Experiment/OpenSesame/NAP-FC/NAP_GER_AA_4blocks_noglides","yes","no","sans","no","20","no","black","no","Weiter","yes","768","legacy","0","9","0","/Users/aviadalbert/Documents/Academisch/UoC/Dissertation/Experiment/OpenSesame/NAP-FC/NAP_GER_AA_4blocks_noglides/subject-40.csv","xpyriment","Jazzy James","3.1.9","yes","yes","59a800d99ad5a1025d81bb03","59a801616c613b0251691de0","no","no","0","j","j","space","NA","m","k","j","961","4301","25282","NA","26780","32962","961","2","legacy","1024","1","44100","-16","experiment","menal","2","0","1","0","1","Englisch","40","","even","5828040","5802231","NA","NA","5832342","5828036","NA","5121022","5827572","5121023","5121023","5705992","5732776","5834058","5832552","5835021","5771246","5766041","5802231","NA","5641432","5688746","5800567","5765809","5828040","5766044","NA","5834057","5834057","NA","NA","5832548","NAP perception","1","961","1","yes","1024"
"100","yes","100","935.5","935.5","white","no","xpyriment","Ich habe die obigen Informationen gelesen und verstanden.","legacy","legacy","0","uniform","1","0","0","undefined","undefined","1","j","2","1","NA","0","1","0","0","0","0","0","0","0","0","11","11","11","0","0","0","NA","0","0","2","0","0","0","2","11","11","11","11","11","Fri Nov  3 11:47:54 2017","Forced-choice identification task with a practice and an experimental phase","yes","NAP_GER_AA_4blocks_noglides.osexp","/Users/aviadalbert/Documents/Academisch/UoC/Dissertation/Experiment/OpenSesame/NAP-FC/NAP_GER_AA_4blocks_noglides","yes","no","sans","no","20","no","black","no","Weiter","yes","768","legacy","1","9","0","/Users/aviadalbert/Documents/Academisch/UoC/Dissertation/Experiment/OpenSesame/NAP-FC/NAP_GER_AA_4blocks_noglides/subject-40.csv","xpyriment","Jazzy James","3.1.9","yes","yes","59a800d99ad5a1025d81bb03","59a801616c613b0251691de0","no","no","0","j","j","space","NA","m","k","j","910","4301","25282","NA","26780","32962","910","2","legacy","1024","1","44100","-16","experiment","elval","2","0","1","0","1","Englisch","40","","even","5828040","5802231","NA","NA","5832342","5828036","NA","5121022","5827572","5121023","5121023","5705992","5732776","5836803","5835295","5837714","5771246","5766041","5802231","NA","5641432","5688746","5800567","5765809","5828040","5766044","NA","5836803","5836803","NA","NA","5835291","NAP perception","2","1871","2","yes","1024"
"100","yes","100","974.333333333","974.333333333","white","no","xpyriment","Ich habe die obigen Informationen gelesen und verstanden.","legacy","legacy","0","uniform","1","0","0","undefined","undefined","1","j","2","1","NA","0","1","0","0","0","0","0","0","0","0","12","12","12","0","0","0","NA","0","0","2","0","0","0","2","12","12","12","12","12","Fri Nov  3 11:47:54 2017","Forced-choice identification task with a practice and an experimental phase","yes","NAP_GER_AA_4blocks_noglides.osexp","/Users/aviadalbert/Documents/Academisch/UoC/Dissertation/Experiment/OpenSesame/NAP-FC/NAP_GER_AA_4blocks_noglides","yes","no","sans","no","20","no","black","no","Weiter","yes","768","legacy","2","9","0","/Users/aviadalbert/Documents/Academisch/UoC/Dissertation/Experiment/OpenSesame/NAP-FC/NAP_GER_AA_4blocks_noglides/subject-40.csv","xpyriment","Jazzy James","3.1.9","yes","yes","59a800d99ad5a1025d81bb03","59a801616c613b0251691de0","no","no","0","j","j","space","NA","m","k","j","1052","4301","25282","NA","26780","32962","1052","2","legacy","1024","1","44100","-16","experiment","lemal","2","0","1","0","1","Englisch","40","","even","5828040","5802231","NA","NA","5832342","5828036","NA","5121022","5827572","5121023","5121023","5705992","5732776","5839522","5838014","5840575","5771246","5766041","5802231","NA","5641432","5688746","5800567","5765809","5828040","5766044","NA","5839521","5839521","NA","NA","5838010","NAP perception","3","2923","3","yes","1024"
"100","yes","100","964.5","964.5","white","no","xpyriment","Ich habe die obigen Informationen gelesen und verstanden.","legacy","legacy","0","uniform","1","0","0","undefined","undefined","1","f","2","1","NA","0","1","0","0","0","0","0","0","0","0","13","13","13","0","0","0","NA","0","0","2","0","0","0","2","13","13","13","13","13","Fri Nov  3 11:47:54 2017","Forced-choice identification task with a practice and an experimental phase","yes","NAP_GER_AA_4blocks_noglides.osexp","/Users/aviadalbert/Documents/Academisch/UoC/Dissertation/Experiment/OpenSesame/NAP-FC/NAP_GER_AA_4blocks_noglides","yes","no","sans","no","20","no","black","no","Weiter","yes","768","legacy","3","9","0","/Users/aviadalbert/Documents/Academisch/UoC/Dissertation/Experiment/OpenSesame/NAP-FC/NAP_GER_AA_4blocks_noglides/subject-40.csv","xpyriment","Jazzy James","3.1.9","yes","yes","59a800d99ad5a1025d81bb03","59a801616c613b0251691de0","no","no","0","f","j","space","NA","m","k","f","935","4301","25282","NA","26780","32962","935","2","legacy","1024","1","44100","-16","experiment","sfal","2","0","1","0","1","Englisch","40","","even","5828040","5802231","NA","NA","5832342","5828036","NA","5121022","5827572","5121023","5121023","5705992","5732776","5842359","5840853","5843295","5771246","5766041","5802231","NA","5641432","5688746","5800567","5765809","5828040","5766044","NA","5842359","5842359","NA","NA","5840849","NAP perception","4","3858","4","yes","1024"
"100","yes","100","976.8","976.8","white","no","xpyriment","Ich habe die obigen Informationen gelesen und verstanden.","legacy","legacy","0","uniform","1","0","0","undefined","undefined","1","j","2","1","NA","0","1","0","0","0","0","0","0","0","0","14","14","14","0","0","0","NA","0","0","2","0","0","0","2","14","14","14","14","14","Fri Nov  3 11:47:54 2017","Forced-choice identification task with a practice and an experimental phase","yes","NAP_GER_AA_4blocks_noglides.osexp","/Users/aviadalbert/Documents/Academisch/UoC/Dissertation/Experiment/OpenSesame/NAP-FC/NAP_GER_AA_4blocks_noglides","yes","no","sans","no","20","no","black","no","Weiter","yes","768","legacy","4","9","0","/Users/aviadalbert/Documents/Academisch/UoC/Dissertation/Experiment/OpenSesame/NAP-FC/NAP_GER_AA_4blocks_noglides/subject-40.csv","xpyriment","Jazzy James","3.1.9","yes","yes","59a800d99ad5a1025d81bb03","59a801616c613b0251691de0","no","no","0","j","j","space","NA","m","k","j","1026","4301","25282","NA","26780","32962","1026","2","legacy","1024","1","44100","-16","experiment","elkal","2","0","1","0","1","Englisch","40","","even","5828040","5802231","NA","NA","5832342","5828036","NA","5121022","5827572","5121023","5121023","5705992","5732776","5845086","5843582","5846113","5771246","5766041","5802231","NA","5641432","5688746","5800567","5765809","5828040","5766044","NA","5845085","5845085","NA","NA","5843578","NAP perception","5","4884","5","yes","1024"
"100","yes","100","1003.33333333","1003.33333333","white","no","xpyriment","Ich habe die obigen Informationen gelesen und verstanden.","legacy","legacy","0","uniform","1","0","0","undefined","undefined","1","j","2","1","NA","0","1","0","0","0","0","0","0","0","0","15","15","15","0","0","0","NA","0","0","2","0","0","0","2","15","15","15","15","15","Fri Nov  3 11:47:54 2017","Forced-choice identification task with a practice and an experimental phase","yes","NAP_GER_AA_4blocks_noglides.osexp","/Users/aviadalbert/Documents/Academisch/UoC/Dissertation/Experiment/OpenSesame/NAP-FC/NAP_GER_AA_4blocks_noglides","yes","no","sans","no","20","no","black","no","Weiter","yes","768","legacy","5","9","0","/Users/aviadalbert/Documents/Academisch/UoC/Dissertation/Experiment/OpenSesame/NAP-FC/NAP_GER_AA_4blocks_noglides/subject-40.csv","xpyriment","Jazzy James","3.1.9","yes","yes","59a800d99ad5a1025d81bb03","59a801616c613b0251691de0","no","no","0","j","j","space","NA","m","k","j","1136","4301","25282","NA","26780","32962","1136","2","legacy","1024","1","44100","-16","experiment","evlal","2","0","1","0","1","Englisch","40","","even","5828040","5802231","NA","NA","5832342","5828036","NA","5121022","5827572","5121023","5121023","5705992","5732776","5847896","5846391","5849033","5771246","5766041","5802231","NA","5641432","5688746","5800567","5765809","5828040","5766044","NA","5847895","5847896","NA","NA","5846387","NAP perception","6","6020","6","yes","1024"
"85.7142857143","yes","85.7142857143","1062.57142857","1062.57142857","white","no","xpyriment","Ich habe die obigen Informationen gelesen und verstanden.","legacy","legacy","0","uniform","0","0","0","undefined","undefined","0","f","2","1","NA","0","1","0","0","0","0","0","0","0","0","16","16","16","0","0","0","NA","0","0","2","0","0","0","2","16","16","16","16","16","Fri Nov  3 11:47:54 2017","Forced-choice identification task with a practice and an experimental phase","yes","NAP_GER_AA_4blocks_noglides.osexp","/Users/aviadalbert/Documents/Academisch/UoC/Dissertation/Experiment/OpenSesame/NAP-FC/NAP_GER_AA_4blocks_noglides","yes","no","sans","no","20","no","black","no","Weiter","yes","768","legacy","6","9","0","/Users/aviadalbert/Documents/Academisch/UoC/Dissertation/Experiment/OpenSesame/NAP-FC/NAP_GER_AA_4blocks_noglides/subject-40.csv","xpyriment","Jazzy James","3.1.9","yes","yes","59a800d99ad5a1025d81bb03","59a801616c613b0251691de0","no","no","0","j","j","space","NA","m","k","j","1418","4301","25282","NA","26780","32962","1418","2","legacy","1024","1","44100","-16","experiment","nmal","2","0","1","0","1","Englisch","40","","even","5828040","5802231","NA","NA","5832342","5828036","NA","5121022","5827572","5121023","5121023","5705992","5732776","5850808","5849301","5852228","5771246","5766041","5802231","NA","5641432","5688746","5800567","5765809","5828040","5766044","NA","5850808","5850808","NA","NA","5849296","NAP perception","6","7438","7","yes","1024"
"87.5","yes","87.5","1065.25","1065.25","white","no","xpyriment","Ich habe die obigen Informationen gelesen und verstanden.","legacy","legacy","0","uniform","1","0","0","undefined","undefined","1","j","2","1","NA","0","1","0","0","0","0","0","0","0","0","17","17","17","0","0","0","NA","0","0","2","0","0","0","2","17","17","17","17","17","Fri Nov  3 11:47:54 2017","Forced-choice identification task with a practice and an experimental phase","yes","NAP_GER_AA_4blocks_noglides.osexp","/Users/aviadalbert/Documents/Academisch/UoC/Dissertation/Experiment/OpenSesame/NAP-FC/NAP_GER_AA_4blocks_noglides","yes","no","sans","no","20","no","black","no","Weiter","yes","768","legacy","7","9","0","/Users/aviadalbert/Documents/Academisch/UoC/Dissertation/Experiment/OpenSesame/NAP-FC/NAP_GER_AA_4blocks_noglides/subject-40.csv","xpyriment","Jazzy James","3.1.9","yes","yes","59a800d99ad5a1025d81bb03","59a801616c613b0251691de0","no","no","0","j","j","space","NA","m","k","j","1084","4301","25282","NA","26780","32962","1084","2","legacy","1024","1","44100","-16","experiment","enval","2","0","1","0","1","Englisch","40","","even","5828040","5802231","NA","NA","5832342","5828036","NA","5121022","5827572","5121023","5121023","5705992","5732776","5854022","5852518","5855107","5771246","5766041","5802231","NA","5641432","5688746","5800567","5765809","5828040","5766044","NA","5854022","5854022","NA","NA","5852513","NAP perception","7","8522","8","yes","1024"
"77.7777777778","yes","77.7777777778","1099.77777778","1099.77777778","white","no","xpyriment","Ich habe die obigen Informationen gelesen und verstanden.","legacy","legacy","0","uniform","0","0","0","undefined","undefined","0","j","2","1","NA","0","1","0","0","0","0","0","0","0","0","18","18","18","0","0","0","NA","0","0","2","0","0","0","2","18","18","18","18","18","Fri Nov  3 11:47:54 2017","Forced-choice identification task with a practice and an experimental phase","yes","NAP_GER_AA_4blocks_noglides.osexp","/Users/aviadalbert/Documents/Academisch/UoC/Dissertation/Experiment/OpenSesame/NAP-FC/NAP_GER_AA_4blocks_noglides","yes","no","sans","no","20","no","black","no","Weiter","yes","768","legacy","8","9","0","/Users/aviadalbert/Documents/Academisch/UoC/Dissertation/Experiment/OpenSesame/NAP-FC/NAP_GER_AA_4blocks_noglides/subject-40.csv","xpyriment","Jazzy James","3.1.9","yes","yes","59a800d99ad5a1025d81bb03","59a801616c613b0251691de0","no","no","0","f","j","space","NA","m","k","f","1376","4301","25282","NA","26780","32962","1376","2","legacy","1024","1","44100","-16","experiment","eʃpal","2","0","1","0","1","Englisch","40","","even","5828040","5802231","NA","NA","5832342","5828036","NA","5121022","5827572","5121023","5121023","5705992","5732776","5856884","5855380","5858261","5771246","5766041","5802231","NA","5641432","5688746","5800567","5765809","5828040","5766044","NA","5856884","5856884","NA","NA","5855376","NAP perception","7","9898","9","yes","1024"
"70","yes","70","1106.1","1106.1","white","no","xpyriment","Ich habe die obigen Informationen gelesen und verstanden.","legacy","legacy","0","uniform","0","0","0","undefined","undefined","0","f","2","1","NA","0","1","0","0","0","0","0","0","0","0","19","19","19","0","0","0","NA","0","0","2","0","0","0","2","19","19","19","19","19","Fri Nov  3 11:47:54 2017","Forced-choice identification task with a practice and an experimental phase","yes","NAP_GER_AA_4blocks_noglides.osexp","/Users/aviadalbert/Documents/Academisch/UoC/Dissertation/Experiment/OpenSesame/NAP-FC/NAP_GER_AA_4blocks_noglides","yes","no","sans","no","20","no","black","no","Weiter","yes","768","legacy","9","9","0","/Users/aviadalbert/Documents/Academisch/UoC/Dissertation/Experiment/OpenSesame/NAP-FC/NAP_GER_AA_4blocks_noglides/subject-40.csv","xpyriment","Jazzy James","3.1.9","yes","yes","59a800d99ad5a1025d81bb03","59a801616c613b0251691de0","no","no","0","j","j","space","NA","m","k","j","1163","4301","25282","NA","26780","32962","1163","2","legacy","1024","1","44100","-16","experiment","npal","2","0","1","0","1","Englisch","40","","even","5828040","5802231","NA","NA","5832342","5828036","NA","5121022","5827572","5121023","5121023","5705992","5732776","5860046","5858541","5861210","5771246","5766041","5802231","NA","5641432","5688746","5800567","5765809","5828040","5766044","NA","5860045","5860046","NA","NA","5858536","NAP perception","7","11061","10","yes","1024"
"72.7272727273","yes","72.7272727273","1116.09090909","1116.09090909","white","no","xpyriment","Ich habe die obigen Informationen gelesen und verstanden.","legacy","legacy","0","uniform","1","0","0","undefined","undefined","1","f","2","1","NA","0","1","0","0","0","0","0","0","0","0","20","20","20","0","0","0","NA","0","0","2","0","0","0","2","20","20","20","20","20","Fri Nov  3 11:47:54 2017","Forced-choice identification task with a practice and an experimental phase","yes","NAP_GER_AA_4blocks_noglides.osexp","/Users/aviadalbert/Documents/Academisch/UoC/Dissertation/Experiment/OpenSesame/NAP-FC/NAP_GER_AA_4blocks_noglides","yes","no","sans","no","20","no","black","no","Weiter","yes","768","legacy","10","9","0","/Users/aviadalbert/Documents/Academisch/UoC/Dissertation/Experiment/OpenSesame/NAP-FC/NAP_GER_AA_4blocks_noglides/subject-40.csv","xpyriment","Jazzy James","3.1.9","yes","yes","59a800d99ad5a1025d81bb03","59a801616c613b0251691de0","no","no","0","f","j","space","NA","m","k","f","1216","4301","25282","NA","26780","32962","1216","2","legacy","1024","1","44100","-16","experiment","lkal","2","0","1","0","1","Englisch","40","","even","5828040","5802231","NA","NA","5832342","5828036","NA","5121022","5827572","5121023","5121023","5705992","5732776","5862997","5861492","5864215","5771246","5766041","5802231","NA","5641432","5688746","5800567","5765809","5828040","5766044","NA","5862996","5862996","NA","NA","5861488","NAP perception","8","12277","11","yes","1024"
"75","yes","75","1095.16666667","1095.16666667","white","no","xpyriment","Ich habe die obigen Informationen gelesen und verstanden.","legacy","legacy","0","uniform","1","0","0","undefined","undefined","1","j","2","1","NA","0","1","0","0","0","0","0","0","0","0","21","21","21","0","0","0","NA","0","0","2","0","0","0","2","21","21","21","21","21","Fri Nov  3 11:47:54 2017","Forced-choice identification task with a practice and an experimental phase","yes","NAP_GER_AA_4blocks_noglides.osexp","/Users/aviadalbert/Documents/Academisch/UoC/Dissertation/Experiment/OpenSesame/NAP-FC/NAP_GER_AA_4blocks_noglides","yes","no","sans","no","20","no","black","no","Weiter","yes","768","legacy","11","9","0","/Users/aviadalbert/Documents/Academisch/UoC/Dissertation/Experiment/OpenSesame/NAP-FC/NAP_GER_AA_4blocks_noglides/subject-40.csv","xpyriment","Jazzy James","3.1.9","yes","yes","59a800d99ad5a1025d81bb03","59a801616c613b0251691de0","no","no","0","j","j","space","NA","m","k","j","865","4301","25282","NA","26780","32962","865","2","legacy","1024","1","44100","-16","experiment","nemal","2","0","1","0","1","Englisch","40","","even","5828040","5802231","NA","NA","5832342","5828036","NA","5121022","5827572","5121023","5121023","5705992","5732776","5865992","5864487","5866859","5771246","5766041","5802231","NA","5641432","5688746","5800567","5765809","5828040","5766044","NA","5865992","5865992","NA","NA","5864483","NAP perception","9","13142","12","yes","1024"
"69.2307692308","yes","69.2307692308","1117.46153846","1117.46153846","white","no","xpyriment","Ich habe die obigen Informationen gelesen und verstanden.","legacy","legacy","0","uniform","0","0","0","undefined","undefined","0","f","2","1","NA","0","1","0","0","0","0","0","0","0","0","22","22","22","0","0","0","NA","0","0","2","0","0","0","2","22","22","22","22","22","Fri Nov  3 11:47:54 2017","Forced-choice identification task with a practice and an experimental phase","yes","NAP_GER_AA_4blocks_noglides.osexp","/Users/aviadalbert/Documents/Academisch/UoC/Dissertation/Experiment/OpenSesame/NAP-FC/NAP_GER_AA_4blocks_noglides","yes","no","sans","no","20","no","black","no","Weiter","yes","768","legacy","12","9","0","/Users/aviadalbert/Documents/Academisch/UoC/Dissertation/Experiment/OpenSesame/NAP-FC/NAP_GER_AA_4blocks_noglides/subject-40.csv","xpyriment","Jazzy James","3.1.9","yes","yes","59a800d99ad5a1025d81bb03","59a801616c613b0251691de0","no","no","0","j","j","space","NA","m","k","j","1385","4301","25282","NA","26780","32962","1385","2","legacy","1024","1","44100","-16","experiment","ftal","2","0","1","0","1","Englisch","40","","even","5828040","5802231","NA","NA","5832342","5828036","NA","5121022","5827572","5121023","5121023","5705992","5732776","5868653","5867149","5870040","5771246","5766041","5802231","NA","5641432","5688746","5800567","5765809","5828040","5766044","NA","5868653","5868653","NA","NA","5867144","NAP perception","9","14527","13","yes","1024"
"64.2857142857","yes","64.2857142857","1120","1120","white","no","xpyriment","Ich habe die obigen Informationen gelesen und verstanden.","legacy","legacy","0","uniform","0","0","0","undefined","undefined","0","f","2","1","NA","0","1","0","0","0","0","0","0","0","0","23","23","23","0","0","0","NA","0","0","2","0","0","0","2","23","23","23","23","23","Fri Nov  3 11:47:54 2017","Forced-choice identification task with a practice and an experimental phase","yes","NAP_GER_AA_4blocks_noglides.osexp","/Users/aviadalbert/Documents/Academisch/UoC/Dissertation/Experiment/OpenSesame/NAP-FC/NAP_GER_AA_4blocks_noglides","yes","no","sans","no","20","no","black","no","Weiter","yes","768","legacy","13","9","0","/Users/aviadalbert/Documents/Academisch/UoC/Dissertation/Experiment/OpenSesame/NAP-FC/NAP_GER_AA_4blocks_noglides/subject-40.csv","xpyriment","Jazzy James","3.1.9","yes","yes","59a800d99ad5a1025d81bb03","59a801616c613b0251691de0","no","no","0","j","j","space","NA","m","k","j","1153","4301","25282","NA","26780","32962","1153","2","legacy","1024","1","44100","-16","experiment","fnal","2","0","1","0","1","Englisch","40","","even","5828040","5802231","NA","NA","5832342","5828036","NA","5121022","5827572","5121023","5121023","5705992","5732776","5871810","5870305","5872964","5771246","5766041","5802231","NA","5641432","5688746","5800567","5765809","5828040","5766044","NA","5871809","5871809","NA","NA","5870301","NAP perception","9","15680","14","yes","1024"
"66.6666666667","yes","66.6666666667","1119.26666667","1119.26666667","white","no","xpyriment","Ich habe die obigen Informationen gelesen und verstanden.","legacy","legacy","0","uniform","1","0","0","undefined","undefined","1","j","2","1","NA","0","1","0","0","0","0","0","0","0","0","24","24","24","0","0","0","NA","0","0","2","0","0","0","2","24","24","24","24","24","Fri Nov  3 11:47:54 2017","Forced-choice identification task with a practice and an experimental phase","yes","NAP_GER_AA_4blocks_noglides.osexp","/Users/aviadalbert/Documents/Academisch/UoC/Dissertation/Experiment/OpenSesame/NAP-FC/NAP_GER_AA_4blocks_noglides","yes","no","sans","no","20","no","black","no","Weiter","yes","768","legacy","14","9","0","/Users/aviadalbert/Documents/Academisch/UoC/Dissertation/Experiment/OpenSesame/NAP-FC/NAP_GER_AA_4blocks_noglides/subject-40.csv","xpyriment","Jazzy James","3.1.9","yes","yes","59a800d99ad5a1025d81bb03","59a801616c613b0251691de0","no","no","0","j","j","space","NA","m","k","j","1109","4301","25282","NA","26780","32962","1109","2","legacy","1024","1","44100","-16","experiment","efsal","2","0","1","0","1","Englisch","40","","even","5828040","5802231","NA","NA","5832342","5828036","NA","5121022","5827572","5121023","5121023","5705992","5732776","5874753","5873248","5875863","5771246","5766041","5802231","NA","5641432","5688746","5800567","5765809","5828040","5766044","NA","5874753","5874753","NA","NA","5873244","NAP perception","10","16789","15","yes","1024"
"68.75","yes","68.75","1104.0625","1104.0625","white","no","xpyriment","Ich habe die obigen Informationen gelesen und verstanden.","legacy","legacy","0","uniform","1","0","0","undefined","undefined","1","j","2","1","NA","0","1","0","0","0","0","0","0","0","0","25","25","25","0","0","0","NA","0","0","2","0","0","0","2","25","25","25","25","25","Fri Nov  3 11:47:54 2017","Forced-choice identification task with a practice and an experimental phase","yes","NAP_GER_AA_4blocks_noglides.osexp","/Users/aviadalbert/Documents/Academisch/UoC/Dissertation/Experiment/OpenSesame/NAP-FC/NAP_GER_AA_4blocks_noglides","yes","no","sans","no","20","no","black","no","Weiter","yes","768","legacy","15","9","0","/Users/aviadalbert/Documents/Academisch/UoC/Dissertation/Experiment/OpenSesame/NAP-FC/NAP_GER_AA_4blocks_noglides/subject-40.csv","xpyriment","Jazzy James","3.1.9","yes","yes","59a800d99ad5a1025d81bb03","59a801616c613b0251691de0","no","no","0","j","j","space","NA","m","k","j","876","4301","25282","NA","26780","32962","876","2","legacy","1024","1","44100","-16","experiment","emtal","2","0","1","0","1","Englisch","40","","even","5828040","5802231","NA","NA","5832342","5828036","NA","5121022","5827572","5121023","5121023","5705992","5732776","5877639","5876134","5878516","5771246","5766041","5802231","NA","5641432","5688746","5800567","5765809","5828040","5766044","NA","5877639","5877639","NA","NA","5876130","NAP perception","11","17665","16","yes","1024"
"70.5882352941","yes","70.5882352941","1081.11764706","1081.11764706","white","no","xpyriment","Ich habe die obigen Informationen gelesen und verstanden.","legacy","legacy","0","uniform","1","0","0","undefined","undefined","1","f","2","1","NA","0","1","0","0","0","0","0","0","0","0","26","26","26","0","0","0","NA","0","0","2","0","0","0","2","26","26","26","26","26","Fri Nov  3 11:47:54 2017","Forced-choice identification task with a practice and an experimental phase","yes","NAP_GER_AA_4blocks_noglides.osexp","/Users/aviadalbert/Documents/Academisch/UoC/Dissertation/Experiment/OpenSesame/NAP-FC/NAP_GER_AA_4blocks_noglides","yes","no","sans","no","20","no","black","no","Weiter","yes","768","legacy","16","9","0","/Users/aviadalbert/Documents/Academisch/UoC/Dissertation/Experiment/OpenSesame/NAP-FC/NAP_GER_AA_4blocks_noglides/subject-40.csv","xpyriment","Jazzy James","3.1.9","yes","yes","59a800d99ad5a1025d81bb03","59a801616c613b0251691de0","no","no","0","f","j","space","NA","m","k","f","714","4301","25282","NA","26780","32962","714","2","legacy","1024","1","44100","-16","experiment","ʃpal","2","0","1","0","1","Englisch","40","","even","5828040","5802231","NA","NA","5832342","5828036","NA","5121022","5827572","5121023","5121023","5705992","5732776","5880297","5878793","5881012","5771246","5766041","5802231","NA","5641432","5688746","5800567","5765809","5828040","5766044","NA","5880296","5880296","NA","NA","5878788","NAP perception","12","18379","17","yes","1024"
"72.2222222222","yes","72.2222222222","1095.83333333","1095.83333333","white","no","xpyriment","Ich habe die obigen Informationen gelesen und verstanden.","legacy","legacy","0","uniform","1","0","0","undefined","undefined","1","f","2","1","NA","0","1","0","0","0","0","0","0","0","0","27","27","27","0","0","0","NA","0","0","2","0","0","0","2","27","27","27","27","27","Fri Nov  3 11:47:54 2017","Forced-choice identification task with a practice and an experimental phase","yes","NAP_GER_AA_4blocks_noglides.osexp","/Users/aviadalbert/Documents/Academisch/UoC/Dissertation/Experiment/OpenSesame/NAP-FC/NAP_GER_AA_4blocks_noglides","yes","no","sans","no","20","no","black","no","Weiter","yes","768","legacy","17","9","0","/Users/aviadalbert/Documents/Academisch/UoC/Dissertation/Experiment/OpenSesame/NAP-FC/NAP_GER_AA_4blocks_noglides/subject-40.csv","xpyriment","Jazzy James","3.1.9","yes","yes","59a800d99ad5a1025d81bb03","59a801616c613b0251691de0","no","no","0","f","j","space","NA","m","k","f","1346","4301","25282","NA","26780","32962","1346","2","legacy","1024","1","44100","-16","experiment","vlal","2","0","1","0","1","Englisch","40","","even","5828040","5802231","NA","NA","5832342","5828036","NA","5121022","5827572","5121023","5121023","5705992","5732776","5882785","5881280","5884132","5771246","5766041","5802231","NA","5641432","5688746","5800567","5765809","5828040","5766044","NA","5882784","5882784","NA","NA","5881276","NAP perception","13","19725","18","yes","1024"
"73.6842105263","yes","73.6842105263","1110.78947368","1110.78947368","white","no","xpyriment","Ich habe die obigen Informationen gelesen und verstanden.","legacy","legacy","0","uniform","1","0","0","undefined","undefined","1","f","2","1","NA","0","1","0","0","0","0","0","0","0","0","28","28","28","0","0","0","NA","0","0","2","0","0","0","2","28","28","28","28","28","Fri Nov  3 11:47:54 2017","Forced-choice identification task with a practice and an experimental phase","yes","NAP_GER_AA_4blocks_noglides.osexp","/Users/aviadalbert/Documents/Academisch/UoC/Dissertation/Experiment/OpenSesame/NAP-FC/NAP_GER_AA_4blocks_noglides","yes","no","sans","no","20","no","black","no","Weiter","yes","768","legacy","18","9","0","/Users/aviadalbert/Documents/Academisch/UoC/Dissertation/Experiment/OpenSesame/NAP-FC/NAP_GER_AA_4blocks_noglides/subject-40.csv","xpyriment","Jazzy James","3.1.9","yes","yes","59a800d99ad5a1025d81bb03","59a801616c613b0251691de0","no","no","0","f","j","space","NA","m","k","f","1380","4301","25282","NA","26780","32962","1380","2","legacy","1024","1","44100","-16","experiment","nmal","2","0","1","0","1","Englisch","40","","even","5828040","5802231","NA","NA","5832342","5828036","NA","5121022","5827572","5121023","5121023","5705992","5732776","5885907","5884400","5887288","5771246","5766041","5802231","NA","5641432","5688746","5800567","5765809","5828040","5766044","NA","5885907","5885907","NA","NA","5884395","NAP perception","14","21105","19","yes","1024"
"75","yes","75","1131.85","1131.85","white","no","xpyriment","Ich habe die obigen Informationen gelesen und verstanden.","legacy","legacy","0","uniform","1","0","0","undefined","undefined","1","f","2","1","NA","0","1","0","0","0","0","0","0","0","0","29","29","29","0","0","0","NA","0","0","2","0","0","0","2","29","29","29","29","29","Fri Nov  3 11:47:54 2017","Forced-choice identification task with a practice and an experimental phase","yes","NAP_GER_AA_4blocks_noglides.osexp","/Users/aviadalbert/Documents/Academisch/UoC/Dissertation/Experiment/OpenSesame/NAP-FC/NAP_GER_AA_4blocks_noglides","yes","no","sans","no","20","no","black","no","Weiter","yes","768","legacy","19","9","0","/Users/aviadalbert/Documents/Academisch/UoC/Dissertation/Experiment/OpenSesame/NAP-FC/NAP_GER_AA_4blocks_noglides/subject-40.csv","xpyriment","Jazzy James","3.1.9","yes","yes","59a800d99ad5a1025d81bb03","59a801616c613b0251691de0","no","no","0","f","j","space","NA","m","k","f","1532","4301","25282","NA","26780","32962","1532","2","legacy","1024","1","44100","-16","experiment","vzal","2","0","1","0","1","Englisch","40","","even","5828040","5802231","NA","NA","5832342","5828036","NA","5121022","5827572","5121023","5121023","5705992","5732776","5889072","5887566","5890606","5771246","5766041","5802231","NA","5641432","5688746","5800567","5765809","5828040","5766044","NA","5889071","5889071","NA","NA","5887562","NAP perception","15","22637","20","yes","1024"
"71.4285714286","yes","71.4285714286","1156.33333333","1156.33333333","white","no","xpyriment","Ich habe die obigen Informationen gelesen und verstanden.","legacy","legacy","0","uniform","0","0","0","undefined","undefined","0","f","2","1","NA","0","1","0","0","0","0","0","0","0","0","30","30","30","0","0","0","NA","0","0","2","0","0","0","2","30","30","30","30","30","Fri Nov  3 11:47:54 2017","Forced-choice identification task with a practice and an experimental phase","yes","NAP_GER_AA_4blocks_noglides.osexp","/Users/aviadalbert/Documents/Academisch/UoC/Dissertation/Experiment/OpenSesame/NAP-FC/NAP_GER_AA_4blocks_noglides","yes","no","sans","no","20","no","black","no","Weiter","yes","768","legacy","20","9","0","/Users/aviadalbert/Documents/Academisch/UoC/Dissertation/Experiment/OpenSesame/NAP-FC/NAP_GER_AA_4blocks_noglides/subject-40.csv","xpyriment","Jazzy James","3.1.9","yes","yes","59a800d99ad5a1025d81bb03","59a801616c613b0251691de0","no","no","0","j","j","space","NA","m","k","j","1646","4301","25282","NA","26780","32962","1646","2","legacy","1024","1","44100","-16","experiment","mlal","2","0","1","0","1","Englisch","40","","even","5828040","5802231","NA","NA","5832342","5828036","NA","5121022","5827572","5121023","5121023","5705992","5732776","5892383","5890879","5894030","5771246","5766041","5802231","NA","5641432","5688746","5800567","5765809","5828040","5766044","NA","5892382","5892382","NA","NA","5890874","NAP perception","15","24283","21","yes","1024"
"72.7272727273","yes","72.7272727273","1142.68181818","1142.68181818","white","no","xpyriment","Ich habe die obigen Informationen gelesen und verstanden.","legacy","legacy","0","uniform","1","0","0","undefined","undefined","1","j","2","1","NA","0","1","0","0","0","0","0","0","0","0","31","31","31","0","0","0","NA","0","0","2","0","0","0","2","31","31","31","31","31","Fri Nov  3 11:47:54 2017","Forced-choice identification task with a practice and an experimental phase","yes","NAP_GER_AA_4blocks_noglides.osexp","/Users/aviadalbert/Documents/Academisch/UoC/Dissertation/Experiment/OpenSesame/NAP-FC/NAP_GER_AA_4blocks_noglides","yes","no","sans","no","20","no","black","no","Weiter","yes","768","legacy","21","9","0","/Users/aviadalbert/Documents/Academisch/UoC/Dissertation/Experiment/OpenSesame/NAP-FC/NAP_GER_AA_4blocks_noglides/subject-40.csv","xpyriment","Jazzy James","3.1.9","yes","yes","59a800d99ad5a1025d81bb03","59a801616c613b0251691de0","no","no","0","j","j","space","NA","m","k","j","856","4301","25282","NA","26780","32962","856","2","legacy","1024","1","44100","-16","experiment","emzal","2","0","1","0","1","Englisch","40","","even","5828040","5802231","NA","NA","5832342","5828036","NA","5121022","5827572","5121023","5121023","5705992","5732776","5895809","5894302","5896666","5771246","5766041","5802231","NA","5641432","5688746","5800567","5765809","5828040","5766044","NA","5895809","5895809","NA","NA","5894297","NAP perception","16","25139","22","yes","1024"
"73.9130434783","yes","73.9130434783","1155.13043478","1155.13043478","white","no","xpyriment","Ich habe die obigen Informationen gelesen und verstanden.","legacy","legacy","0","uniform","1","0","0","undefined","undefined","1","j","2","1","NA","0","1","0","0","0","0","0","0","0","0","32","32","32","0","0","0","NA","0","0","2","0","0","0","2","32","32","32","32","32","Fri Nov  3 11:47:54 2017","Forced-choice identification task with a practice and an experimental phase","yes","NAP_GER_AA_4blocks_noglides.osexp","/Users/aviadalbert/Documents/Academisch/UoC/Dissertation/Experiment/OpenSesame/NAP-FC/NAP_GER_AA_4blocks_noglides","yes","no","sans","no","20","no","black","no","Weiter","yes","768","legacy","22","9","0","/Users/aviadalbert/Documents/Academisch/UoC/Dissertation/Experiment/OpenSesame/NAP-FC/NAP_GER_AA_4blocks_noglides/subject-40.csv","xpyriment","Jazzy James","3.1.9","yes","yes","59a800d99ad5a1025d81bb03","59a801616c613b0251691de0","no","no","0","j","j","space","NA","m","k","j","1429","4301","25282","NA","26780","32962","1429","2","legacy","1024","1","44100","-16","experiment","venal","2","0","1","0","1","Englisch","40","","even","5828040","5802231","NA","NA","5832342","5828036","NA","5121022","5827572","5121023","5121023","5705992","5732776","5898442","5896938","5899873","5771246","5766041","5802231","NA","5641432","5688746","5800567","5765809","5828040","5766044","NA","5898442","5898442","NA","NA","5896934","NAP perception","17","26568","23","yes","1024"
"75","yes","75","1144.58333333","1144.58333333","white","no","xpyriment","Ich habe die obigen Informationen gelesen und verstanden.","legacy","legacy","0","uniform","1","0","0","undefined","undefined","1","j","2","1","NA","0","1","0","0","0","0","0","0","0","0","33","33","33","0","0","0","NA","0","0","2","0","0","0","2","33","33","33","33","33","Fri Nov  3 11:47:54 2017","Forced-choice identification task with a practice and an experimental phase","yes","NAP_GER_AA_4blocks_noglides.osexp","/Users/aviadalbert/Documents/Academisch/UoC/Dissertation/Experiment/OpenSesame/NAP-FC/NAP_GER_AA_4blocks_noglides","yes","no","sans","no","20","no","black","no","Weiter","yes","768","legacy","23","9","0","/Users/aviadalbert/Documents/Academisch/UoC/Dissertation/Experiment/OpenSesame/NAP-FC/NAP_GER_AA_4blocks_noglides/subject-40.csv","xpyriment","Jazzy James","3.1.9","yes","yes","59a800d99ad5a1025d81bb03","59a801616c613b0251691de0","no","no","0","j","j","space","NA","m","k","j","902","4301","25282","NA","26780","32962","902","2","legacy","1024","1","44100","-16","experiment","nefal","2","0","1","0","1","Englisch","40","","even","5828040","5802231","NA","NA","5832342","5828036","NA","5121022","5827572","5121023","5121023","5705992","5732776","5901640","5900135","5902543","5771246","5766041","5802231","NA","5641432","5688746","5800567","5765809","5828040","5766044","NA","5901640","5901640","NA","NA","5900131","NAP perception","18","27470","24","yes","1024"
"76","yes","76","1131.88","1131.88","white","no","xpyriment","Ich habe die obigen Informationen gelesen und verstanden.","legacy","legacy","0","uniform","1","0","0","undefined","undefined","1","j","2","1","NA","0","1","0","0","0","0","0","0","0","0","34","34","34","0","0","0","NA","0","0","2","0","0","0","2","34","34","34","34","34","Fri Nov  3 11:47:54 2017","Forced-choice identification task with a practice and an experimental phase","yes","NAP_GER_AA_4blocks_noglides.osexp","/Users/aviadalbert/Documents/Academisch/UoC/Dissertation/Experiment/OpenSesame/NAP-FC/NAP_GER_AA_4blocks_noglides","yes","no","sans","no","20","no","black","no","Weiter","yes","768","legacy","24","9","0","/Users/aviadalbert/Documents/Academisch/UoC/Dissertation/Experiment/OpenSesame/NAP-FC/NAP_GER_AA_4blocks_noglides/subject-40.csv","xpyriment","Jazzy James","3.1.9","yes","yes","59a800d99ad5a1025d81bb03","59a801616c613b0251691de0","no","no","0","j","j","space","NA","m","k","j","827","4301","25282","NA","26780","32962","827","2","legacy","1024","1","44100","-16","experiment","evnal","2","0","1","0","1","Englisch","40","","even","5828040","5802231","NA","NA","5832342","5828036","NA","5121022","5827572","5121023","5121023","5705992","5732776","5904321","5902817","5905149","5771246","5766041","5802231","NA","5641432","5688746","5800567","5765809","5828040","5766044","NA","5904321","5904321","NA","NA","5902813","NAP perception","19","28297","25","yes","1024"
"76.9230769231","yes","76.9230769231","1123.19230769","1123.19230769","white","no","xpyriment","Ich habe die obigen Informationen gelesen und verstanden.","legacy","legacy","0","uniform","1","0","0","undefined","undefined","1","f","2","1","NA","0","1","0","0","0","0","0","0","0","0","35","35","35","0","0","0","NA","0","0","2","0","0","0","2","35","35","35","35","35","Fri Nov  3 11:47:54 2017","Forced-choice identification task with a practice and an experimental phase","yes","NAP_GER_AA_4blocks_noglides.osexp","/Users/aviadalbert/Documents/Academisch/UoC/Dissertation/Experiment/OpenSesame/NAP-FC/NAP_GER_AA_4blocks_noglides","yes","no","sans","no","20","no","black","no","Weiter","yes","768","legacy","25","9","0","/Users/aviadalbert/Documents/Academisch/UoC/Dissertation/Experiment/OpenSesame/NAP-FC/NAP_GER_AA_4blocks_noglides/subject-40.csv","xpyriment","Jazzy James","3.1.9","yes","yes","59a800d99ad5a1025d81bb03","59a801616c613b0251691de0","no","no","0","f","j","space","NA","m","k","f","906","4301","25282","NA","26780","32962","906","2","legacy","1024","1","44100","-16","experiment","ʃfal","2","0","1","0","1","Englisch","40","","even","5828040","5802231","NA","NA","5832342","5828036","NA","5121022","5827572","5121023","5121023","5705992","5732776","5906936","5905432","5907843","5771246","5766041","5802231","NA","5641432","5688746","5800567","5765809","5828040","5766044","NA","5906935","5906935","NA","NA","5905428","NAP perception","20","29203","26","yes","1024"
"77.7777777778","yes","77.7777777778","1115.7037037","1115.7037037","white","no","xpyriment","Ich habe die obigen Informationen gelesen und verstanden.","legacy","legacy","0","uniform","1","0","0","undefined","undefined","1","j","2","1","NA","0","1","0","0","0","0","0","0","0","0","36","36","36","0","0","0","NA","0","0","2","0","0","0","2","36","36","36","36","36","Fri Nov  3 11:47:54 2017","Forced-choice identification task with a practice and an experimental phase","yes","NAP_GER_AA_4blocks_noglides.osexp","/Users/aviadalbert/Documents/Academisch/UoC/Dissertation/Experiment/OpenSesame/NAP-FC/NAP_GER_AA_4blocks_noglides","yes","no","sans","no","20","no","black","no","Weiter","yes","768","legacy","26","9","0","/Users/aviadalbert/Documents/Academisch/UoC/Dissertation/Experiment/OpenSesame/NAP-FC/NAP_GER_AA_4blocks_noglides/subject-40.csv","xpyriment","Jazzy James","3.1.9","yes","yes","59a800d99ad5a1025d81bb03","59a801616c613b0251691de0","no","no","0","j","j","space","NA","m","k","j","921","4301","25282","NA","26780","32962","921","2","legacy","1024","1","44100","-16","experiment","elfal","2","0","1","0","1","Englisch","40","","even","5828040","5802231","NA","NA","5832342","5828036","NA","5121022","5827572","5121023","5121023","5705992","5732776","5909612","5908104","5910534","5771246","5766041","5802231","NA","5641432","5688746","5800567","5765809","5828040","5766044","NA","5909612","5909612","NA","NA","5908100","NAP perception","21","30124","27","yes","1024"
"78.5714285714","yes","78.5714285714","1105.57142857","1105.57142857","white","no","xpyriment","Ich habe die obigen Informationen gelesen und verstanden.","legacy","legacy","0","uniform","1","0","0","undefined","undefined","1","j","2","1","NA","0","1","0","0","0","0","0","0","0","0","37","37","37","0","0","0","NA","0","0","2","0","0","0","2","37","37","37","37","37","Fri Nov  3 11:47:54 2017","Forced-choice identification task with a practice and an experimental phase","yes","NAP_GER_AA_4blocks_noglides.osexp","/Users/aviadalbert/Documents/Academisch/UoC/Dissertation/Experiment/OpenSesame/NAP-FC/NAP_GER_AA_4blocks_noglides","yes","no","sans","no","20","no","black","no","Weiter","yes","768","legacy","27","9","0","/Users/aviadalbert/Documents/Academisch/UoC/Dissertation/Experiment/OpenSesame/NAP-FC/NAP_GER_AA_4blocks_noglides/subject-40.csv","xpyriment","Jazzy James","3.1.9","yes","yes","59a800d99ad5a1025d81bb03","59a801616c613b0251691de0","no","no","0","j","j","space","NA","m","k","j","832","4301","25282","NA","26780","32962","832","2","legacy","1024","1","44100","-16","experiment","lefal","2","0","1","0","1","Englisch","40","","even","5828040","5802231","NA","NA","5832342","5828036","NA","5121022","5827572","5121023","5121023","5705992","5732776","5912308","5910803","5913142","5771246","5766041","5802231","NA","5641432","5688746","5800567","5765809","5828040","5766044","NA","5912308","5912308","NA","NA","5910799","NAP perception","22","30956","28","yes","1024"
"79.3103448276","yes","79.3103448276","1104.20689655","1104.20689655","white","no","xpyriment","Ich habe die obigen Informationen gelesen und verstanden.","legacy","legacy","0","uniform","1","0","0","undefined","undefined","1","j","2","1","NA","0","1","0","0","0","0","0","0","0","0","38","38","38","0","0","0","NA","0","0","2","0","0","0","2","38","38","38","38","38","Fri Nov  3 11:47:54 2017","Forced-choice identification task with a practice and an experimental phase","yes","NAP_GER_AA_4blocks_noglides.osexp","/Users/aviadalbert/Documents/Academisch/UoC/Dissertation/Experiment/OpenSesame/NAP-FC/NAP_GER_AA_4blocks_noglides","yes","no","sans","no","20","no","black","no","Weiter","yes","768","legacy","28","9","0","/Users/aviadalbert/Documents/Academisch/UoC/Dissertation/Experiment/OpenSesame/NAP-FC/NAP_GER_AA_4blocks_noglides/subject-40.csv","xpyriment","Jazzy James","3.1.9","yes","yes","59a800d99ad5a1025d81bb03","59a801616c613b0251691de0","no","no","0","j","j","space","NA","m","k","j","1066","4301","25282","NA","26780","32962","1066","2","legacy","1024","1","44100","-16","experiment","eflal","2","0","1","0","1","Englisch","40","","even","5828040","5802231","NA","NA","5832342","5828036","NA","5121022","5827572","5121023","5121023","5705992","5732776","5914910","5913405","5915978","5771246","5766041","5802231","NA","5641432","5688746","5800567","5765809","5828040","5766044","NA","5914910","5914910","NA","NA","5913401","NAP perception","23","32022","29","yes","1024"
"80","yes","80","1088.86666667","1088.86666667","white","no","xpyriment","Ich habe die obigen Informationen gelesen und verstanden.","legacy","legacy","0","uniform","1","0","0","undefined","undefined","1","f","2","1","NA","0","1","0","0","0","0","0","0","0","0","39","39","39","0","0","0","NA","0","0","2","0","0","0","2","39","39","39","39","39","Fri Nov  3 11:47:54 2017","Forced-choice identification task with a practice and an experimental phase","yes","NAP_GER_AA_4blocks_noglides.osexp","/Users/aviadalbert/Documents/Academisch/UoC/Dissertation/Experiment/OpenSesame/NAP-FC/NAP_GER_AA_4blocks_noglides","yes","no","sans","no","20","no","black","no","Weiter","yes","768","legacy","29","9","0","/Users/aviadalbert/Documents/Academisch/UoC/Dissertation/Experiment/OpenSesame/NAP-FC/NAP_GER_AA_4blocks_noglides/subject-40.csv","xpyriment","Jazzy James","3.1.9","yes","yes","59a800d99ad5a1025d81bb03","59a801616c613b0251691de0","no","no","0","f","j","space","NA","m","k","f","644","4301","25282","NA","26780","32962","644","2","legacy","1024","1","44100","-16","experiment","ʃmal","2","0","1","0","1","Englisch","40","","even","5828040","5802231","NA","NA","5832342","5828036","NA","5121022","5827572","5121023","5121023","5705992","5732776","5917762","5916257","5918408","5771246","5766041","5802231","NA","5641432","5688746","5800567","5765809","5828040","5766044","NA","5917762","5917762","NA","NA","5916253","NAP perception","24","32666","30","yes","1024"
"80.6451612903","yes","80.6451612903","1083.67741935","1083.67741935","white","no","xpyriment","Ich habe die obigen Informationen gelesen und verstanden.","legacy","legacy","0","uniform","1","0","0","undefined","undefined","1","j","2","1","NA","0","1","0","0","0","0","0","0","0","0","40","40","40","0","0","0","NA","0","0","2","0","0","0","2","40","40","40","40","40","Fri Nov  3 11:47:54 2017","Forced-choice identification task with a practice and an experimental phase","yes","NAP_GER_AA_4blocks_noglides.osexp","/Users/aviadalbert/Documents/Academisch/UoC/Dissertation/Experiment/OpenSesame/NAP-FC/NAP_GER_AA_4blocks_noglides","yes","no","sans","no","20","no","black","no","Weiter","yes","768","legacy","30","9","0","/Users/aviadalbert/Documents/Academisch/UoC/Dissertation/Experiment/OpenSesame/NAP-FC/NAP_GER_AA_4blocks_noglides/subject-40.csv","xpyriment","Jazzy James","3.1.9","yes","yes","59a800d99ad5a1025d81bb03","59a801616c613b0251691de0","no","no","0","j","j","space","NA","m","k","j","928","4301","25282","NA","26780","32962","928","2","legacy","1024","1","44100","-16","experiment","neval","2","0","1","0","1","Englisch","40","","even","5828040","5802231","NA","NA","5832342","5828036","NA","5121022","5827572","5121023","5121023","5705992","5732776","5920175","5918670","5921105","5771246","5766041","5802231","NA","5641432","5688746","5800567","5765809","5828040","5766044","NA","5920175","5920175","NA","NA","5918666","NAP perception","25","33594","31","yes","1024"
"81.25","yes","81.25","1080.59375","1080.59375","white","no","xpyriment","Ich habe die obigen Informationen gelesen und verstanden.","legacy","legacy","0","uniform","1","0","0","undefined","undefined","1","f","2","1","NA","0","1","0","0","0","0","0","0","0","0","41","41","41","0","0","0","NA","0","0","2","0","0","0","2","41","41","41","41","41","Fri Nov  3 11:47:54 2017","Forced-choice identification task with a practice and an experimental phase","yes","NAP_GER_AA_4blocks_noglides.osexp","/Users/aviadalbert/Documents/Academisch/UoC/Dissertation/Experiment/OpenSesame/NAP-FC/NAP_GER_AA_4blocks_noglides","yes","no","sans","no","20","no","black","no","Weiter","yes","768","legacy","31","9","0","/Users/aviadalbert/Documents/Academisch/UoC/Dissertation/Experiment/OpenSesame/NAP-FC/NAP_GER_AA_4blocks_noglides/subject-40.csv","xpyriment","Jazzy James","3.1.9","yes","yes","59a800d99ad5a1025d81bb03","59a801616c613b0251691de0","no","no","0","f","j","space","NA","m","k","f","985","4301","25282","NA","26780","32962","985","2","legacy","1024","1","44100","-16","experiment","ʃpal","2","0","1","0","1","Englisch","40","","even","5828040","5802231","NA","NA","5832342","5828036","NA","5121022","5827572","5121023","5121023","5705992","5732776","5922887","5921383","5923874","5771246","5766041","5802231","NA","5641432","5688746","5800567","5765809","5828040","5766044","NA","5922887","5922887","NA","NA","5921379","NAP perception","26","34579","32","yes","1024"
"81.8181818182","yes","81.8181818182","1074.72727273","1074.72727273","white","no","xpyriment","Ich habe die obigen Informationen gelesen und verstanden.","legacy","legacy","0","uniform","1","0","0","undefined","undefined","1","f","2","1","NA","0","1","0","0","0","0","0","0","0","0","42","42","42","0","0","0","NA","0","0","2","0","0","0","2","42","42","42","42","42","Fri Nov  3 11:47:54 2017","Forced-choice identification task with a practice and an experimental phase","yes","NAP_GER_AA_4blocks_noglides.osexp","/Users/aviadalbert/Documents/Academisch/UoC/Dissertation/Experiment/OpenSesame/NAP-FC/NAP_GER_AA_4blocks_noglides","yes","no","sans","no","20","no","black","no","Weiter","yes","768","legacy","32","9","0","/Users/aviadalbert/Documents/Academisch/UoC/Dissertation/Experiment/OpenSesame/NAP-FC/NAP_GER_AA_4blocks_noglides/subject-40.csv","xpyriment","Jazzy James","3.1.9","yes","yes","59a800d99ad5a1025d81bb03","59a801616c613b0251691de0","no","no","0","f","j","space","NA","m","k","f","887","4301","25282","NA","26780","32962","887","2","legacy","1024","1","44100","-16","experiment","spal","2","0","1","0","1","Englisch","40","","even","5828040","5802231","NA","NA","5832342","5828036","NA","5121022","5827572","5121023","5121023","5705992","5732776","5925647","5924142","5926536","5771246","5766041","5802231","NA","5641432","5688746","5800567","5765809","5828040","5766044","NA","5925646","5925646","NA","NA","5924138","NAP perception","27","35466","33","yes","1024"
"82.3529411765","yes","82.3529411765","1064.73529412","1064.73529412","white","no","xpyriment","Ich habe die obigen Informationen gelesen und verstanden.","legacy","legacy","0","uniform","1","0","0","undefined","undefined","1","f","2","1","NA","0","1","0","0","0","0","0","0","0","0","43","43","43","0","0","0","NA","0","0","2","0","0","0","2","43","43","43","43","43","Fri Nov  3 11:47:54 2017","Forced-choice identification task with a practice and an experimental phase","yes","NAP_GER_AA_4blocks_noglides.osexp","/Users/aviadalbert/Documents/Academisch/UoC/Dissertation/Experiment/OpenSesame/NAP-FC/NAP_GER_AA_4blocks_noglides","yes","no","sans","no","20","no","black","no","Weiter","yes","768","legacy","33","9","0","/Users/aviadalbert/Documents/Academisch/UoC/Dissertation/Experiment/OpenSesame/NAP-FC/NAP_GER_AA_4blocks_noglides/subject-40.csv","xpyriment","Jazzy James","3.1.9","yes","yes","59a800d99ad5a1025d81bb03","59a801616c613b0251691de0","no","no","0","f","j","space","NA","m","k","f","735","4301","25282","NA","26780","32962","735","2","legacy","1024","1","44100","-16","experiment","vnal","2","0","1","0","1","Englisch","40","","even","5828040","5802231","NA","NA","5832342","5828036","NA","5121022","5827572","5121023","5121023","5705992","5732776","5928320","5926815","5929056","5771246","5766041","5802231","NA","5641432","5688746","5800567","5765809","5828040","5766044","NA","5928319","5928319","NA","NA","5926811","NAP perception","28","36201","34","yes","1024"
"82.8571428571","yes","82.8571428571","1059.45714286","1059.45714286","white","no","xpyriment","Ich habe die obigen Informationen gelesen und verstanden.","legacy","legacy","0","uniform","1","0","0","undefined","undefined","1","j","2","1","NA","0","1","0","0","0","0","0","0","0","0","44","44","44","0","0","0","NA","0","0","2","0","0","0","2","44","44","44","44","44","Fri Nov  3 11:47:54 2017","Forced-choice identification task with a practice and an experimental phase","yes","NAP_GER_AA_4blocks_noglides.osexp","/Users/aviadalbert/Documents/Academisch/UoC/Dissertation/Experiment/OpenSesame/NAP-FC/NAP_GER_AA_4blocks_noglides","yes","no","sans","no","20","no","black","no","Weiter","yes","768","legacy","34","9","0","/Users/aviadalbert/Documents/Academisch/UoC/Dissertation/Experiment/OpenSesame/NAP-FC/NAP_GER_AA_4blocks_noglides/subject-40.csv","xpyriment","Jazzy James","3.1.9","yes","yes","59a800d99ad5a1025d81bb03","59a801616c613b0251691de0","no","no","0","j","j","space","NA","m","k","j","880","4301","25282","NA","26780","32962","880","2","legacy","1024","1","44100","-16","experiment","nepal","2","0","1","0","1","Englisch","40","","even","5828040","5802231","NA","NA","5832342","5828036","NA","5121022","5827572","5121023","5121023","5705992","5732776","5930826","5929322","5931707","5771246","5766041","5802231","NA","5641432","5688746","5800567","5765809","5828040","5766044","NA","5930826","5930826","NA","NA","5929318","NAP perception","29","37081","35","yes","1024"
"83.3333333333","yes","83.3333333333","1057.91666667","1057.91666667","white","no","xpyriment","Ich habe die obigen Informationen gelesen und verstanden.","legacy","legacy","0","uniform","1","0","0","undefined","undefined","1","f","2","1","NA","0","1","0","0","0","0","0","0","0","0","45","45","45","0","0","0","NA","0","0","2","0","0","0","2","45","45","45","45","45","Fri Nov  3 11:47:54 2017","Forced-choice identification task with a practice and an experimental phase","yes","NAP_GER_AA_4blocks_noglides.osexp","/Users/aviadalbert/Documents/Academisch/UoC/Dissertation/Experiment/OpenSesame/NAP-FC/NAP_GER_AA_4blocks_noglides","yes","no","sans","no","20","no","black","no","Weiter","yes","768","legacy","35","9","0","/Users/aviadalbert/Documents/Academisch/UoC/Dissertation/Experiment/OpenSesame/NAP-FC/NAP_GER_AA_4blocks_noglides/subject-40.csv","xpyriment","Jazzy James","3.1.9","yes","yes","59a800d99ad5a1025d81bb03","59a801616c613b0251691de0","no","no","0","f","j","space","NA","m","k","f","1004","4301","25282","NA","26780","32962","1004","2","legacy","1024","1","44100","-16","experiment","ʃfal","2","0","1","0","1","Englisch","40","","even","5828040","5802231","NA","NA","5832342","5828036","NA","5121022","5827572","5121023","5121023","5705992","5732776","5933498","5931993","5934504","5771246","5766041","5802231","NA","5641432","5688746","5800567","5765809","5828040","5766044","NA","5933497","5933497","NA","NA","5931989","NAP perception","30","38085","36","yes","1024"
"83.7837837838","yes","83.7837837838","1055.16216216","1055.16216216","white","no","xpyriment","Ich habe die obigen Informationen gelesen und verstanden.","legacy","legacy","0","uniform","1","0","0","undefined","undefined","1","f","2","1","NA","0","1","0","0","0","0","0","0","0","0","46","46","46","0","0","0","NA","0","0","2","0","0","0","2","46","46","46","46","46","Fri Nov  3 11:47:54 2017","Forced-choice identification task with a practice and an experimental phase","yes","NAP_GER_AA_4blocks_noglides.osexp","/Users/aviadalbert/Documents/Academisch/UoC/Dissertation/Experiment/OpenSesame/NAP-FC/NAP_GER_AA_4blocks_noglides","yes","no","sans","no","20","no","black","no","Weiter","yes","768","legacy","36","9","0","/Users/aviadalbert/Documents/Academisch/UoC/Dissertation/Experiment/OpenSesame/NAP-FC/NAP_GER_AA_4blocks_noglides/subject-40.csv","xpyriment","Jazzy James","3.1.9","yes","yes","59a800d99ad5a1025d81bb03","59a801616c613b0251691de0","no","no","0","f","j","space","NA","m","k","f","956","4301","25282","NA","26780","32962","956","2","legacy","1024","1","44100","-16","experiment","lpal","2","0","1","0","1","Englisch","40","","even","5828040","5802231","NA","NA","5832342","5828036","NA","5121022","5827572","5121023","5121023","5705992","5732776","5936298","5934794","5937255","5771246","5766041","5802231","NA","5641432","5688746","5800567","5765809","5828040","5766044","NA","5936297","5936297","NA","NA","5934790","NAP perception","31","39041","37","yes","1024"
"84.2105263158","yes","84.2105263158","1059.28947368","1059.28947368","white","no","xpyriment","Ich habe die obigen Informationen gelesen und verstanden.","legacy","legacy","0","uniform","1","0","0","undefined","undefined","1","f","2","1","NA","0","1","0","0","0","0","0","0","0","0","47","47","47","0","0","0","NA","0","0","2","0","0","0","2","47","47","47","47","47","Fri Nov  3 11:47:54 2017","Forced-choice identification task with a practice and an experimental phase","yes","NAP_GER_AA_4blocks_noglides.osexp","/Users/aviadalbert/Documents/Academisch/UoC/Dissertation/Experiment/OpenSesame/NAP-FC/NAP_GER_AA_4blocks_noglides","yes","no","sans","no","20","no","black","no","Weiter","yes","768","legacy","37","9","0","/Users/aviadalbert/Documents/Academisch/UoC/Dissertation/Experiment/OpenSesame/NAP-FC/NAP_GER_AA_4blocks_noglides/subject-40.csv","xpyriment","Jazzy James","3.1.9","yes","yes","59a800d99ad5a1025d81bb03","59a801616c613b0251691de0","no","no","0","f","j","space","NA","m","k","f","1212","4301","25282","NA","26780","32962","1212","2","legacy","1024","1","44100","-16","experiment","mnal","2","0","1","0","1","Englisch","40","","even","5828040","5802231","NA","NA","5832342","5828036","NA","5121022","5827572","5121023","5121023","5705992","5732776","5939044","5937540","5940257","5771246","5766041","5802231","NA","5641432","5688746","5800567","5765809","5828040","5766044","NA","5939043","5939043","NA","NA","5937536","NAP perception","32","40253","38","yes","1024"
"84.6153846154","yes","84.6153846154","1066.35897436","1066.35897436","white","no","xpyriment","Ich habe die obigen Informationen gelesen und verstanden.","legacy","legacy","0","uniform","1","0","0","undefined","undefined","1","j","2","1","NA","0","1","0","0","0","0","0","0","0","0","48","48","48","0","0","0","NA","0","0","2","0","0","0","2","48","48","48","48","48","Fri Nov  3 11:47:54 2017","Forced-choice identification task with a practice and an experimental phase","yes","NAP_GER_AA_4blocks_noglides.osexp","/Users/aviadalbert/Documents/Academisch/UoC/Dissertation/Experiment/OpenSesame/NAP-FC/NAP_GER_AA_4blocks_noglides","yes","no","sans","no","20","no","black","no","Weiter","yes","768","legacy","38","9","0","/Users/aviadalbert/Documents/Academisch/UoC/Dissertation/Experiment/OpenSesame/NAP-FC/NAP_GER_AA_4blocks_noglides/subject-40.csv","xpyriment","Jazzy James","3.1.9","yes","yes","59a800d99ad5a1025d81bb03","59a801616c613b0251691de0","no","no","0","j","j","space","NA","m","k","j","1335","4301","25282","NA","26780","32962","1335","2","legacy","1024","1","44100","-16","experiment","zeval","2","0","1","0","1","Englisch","40","","even","5828040","5802231","NA","NA","5832342","5828036","NA","5121022","5827572","5121023","5121023","5705992","5732776","5942037","5940532","5943374","5771246","5766041","5802231","NA","5641432","5688746","5800567","5765809","5828040","5766044","NA","5942037","5942037","NA","NA","5940528","NAP perception","33","41588","39","yes","1024"
"85","yes","85","1077.825","1077.825","white","no","xpyriment","Ich habe die obigen Informationen gelesen und verstanden.","legacy","legacy","0","uniform","1","0","0","undefined","undefined","1","f","2","1","NA","0","1","0","0","0","0","0","0","0","0","49","49","49","0","0","0","NA","0","0","2","0","0","0","2","49","49","49","49","49","Fri Nov  3 11:47:54 2017","Forced-choice identification task with a practice and an experimental phase","yes","NAP_GER_AA_4blocks_noglides.osexp","/Users/aviadalbert/Documents/Academisch/UoC/Dissertation/Experiment/OpenSesame/NAP-FC/NAP_GER_AA_4blocks_noglides","yes","no","sans","no","20","no","black","no","Weiter","yes","768","legacy","39","9","0","/Users/aviadalbert/Documents/Academisch/UoC/Dissertation/Experiment/OpenSesame/NAP-FC/NAP_GER_AA_4blocks_noglides/subject-40.csv","xpyriment","Jazzy James","3.1.9","yes","yes","59a800d99ad5a1025d81bb03","59a801616c613b0251691de0","no","no","0","f","j","space","NA","m","k","f","1525","4301","25282","NA","26780","32962","1525","2","legacy","1024","1","44100","-16","experiment","mtal","2","0","1","0","1","Englisch","40","","even","5828040","5802231","NA","NA","5832342","5828036","NA","5121022","5827572","5121023","5121023","5705992","5732776","5945162","5943658","5946689","5771246","5766041","5802231","NA","5641432","5688746","5800567","5765809","5828040","5766044","NA","5945161","5945161","NA","NA","5943654","NAP perception","34","43113","40","yes","1024"
"85.3658536585","yes","85.3658536585","1074.2195122","1074.2195122","white","no","xpyriment","Ich habe die obigen Informationen gelesen und verstanden.","legacy","legacy","0","uniform","1","0","0","undefined","undefined","1","j","2","1","NA","0","1","0","0","0","0","0","0","0","0","50","50","50","0","0","0","NA","0","0","2","0","0","0","2","50","50","50","50","50","Fri Nov  3 11:47:54 2017","Forced-choice identification task with a practice and an experimental phase","yes","NAP_GER_AA_4blocks_noglides.osexp","/Users/aviadalbert/Documents/Academisch/UoC/Dissertation/Experiment/OpenSesame/NAP-FC/NAP_GER_AA_4blocks_noglides","yes","no","sans","no","20","no","black","no","Weiter","yes","768","legacy","40","9","0","/Users/aviadalbert/Documents/Academisch/UoC/Dissertation/Experiment/OpenSesame/NAP-FC/NAP_GER_AA_4blocks_noglides/subject-40.csv","xpyriment","Jazzy James","3.1.9","yes","yes","59a800d99ad5a1025d81bb03","59a801616c613b0251691de0","no","no","0","j","j","space","NA","m","k","j","930","4301","25282","NA","26780","32962","930","2","legacy","1024","1","44100","-16","experiment","elpal","2","0","1","0","1","Englisch","40","","even","5828040","5802231","NA","NA","5832342","5828036","NA","5121022","5827572","5121023","5121023","5705992","5732776","5948470","5946963","5949402","5771246","5766041","5802231","NA","5641432","5688746","5800567","5765809","5828040","5766044","NA","5948470","5948470","NA","NA","5946959","NAP perception","35","44043","41","yes","1024"
"85.7142857143","yes","85.7142857143","1079.80952381","1079.80952381","white","no","xpyriment","Ich habe die obigen Informationen gelesen und verstanden.","legacy","legacy","0","uniform","1","0","0","undefined","undefined","1","j","2","1","NA","0","1","0","0","0","0","0","0","0","0","51","51","51","0","0","0","NA","0","0","2","0","0","0","2","51","51","51","51","51","Fri Nov  3 11:47:54 2017","Forced-choice identification task with a practice and an experimental phase","yes","NAP_GER_AA_4blocks_noglides.osexp","/Users/aviadalbert/Documents/Academisch/UoC/Dissertation/Experiment/OpenSesame/NAP-FC/NAP_GER_AA_4blocks_noglides","yes","no","sans","no","20","no","black","no","Weiter","yes","768","legacy","41","9","0","/Users/aviadalbert/Documents/Academisch/UoC/Dissertation/Experiment/OpenSesame/NAP-FC/NAP_GER_AA_4blocks_noglides/subject-40.csv","xpyriment","Jazzy James","3.1.9","yes","yes","59a800d99ad5a1025d81bb03","59a801616c613b0251691de0","no","no","0","j","j","space","NA","m","k","j","1309","4301","25282","NA","26780","32962","1309","2","legacy","1024","1","44100","-16","experiment","efnal","2","0","1","0","1","Englisch","40","","even","5828040","5802231","NA","NA","5832342","5828036","NA","5121022","5827572","5121023","5121023","5705992","5732776","5951170","5949665","5952481","5771246","5766041","5802231","NA","5641432","5688746","5800567","5765809","5828040","5766044","NA","5951169","5951169","NA","NA","5949661","NAP perception","36","45352","42","yes","1024"
"86.0465116279","yes","86.0465116279","1076.11627907","1076.11627907","white","no","xpyriment","Ich habe die obigen Informationen gelesen und verstanden.","legacy","legacy","0","uniform","1","0","0","undefined","undefined","1","f","2","1","NA","0","1","0","0","0","0","0","0","0","0","52","52","52","0","0","0","NA","0","0","2","0","0","0","2","52","52","52","52","52","Fri Nov  3 11:47:54 2017","Forced-choice identification task with a practice and an experimental phase","yes","NAP_GER_AA_4blocks_noglides.osexp","/Users/aviadalbert/Documents/Academisch/UoC/Dissertation/Experiment/OpenSesame/NAP-FC/NAP_GER_AA_4blocks_noglides","yes","no","sans","no","20","no","black","no","Weiter","yes","768","legacy","42","9","0","/Users/aviadalbert/Documents/Academisch/UoC/Dissertation/Experiment/OpenSesame/NAP-FC/NAP_GER_AA_4blocks_noglides/subject-40.csv","xpyriment","Jazzy James","3.1.9","yes","yes","59a800d99ad5a1025d81bb03","59a801616c613b0251691de0","no","no","0","f","j","space","NA","m","k","f","921","4301","25282","NA","26780","32962","921","2","legacy","1024","1","44100","-16","experiment","flal","2","0","1","0","1","Englisch","40","","even","5828040","5802231","NA","NA","5832342","5828036","NA","5121022","5827572","5121023","5121023","5705992","5732776","5954270","5952766","5955193","5771246","5766041","5802231","NA","5641432","5688746","5800567","5765809","5828040","5766044","NA","5954270","5954270","NA","NA","5952762","NAP perception","37","46273","43","yes","1024"
"86.3636363636","yes","86.3636363636","1073.68181818","1073.68181818","white","no","xpyriment","Ich habe die obigen Informationen gelesen und verstanden.","legacy","legacy","0","uniform","1","0","0","undefined","undefined","1","f","2","1","NA","0","1","0","0","0","0","0","0","0","0","53","53","53","0","0","0","NA","0","0","2","0","0","0","2","53","53","53","53","53","Fri Nov  3 11:47:54 2017","Forced-choice identification task with a practice and an experimental phase","yes","NAP_GER_AA_4blocks_noglides.osexp","/Users/aviadalbert/Documents/Academisch/UoC/Dissertation/Experiment/OpenSesame/NAP-FC/NAP_GER_AA_4blocks_noglides","yes","no","sans","no","20","no","black","no","Weiter","yes","768","legacy","43","9","0","/Users/aviadalbert/Documents/Academisch/UoC/Dissertation/Experiment/OpenSesame/NAP-FC/NAP_GER_AA_4blocks_noglides/subject-40.csv","xpyriment","Jazzy James","3.1.9","yes","yes","59a800d99ad5a1025d81bb03","59a801616c613b0251691de0","no","no","0","f","j","space","NA","m","k","f","969","4301","25282","NA","26780","32962","969","2","legacy","1024","1","44100","-16","experiment","smal","2","0","1","0","1","Englisch","40","","even","5828040","5802231","NA","NA","5832342","5828036","NA","5121022","5827572","5121023","5121023","5705992","5732776","5956992","5955485","5957963","5771246","5766041","5802231","NA","5641432","5688746","5800567","5765809","5828040","5766044","NA","5956991","5956992","NA","NA","5955481","NAP perception","38","47242","44","yes","1024"
"86.6666666667","yes","86.6666666667","1074.82222222","1074.82222222","white","no","xpyriment","Ich habe die obigen Informationen gelesen und verstanden.","legacy","legacy","0","uniform","1","0","0","undefined","undefined","1","f","2","1","NA","0","1","0","0","0","0","0","0","0","0","54","54","54","0","0","0","NA","0","0","2","0","0","0","2","54","54","54","54","54","Fri Nov  3 11:47:54 2017","Forced-choice identification task with a practice and an experimental phase","yes","NAP_GER_AA_4blocks_noglides.osexp","/Users/aviadalbert/Documents/Academisch/UoC/Dissertation/Experiment/OpenSesame/NAP-FC/NAP_GER_AA_4blocks_noglides","yes","no","sans","no","20","no","black","no","Weiter","yes","768","legacy","44","9","0","/Users/aviadalbert/Documents/Academisch/UoC/Dissertation/Experiment/OpenSesame/NAP-FC/NAP_GER_AA_4blocks_noglides/subject-40.csv","xpyriment","Jazzy James","3.1.9","yes","yes","59a800d99ad5a1025d81bb03","59a801616c613b0251691de0","no","no","0","f","j","space","NA","m","k","f","1125","4301","25282","NA","26780","32962","1125","2","legacy","1024","1","44100","-16","experiment","nval","2","0","1","0","1","Englisch","40","","even","5828040","5802231","NA","NA","5832342","5828036","NA","5121022","5827572","5121023","5121023","5705992","5732776","5959744","5958239","5960870","5771246","5766041","5802231","NA","5641432","5688746","5800567","5765809","5828040","5766044","NA","5959744","5959744","NA","NA","5958235","NAP perception","39","48367","45","yes","1024"
"86.9565217391","yes","86.9565217391","1070.67391304","1070.67391304","white","no","xpyriment","Ich habe die obigen Informationen gelesen und verstanden.","legacy","legacy","0","uniform","1","0","0","undefined","undefined","1","f","2","1","NA","0","1","0","0","0","0","0","0","0","0","55","55","55","0","0","0","NA","0","0","2","0","0","0","2","55","55","55","55","55","Fri Nov  3 11:47:54 2017","Forced-choice identification task with a practice and an experimental phase","yes","NAP_GER_AA_4blocks_noglides.osexp","/Users/aviadalbert/Documents/Academisch/UoC/Dissertation/Experiment/OpenSesame/NAP-FC/NAP_GER_AA_4blocks_noglides","yes","no","sans","no","20","no","black","no","Weiter","yes","768","legacy","45","9","0","/Users/aviadalbert/Documents/Academisch/UoC/Dissertation/Experiment/OpenSesame/NAP-FC/NAP_GER_AA_4blocks_noglides/subject-40.csv","xpyriment","Jazzy James","3.1.9","yes","yes","59a800d99ad5a1025d81bb03","59a801616c613b0251691de0","no","no","0","f","j","space","NA","m","k","f","884","4301","25282","NA","26780","32962","884","2","legacy","1024","1","44100","-16","experiment","zmal","2","0","1","0","1","Englisch","40","","even","5828040","5802231","NA","NA","5832342","5828036","NA","5121022","5827572","5121023","5121023","5705992","5732776","5962648","5961144","5963533","5771246","5766041","5802231","NA","5641432","5688746","5800567","5765809","5828040","5766044","NA","5962647","5962647","NA","NA","5961139","NAP perception","40","49251","46","yes","1024"
"87.2340425532","yes","87.2340425532","1065.85106383","1065.85106383","white","no","xpyriment","Ich habe die obigen Informationen gelesen und verstanden.","legacy","legacy","0","uniform","1","0","0","undefined","undefined","1","j","2","1","NA","0","1","0","0","0","0","0","0","0","0","56","56","56","0","0","0","NA","0","0","2","0","0","0","2","56","56","56","56","56","Fri Nov  3 11:47:54 2017","Forced-choice identification task with a practice and an experimental phase","yes","NAP_GER_AA_4blocks_noglides.osexp","/Users/aviadalbert/Documents/Academisch/UoC/Dissertation/Experiment/OpenSesame/NAP-FC/NAP_GER_AA_4blocks_noglides","yes","no","sans","no","20","no","black","no","Weiter","yes","768","legacy","46","9","0","/Users/aviadalbert/Documents/Academisch/UoC/Dissertation/Experiment/OpenSesame/NAP-FC/NAP_GER_AA_4blocks_noglides/subject-40.csv","xpyriment","Jazzy James","3.1.9","yes","yes","59a800d99ad5a1025d81bb03","59a801616c613b0251691de0","no","no","0","j","j","space","NA","m","k","j","844","4301","25282","NA","26780","32962","844","2","legacy","1024","1","44100","-16","experiment","ʃemal","2","0","1","0","1","Englisch","40","","even","5828040","5802231","NA","NA","5832342","5828036","NA","5121022","5827572","5121023","5121023","5705992","5732776","5965309","5963805","5966154","5771246","5766041","5802231","NA","5641432","5688746","5800567","5765809","5828040","5766044","NA","5965308","5965309","NA","NA","5963801","NAP perception","41","50095","47","yes","1024"
"87.5","yes","87.5","1064.75","1064.75","white","no","xpyriment","Ich habe die obigen Informationen gelesen und verstanden.","legacy","legacy","0","uniform","1","0","0","undefined","undefined","1","j","2","1","NA","0","1","0","0","0","0","0","0","0","0","57","57","57","0","0","0","NA","0","0","2","0","0","0","2","57","57","57","57","57","Fri Nov  3 11:47:54 2017","Forced-choice identification task with a practice and an experimental phase","yes","NAP_GER_AA_4blocks_noglides.osexp","/Users/aviadalbert/Documents/Academisch/UoC/Dissertation/Experiment/OpenSesame/NAP-FC/NAP_GER_AA_4blocks_noglides","yes","no","sans","no","20","no","black","no","Weiter","yes","768","legacy","47","9","0","/Users/aviadalbert/Documents/Academisch/UoC/Dissertation/Experiment/OpenSesame/NAP-FC/NAP_GER_AA_4blocks_noglides/subject-40.csv","xpyriment","Jazzy James","3.1.9","yes","yes","59a800d99ad5a1025d81bb03","59a801616c613b0251691de0","no","no","0","j","j","space","NA","m","k","j","1013","4301","25282","NA","26780","32962","1013","2","legacy","1024","1","44100","-16","experiment","sefal","2","0","1","0","1","Englisch","40","","even","5828040","5802231","NA","NA","5832342","5828036","NA","5121022","5827572","5121023","5121023","5705992","5732776","5967933","5966429","5968947","5771246","5766041","5802231","NA","5641432","5688746","5800567","5765809","5828040","5766044","NA","5967932","5967932","NA","NA","5966425","NAP perception","42","51108","48","yes","1024"
"87.7551020408","yes","87.7551020408","1059.6122449","1059.6122449","white","no","xpyriment","Ich habe die obigen Informationen gelesen und verstanden.","legacy","legacy","0","uniform","1","0","0","undefined","undefined","1","j","2","1","NA","0","1","0","0","0","0","0","0","0","0","58","58","58","0","0","0","NA","0","0","2","0","0","0","2","58","58","58","58","58","Fri Nov  3 11:47:54 2017","Forced-choice identification task with a practice and an experimental phase","yes","NAP_GER_AA_4blocks_noglides.osexp","/Users/aviadalbert/Documents/Academisch/UoC/Dissertation/Experiment/OpenSesame/NAP-FC/NAP_GER_AA_4blocks_noglides","yes","no","sans","no","20","no","black","no","Weiter","yes","768","legacy","48","9","0","/Users/aviadalbert/Documents/Academisch/UoC/Dissertation/Experiment/OpenSesame/NAP-FC/NAP_GER_AA_4blocks_noglides/subject-40.csv","xpyriment","Jazzy James","3.1.9","yes","yes","59a800d99ad5a1025d81bb03","59a801616c613b0251691de0","no","no","0","j","j","space","NA","m","k","j","813","4301","25282","NA","26780","32962","813","2","legacy","1024","1","44100","-16","experiment","ʃepal","2","0","1","0","1","Englisch","40","","even","5828040","5802231","NA","NA","5832342","5828036","NA","5121022","5827572","5121023","5121023","5705992","5732776","5970735","5969230","5971549","5771246","5766041","5802231","NA","5641432","5688746","5800567","5765809","5828040","5766044","NA","5970735","5970735","NA","NA","5969225","NAP perception","43","51921","49","yes","1024"
"88","yes","88","1060.52","1060.52","white","no","xpyriment","Ich habe die obigen Informationen gelesen und verstanden.","legacy","legacy","0","uniform","1","0","0","undefined","undefined","1","f","2","1","NA","0","1","0","0","0","0","0","0","0","0","59","59","59","0","0","0","NA","0","0","2","0","0","0","2","59","59","59","59","59","Fri Nov  3 11:47:54 2017","Forced-choice identification task with a practice and an experimental phase","yes","NAP_GER_AA_4blocks_noglides.osexp","/Users/aviadalbert/Documents/Academisch/UoC/Dissertation/Experiment/OpenSesame/NAP-FC/NAP_GER_AA_4blocks_noglides","yes","no","sans","no","20","no","black","no","Weiter","yes","768","legacy","49","9","0","/Users/aviadalbert/Documents/Academisch/UoC/Dissertation/Experiment/OpenSesame/NAP-FC/NAP_GER_AA_4blocks_noglides/subject-40.csv","xpyriment","Jazzy James","3.1.9","yes","yes","59a800d99ad5a1025d81bb03","59a801616c613b0251691de0","no","no","0","f","j","space","NA","m","k","f","1105","4301","25282","NA","26780","32962","1105","2","legacy","1024","1","44100","-16","experiment","msal","2","0","1","0","1","Englisch","40","","even","5828040","5802231","NA","NA","5832342","5828036","NA","5121022","5827572","5121023","5121023","5705992","5732776","5973327","5971823","5974434","5771246","5766041","5802231","NA","5641432","5688746","5800567","5765809","5828040","5766044","NA","5973327","5973327","NA","NA","5971819","NAP perception","44","53026","50","yes","1024"
"88.2352941176","yes","88.2352941176","1059.52941176","1059.52941176","white","no","xpyriment","Ich habe die obigen Informationen gelesen und verstanden.","legacy","legacy","0","uniform","1","0","0","undefined","undefined","1","j","2","1","NA","0","1","0","0","0","0","0","0","0","0","60","60","60","0","0","0","NA","0","0","2","0","0","0","2","60","60","60","60","60","Fri Nov  3 11:47:54 2017","Forced-choice identification task with a practice and an experimental phase","yes","NAP_GER_AA_4blocks_noglides.osexp","/Users/aviadalbert/Documents/Academisch/UoC/Dissertation/Experiment/OpenSesame/NAP-FC/NAP_GER_AA_4blocks_noglides","yes","no","sans","no","20","no","black","no","Weiter","yes","768","legacy","50","9","0","/Users/aviadalbert/Documents/Academisch/UoC/Dissertation/Experiment/OpenSesame/NAP-FC/NAP_GER_AA_4blocks_noglides/subject-40.csv","xpyriment","Jazzy James","3.1.9","yes","yes","59a800d99ad5a1025d81bb03","59a801616c613b0251691de0","no","no","0","j","j","space","NA","m","k","j","1010","4301","25282","NA","26780","32962","1010","2","legacy","1024","1","44100","-16","experiment","esmal","2","0","1","0","1","Englisch","40","","even","5828040","5802231","NA","NA","5832342","5828036","NA","5121022","5827572","5121023","5121023","5705992","5732776","5976232","5974728","5977244","5771246","5766041","5802231","NA","5641432","5688746","5800567","5765809","5828040","5766044","NA","5976232","5976232","NA","NA","5974723","NAP perception","45","54036","51","yes","1024"
"88.4615384615","yes","88.4615384615","1064.11538462","1064.11538462","white","no","xpyriment","Ich habe die obigen Informationen gelesen und verstanden.","legacy","legacy","0","uniform","1","0","0","undefined","undefined","1","j","2","1","NA","0","1","0","0","0","0","0","0","0","0","61","61","61","0","0","0","NA","0","0","2","0","0","0","2","61","61","61","61","61","Fri Nov  3 11:47:54 2017","Forced-choice identification task with a practice and an experimental phase","yes","NAP_GER_AA_4blocks_noglides.osexp","/Users/aviadalbert/Documents/Academisch/UoC/Dissertation/Experiment/OpenSesame/NAP-FC/NAP_GER_AA_4blocks_noglides","yes","no","sans","no","20","no","black","no","Weiter","yes","768","legacy","51","9","0","/Users/aviadalbert/Documents/Academisch/UoC/Dissertation/Experiment/OpenSesame/NAP-FC/NAP_GER_AA_4blocks_noglides/subject-40.csv","xpyriment","Jazzy James","3.1.9","yes","yes","59a800d99ad5a1025d81bb03","59a801616c613b0251691de0","no","no","0","j","j","space","NA","m","k","j","1298","4301","25282","NA","26780","32962","1298","2","legacy","1024","1","44100","-16","experiment","felal","2","0","1","0","1","Englisch","40","","even","5828040","5802231","NA","NA","5832342","5828036","NA","5121022","5827572","5121023","5121023","5705992","5732776","5979031","5977527","5980331","5771246","5766041","5802231","NA","5641432","5688746","5800567","5765809","5828040","5766044","NA","5979030","5979030","NA","NA","5977522","NAP perception","46","55334","52","yes","1024"
"88.679245283","yes","88.679245283","1063.35849057","1063.35849057","white","no","xpyriment","Ich habe die obigen Informationen gelesen und verstanden.","legacy","legacy","0","uniform","1","0","0","undefined","undefined","1","j","2","1","NA","0","1","0","0","0","0","0","0","0","0","62","62","62","0","0","0","NA","0","0","2","0","0","0","2","62","62","62","62","62","Fri Nov  3 11:47:54 2017","Forced-choice identification task with a practice and an experimental phase","yes","NAP_GER_AA_4blocks_noglides.osexp","/Users/aviadalbert/Documents/Academisch/UoC/Dissertation/Experiment/OpenSesame/NAP-FC/NAP_GER_AA_4blocks_noglides","yes","no","sans","no","20","no","black","no","Weiter","yes","768","legacy","52","9","0","/Users/aviadalbert/Documents/Academisch/UoC/Dissertation/Experiment/OpenSesame/NAP-FC/NAP_GER_AA_4blocks_noglides/subject-40.csv","xpyriment","Jazzy James","3.1.9","yes","yes","59a800d99ad5a1025d81bb03","59a801616c613b0251691de0","no","no","0","j","j","space","NA","m","k","j","1024","4301","25282","NA","26780","32962","1024","2","legacy","1024","1","44100","-16","experiment","ezval","2","0","1","0","1","Englisch","40","","even","5828040","5802231","NA","NA","5832342","5828036","NA","5121022","5827572","5121023","5121023","5705992","5732776","5982111","5980607","5983137","5771246","5766041","5802231","NA","5641432","5688746","5800567","5765809","5828040","5766044","NA","5982110","5982110","NA","NA","5980603","NAP perception","47","56358","53","yes","1024"
"88.8888888889","yes","88.8888888889","1060.85185185","1060.85185185","white","no","xpyriment","Ich habe die obigen Informationen gelesen und verstanden.","legacy","legacy","0","uniform","1","0","0","undefined","undefined","1","j","2","1","NA","0","1","0","0","0","0","0","0","0","0","63","63","63","0","0","0","NA","0","0","2","0","0","0","2","63","63","63","63","63","Fri Nov  3 11:47:54 2017","Forced-choice identification task with a practice and an experimental phase","yes","NAP_GER_AA_4blocks_noglides.osexp","/Users/aviadalbert/Documents/Academisch/UoC/Dissertation/Experiment/OpenSesame/NAP-FC/NAP_GER_AA_4blocks_noglides","yes","no","sans","no","20","no","black","no","Weiter","yes","768","legacy","53","9","0","/Users/aviadalbert/Documents/Academisch/UoC/Dissertation/Experiment/OpenSesame/NAP-FC/NAP_GER_AA_4blocks_noglides/subject-40.csv","xpyriment","Jazzy James","3.1.9","yes","yes","59a800d99ad5a1025d81bb03","59a801616c613b0251691de0","no","no","0","j","j","space","NA","m","k","j","928","4301","25282","NA","26780","32962","928","2","legacy","1024","1","44100","-16","experiment","enfal","2","0","1","0","1","Englisch","40","","even","5828040","5802231","NA","NA","5832342","5828036","NA","5121022","5827572","5121023","5121023","5705992","5732776","5984923","5983418","5985853","5771246","5766041","5802231","NA","5641432","5688746","5800567","5765809","5828040","5766044","NA","5984923","5984923","NA","NA","5983414","NAP perception","48","57286","54","yes","1024"
"89.0909090909","yes","89.0909090909","1055.30909091","1055.30909091","white","no","xpyriment","Ich habe die obigen Informationen gelesen und verstanden.","legacy","legacy","0","uniform","1","0","0","undefined","undefined","1","j","2","1","NA","0","1","0","0","0","0","0","0","0","0","64","64","64","0","0","0","NA","0","0","2","0","0","0","2","64","64","64","64","64","Fri Nov  3 11:47:54 2017","Forced-choice identification task with a practice and an experimental phase","yes","NAP_GER_AA_4blocks_noglides.osexp","/Users/aviadalbert/Documents/Academisch/UoC/Dissertation/Experiment/OpenSesame/NAP-FC/NAP_GER_AA_4blocks_noglides","yes","no","sans","no","20","no","black","no","Weiter","yes","768","legacy","54","9","0","/Users/aviadalbert/Documents/Academisch/UoC/Dissertation/Experiment/OpenSesame/NAP-FC/NAP_GER_AA_4blocks_noglides/subject-40.csv","xpyriment","Jazzy James","3.1.9","yes","yes","59a800d99ad5a1025d81bb03","59a801616c613b0251691de0","no","no","0","j","j","space","NA","m","k","j","756","4301","25282","NA","26780","32962","756","2","legacy","1024","1","44100","-16","experiment","mesal","2","0","1","0","1","Englisch","40","","even","5828040","5802231","NA","NA","5832342","5828036","NA","5121022","5827572","5121023","5121023","5705992","5732776","5987649","5986143","5988407","5771246","5766041","5802231","NA","5641432","5688746","5800567","5765809","5828040","5766044","NA","5987649","5987649","NA","NA","5986139","NAP perception","49","58042","55","yes","1024"
"89.2857142857","yes","89.2857142857","1056.01785714","1056.01785714","white","no","xpyriment","Ich habe die obigen Informationen gelesen und verstanden.","legacy","legacy","0","uniform","1","0","0","undefined","undefined","1","f","2","1","NA","0","1","0","0","0","0","0","0","0","0","65","65","65","0","0","0","NA","0","0","2","0","0","0","2","65","65","65","65","65","Fri Nov  3 11:47:54 2017","Forced-choice identification task with a practice and an experimental phase","yes","NAP_GER_AA_4blocks_noglides.osexp","/Users/aviadalbert/Documents/Academisch/UoC/Dissertation/Experiment/OpenSesame/NAP-FC/NAP_GER_AA_4blocks_noglides","yes","no","sans","no","20","no","black","no","Weiter","yes","768","legacy","55","9","0","/Users/aviadalbert/Documents/Academisch/UoC/Dissertation/Experiment/OpenSesame/NAP-FC/NAP_GER_AA_4blocks_noglides/subject-40.csv","xpyriment","Jazzy James","3.1.9","yes","yes","59a800d99ad5a1025d81bb03","59a801616c613b0251691de0","no","no","0","f","j","space","NA","m","k","f","1095","4301","25282","NA","26780","32962","1095","2","legacy","1024","1","44100","-16","experiment","vzal","2","0","1","0","1","Englisch","40","","even","5828040","5802231","NA","NA","5832342","5828036","NA","5121022","5827572","5121023","5121023","5705992","5732776","5990193","5988689","5991289","5771246","5766041","5802231","NA","5641432","5688746","5800567","5765809","5828040","5766044","NA","5990192","5990192","NA","NA","5988685","NAP perception","50","59137","56","yes","1024"
