"acc","accept_status","accuracy","average_response_time","avg_rt","background","bidi","canvas_backend","checkbox_status","clock_backend","color_backend","compensation","coordinates","correct","correct_block_activation","correct_block_exit","correct_instructions_1","correct_instructions_2","correct_keyboard_response","correct_response","count_block_activation","count_block_exit","count_block_info_QA","count_cont_e_block_message","count_e_block_loop","count_e_block_sequence","count_end_of_experiment","count_experiment","count_experimental_loop","count_form_consent","count_info_forms","count_instructions_1","count_instructions_2","count_keyboard_response","count_listen_message","count_logger","count_p_block_loop","count_p_block_sequence","count_p_feedback","count_pause_feedback","count_personal_details_form_1","count_personal_details_form_2","count_post_loop_blank","count_practice_loop","count_pre_e_block_message","count_pre_p_block_message","count_reset_feedback","count_stimulus_image","count_stimulus_sound","count_timeout_message","count_timeout_sound","count_trial_sequence","datetime","description","disable_garbage_collection","experiment_file","experiment_path","expyriment_opengl","font_bold","font_family","font_italic","font_size","font_underline","foreground","form_clicks","form_response","fullscreen","height","keyboard_backend","live_row","live_row_p_block_loop","live_row_practice_loop","logfile","mouse_backend","opensesame_codename","opensesame_version","osf_always_upload_data","osf_always_upload_experiment","osf_datanode_id","osf_id","practice","pygame_doublebuf","repeat_cycle","response","response_block_activation","response_block_exit","response_block_info_QA","response_instructions_1","response_instructions_2","response_keyboard_response","response_time","response_time_block_activation","response_time_block_exit","response_time_block_info_QA","response_time_instructions_1","response_time_instructions_2","response_time_keyboard_response","round_decimals","sampler_backend","sound_buf_size","sound_channels","sound_freq","sound_sample_size","start","stimulus","subject_age","subject_education","subject_gender","subject_german_native","subject_handedness","subject_language_other","subject_nr","subject_other_native_lang","subject_parity","time_block_activation","time_block_exit","time_block_info_QA","time_cont_e_block_message","time_e_block_loop","time_e_block_sequence","time_end_of_experiment","time_experiment","time_experimental_loop","time_form_consent","time_info_forms","time_instructions_1","time_instructions_2","time_keyboard_response","time_listen_message","time_logger","time_p_block_loop","time_p_block_sequence","time_p_feedback","time_pause_feedback","time_personal_details_form_1","time_personal_details_form_2","time_post_loop_blank","time_practice_loop","time_pre_e_block_message","time_pre_p_block_message","time_reset_feedback","time_stimulus_image","time_stimulus_sound","time_timeout_message","time_timeout_sound","time_trial_sequence","title","total_correct","total_response_time","total_responses","uniform_coordinates","width"
"100","yes","100","1424","1424","white","no","xpyriment","Ich habe die obigen Informationen gelesen und verstanden.","legacy","legacy","0","uniform","1","0","NA","undefined","undefined","1","f","0","0","NA","NA","NA","NA","NA","0","0","0","0","0","0","0","0","0","0","0","NA","NA","0","0","0","0","NA","0","0","0","0","0","0","0","Wed Oct  4 20:44:21 2017","Forced-choice identification task with a practice and an experimental phase","yes","NAP_GER_AA_4blocks_noglides.osexp","/Users/aviadalbert/Documents/Academisch/UoC/Dissertation/Experiment/OpenSesame/NAP-FC/NAP_GER_AA_4blocks_noglides","yes","no","sans","no","20","no","black","no","Weiter","yes","768","legacy","0","0","0","/Users/aviadalbert/Documents/Academisch/UoC/Dissertation/Experiment/OpenSesame/NAP-FC/NAP_GER_AA_4blocks_noglides/subject-8.csv","xpyriment","Jazzy James","3.1.9","yes","yes","59a800d99ad5a1025d81bb03","59a801616c613b0251691de0","yes","no","0","f","f","NA","NA","return","space","f","1424","22465","NA","NA","28491","22800","1424","2","legacy","1024","1","44100","-16","experiment","flal","4","0","1","0","1","italienisch, englisch, franzoesisch","8","","even","577262","NA","NA","NA","NA","NA","NA","1650","NA","1650","1650","525641","554137","601438","599934","602863","599728","577258","NA","NA","440777","505428","NA","577004","NA","577262","NA","601437","601437","NA","NA","599931","NAP perception","1","1424","1","yes","1024"
"100","yes","100","1322","1322","white","no","xpyriment","Ich habe die obigen Informationen gelesen und verstanden.","legacy","legacy","0","uniform","1","0","NA","undefined","undefined","1","j","0","0","NA","NA","NA","NA","NA","0","0","0","0","0","0","1","1","1","0","0","NA","NA","0","0","0","0","NA","0","0","1","1","1","1","1","Wed Oct  4 20:44:21 2017","Forced-choice identification task with a practice and an experimental phase","yes","NAP_GER_AA_4blocks_noglides.osexp","/Users/aviadalbert/Documents/Academisch/UoC/Dissertation/Experiment/OpenSesame/NAP-FC/NAP_GER_AA_4blocks_noglides","yes","no","sans","no","20","no","black","no","Weiter","yes","768","legacy","1","1","0","/Users/aviadalbert/Documents/Academisch/UoC/Dissertation/Experiment/OpenSesame/NAP-FC/NAP_GER_AA_4blocks_noglides/subject-8.csv","xpyriment","Jazzy James","3.1.9","yes","yes","59a800d99ad5a1025d81bb03","59a801616c613b0251691de0","yes","no","0","j","f","NA","NA","return","space","j","1220","22465","NA","NA","28491","22800","1220","2","legacy","1024","1","44100","-16","experiment","lepal","4","0","1","0","1","italienisch, englisch, franzoesisch","8","","even","577262","NA","NA","NA","NA","NA","NA","1650","NA","1650","1650","525641","554137","604648","603141","605869","599728","577258","NA","NA","440777","505428","NA","577004","NA","577262","NA","604647","604647","NA","NA","603137","NAP perception","2","2644","2","yes","1024"
"100","yes","100","1224.33333333","1224.33333333","white","no","xpyriment","Ich habe die obigen Informationen gelesen und verstanden.","legacy","legacy","0","uniform","1","0","NA","undefined","undefined","1","j","0","0","NA","NA","NA","NA","NA","0","0","0","0","0","0","2","2","2","0","0","NA","NA","0","0","0","0","NA","0","0","2","2","2","2","2","Wed Oct  4 20:44:21 2017","Forced-choice identification task with a practice and an experimental phase","yes","NAP_GER_AA_4blocks_noglides.osexp","/Users/aviadalbert/Documents/Academisch/UoC/Dissertation/Experiment/OpenSesame/NAP-FC/NAP_GER_AA_4blocks_noglides","yes","no","sans","no","20","no","black","no","Weiter","yes","768","legacy","2","2","0","/Users/aviadalbert/Documents/Academisch/UoC/Dissertation/Experiment/OpenSesame/NAP-FC/NAP_GER_AA_4blocks_noglides/subject-8.csv","xpyriment","Jazzy James","3.1.9","yes","yes","59a800d99ad5a1025d81bb03","59a801616c613b0251691de0","yes","no","0","j","f","NA","NA","return","space","j","1029","22465","NA","NA","28491","22800","1029","2","legacy","1024","1","44100","-16","experiment","emtal","4","0","1","0","1","italienisch, englisch, franzoesisch","8","","even","577262","NA","NA","NA","NA","NA","NA","1650","NA","1650","1650","525641","554137","607651","606144","608681","599728","577258","NA","NA","440777","505428","NA","577004","NA","577262","NA","607651","607651","NA","NA","606140","NAP perception","3","3673","3","yes","1024"
"100","yes","100","1209.25","1209.25","white","no","xpyriment","Ich habe die obigen Informationen gelesen und verstanden.","legacy","legacy","0","uniform","1","0","NA","undefined","undefined","1","f","0","0","NA","NA","NA","NA","NA","0","0","0","0","0","0","3","3","3","0","0","NA","NA","0","0","0","0","NA","0","0","3","3","3","3","3","Wed Oct  4 20:44:21 2017","Forced-choice identification task with a practice and an experimental phase","yes","NAP_GER_AA_4blocks_noglides.osexp","/Users/aviadalbert/Documents/Academisch/UoC/Dissertation/Experiment/OpenSesame/NAP-FC/NAP_GER_AA_4blocks_noglides","yes","no","sans","no","20","no","black","no","Weiter","yes","768","legacy","3","3","0","/Users/aviadalbert/Documents/Academisch/UoC/Dissertation/Experiment/OpenSesame/NAP-FC/NAP_GER_AA_4blocks_noglides/subject-8.csv","xpyriment","Jazzy James","3.1.9","yes","yes","59a800d99ad5a1025d81bb03","59a801616c613b0251691de0","yes","no","0","f","f","NA","NA","return","space","f","1164","22465","NA","NA","28491","22800","1164","2","legacy","1024","1","44100","-16","experiment","ʃpal","4","0","1","0","1","italienisch, englisch, franzoesisch","8","","even","577262","NA","NA","NA","NA","NA","NA","1650","NA","1650","1650","525641","554137","610447","608943","611612","599728","577258","NA","NA","440777","505428","NA","577004","NA","577262","NA","610446","610446","NA","NA","608939","NAP perception","4","4837","4","yes","1024"
"100","yes","100","1225.2","1225.2","white","no","xpyriment","Ich habe die obigen Informationen gelesen und verstanden.","legacy","legacy","0","uniform","1","0","NA","undefined","undefined","1","j","0","0","NA","NA","NA","NA","NA","0","0","0","0","0","0","4","4","4","0","0","NA","NA","0","0","0","0","NA","0","0","4","4","4","4","4","Wed Oct  4 20:44:21 2017","Forced-choice identification task with a practice and an experimental phase","yes","NAP_GER_AA_4blocks_noglides.osexp","/Users/aviadalbert/Documents/Academisch/UoC/Dissertation/Experiment/OpenSesame/NAP-FC/NAP_GER_AA_4blocks_noglides","yes","no","sans","no","20","no","black","no","Weiter","yes","768","legacy","4","4","0","/Users/aviadalbert/Documents/Academisch/UoC/Dissertation/Experiment/OpenSesame/NAP-FC/NAP_GER_AA_4blocks_noglides/subject-8.csv","xpyriment","Jazzy James","3.1.9","yes","yes","59a800d99ad5a1025d81bb03","59a801616c613b0251691de0","yes","no","0","j","f","NA","NA","return","space","j","1289","22465","NA","NA","28491","22800","1289","2","legacy","1024","1","44100","-16","experiment","nefal","4","0","1","0","1","italienisch, englisch, franzoesisch","8","","even","577262","NA","NA","NA","NA","NA","NA","1650","NA","1650","1650","525641","554137","613376","611872","614667","599728","577258","NA","NA","440777","505428","NA","577004","NA","577262","NA","613376","613376","NA","NA","611867","NAP perception","5","6126","5","yes","1024"
"100","yes","100","1312.33333333","1312.33333333","white","no","xpyriment","Ich habe die obigen Informationen gelesen und verstanden.","legacy","legacy","0","uniform","1","0","NA","undefined","undefined","1","f","0","0","NA","NA","NA","NA","NA","0","0","0","0","0","0","5","5","5","0","0","NA","NA","0","0","0","0","NA","0","0","5","5","5","5","5","Wed Oct  4 20:44:21 2017","Forced-choice identification task with a practice and an experimental phase","yes","NAP_GER_AA_4blocks_noglides.osexp","/Users/aviadalbert/Documents/Academisch/UoC/Dissertation/Experiment/OpenSesame/NAP-FC/NAP_GER_AA_4blocks_noglides","yes","no","sans","no","20","no","black","no","Weiter","yes","768","legacy","5","5","0","/Users/aviadalbert/Documents/Academisch/UoC/Dissertation/Experiment/OpenSesame/NAP-FC/NAP_GER_AA_4blocks_noglides/subject-8.csv","xpyriment","Jazzy James","3.1.9","yes","yes","59a800d99ad5a1025d81bb03","59a801616c613b0251691de0","yes","no","0","f","f","NA","NA","return","space","f","1748","22465","NA","NA","28491","22800","1748","2","legacy","1024","1","44100","-16","experiment","sfal","4","0","1","0","1","italienisch, englisch, franzoesisch","8","","even","577262","NA","NA","NA","NA","NA","NA","1650","NA","1650","1650","525641","554137","616444","614936","618193","599728","577258","NA","NA","440777","505428","NA","577004","NA","577262","NA","616444","616444","NA","NA","614932","NAP perception","6","7874","6","yes","1024"
"100","yes","100","1256.28571429","1256.28571429","white","no","xpyriment","Ich habe die obigen Informationen gelesen und verstanden.","legacy","legacy","0","uniform","1","0","NA","undefined","undefined","1","f","0","0","NA","NA","NA","NA","NA","0","0","0","0","0","0","6","6","6","0","0","NA","NA","0","0","0","0","NA","0","0","6","6","6","6","6","Wed Oct  4 20:44:21 2017","Forced-choice identification task with a practice and an experimental phase","yes","NAP_GER_AA_4blocks_noglides.osexp","/Users/aviadalbert/Documents/Academisch/UoC/Dissertation/Experiment/OpenSesame/NAP-FC/NAP_GER_AA_4blocks_noglides","yes","no","sans","no","20","no","black","no","Weiter","yes","768","legacy","6","6","0","/Users/aviadalbert/Documents/Academisch/UoC/Dissertation/Experiment/OpenSesame/NAP-FC/NAP_GER_AA_4blocks_noglides/subject-8.csv","xpyriment","Jazzy James","3.1.9","yes","yes","59a800d99ad5a1025d81bb03","59a801616c613b0251691de0","yes","no","0","f","f","NA","NA","return","space","f","920","22465","NA","NA","28491","22800","920","2","legacy","1024","1","44100","-16","experiment","zmal","4","0","1","0","1","italienisch, englisch, franzoesisch","8","","even","577262","NA","NA","NA","NA","NA","NA","1650","NA","1650","1650","525641","554137","619967","618463","620889","599728","577258","NA","NA","440777","505428","NA","577004","NA","577262","NA","619966","619966","NA","NA","618458","NAP perception","7","8794","7","yes","1024"
"100","yes","100","1216.125","1216.125","white","no","xpyriment","Ich habe die obigen Informationen gelesen und verstanden.","legacy","legacy","0","uniform","1","0","NA","undefined","undefined","1","j","0","0","NA","NA","NA","NA","NA","0","0","0","0","0","0","7","7","7","0","0","NA","NA","0","0","0","0","NA","0","0","7","7","7","7","7","Wed Oct  4 20:44:21 2017","Forced-choice identification task with a practice and an experimental phase","yes","NAP_GER_AA_4blocks_noglides.osexp","/Users/aviadalbert/Documents/Academisch/UoC/Dissertation/Experiment/OpenSesame/NAP-FC/NAP_GER_AA_4blocks_noglides","yes","no","sans","no","20","no","black","no","Weiter","yes","768","legacy","7","7","0","/Users/aviadalbert/Documents/Academisch/UoC/Dissertation/Experiment/OpenSesame/NAP-FC/NAP_GER_AA_4blocks_noglides/subject-8.csv","xpyriment","Jazzy James","3.1.9","yes","yes","59a800d99ad5a1025d81bb03","59a801616c613b0251691de0","yes","no","0","j","f","NA","NA","return","space","j","935","22465","NA","NA","28491","22800","935","2","legacy","1024","1","44100","-16","experiment","mesal","4","0","1","0","1","italienisch, englisch, franzoesisch","8","","even","577262","NA","NA","NA","NA","NA","NA","1650","NA","1650","1650","525641","554137","622663","621159","623599","599728","577258","NA","NA","440777","505428","NA","577004","NA","577262","NA","622663","622663","NA","NA","621155","NAP perception","8","9729","8","yes","1024"
"100","yes","100","1180.88888889","1180.88888889","white","no","xpyriment","Ich habe die obigen Informationen gelesen und verstanden.","legacy","legacy","0","uniform","1","0","NA","undefined","undefined","1","j","0","0","NA","NA","NA","NA","NA","0","0","0","0","0","0","8","8","8","0","0","NA","NA","0","0","0","0","NA","0","0","8","8","8","8","8","Wed Oct  4 20:44:21 2017","Forced-choice identification task with a practice and an experimental phase","yes","NAP_GER_AA_4blocks_noglides.osexp","/Users/aviadalbert/Documents/Academisch/UoC/Dissertation/Experiment/OpenSesame/NAP-FC/NAP_GER_AA_4blocks_noglides","yes","no","sans","no","20","no","black","no","Weiter","yes","768","legacy","8","8","0","/Users/aviadalbert/Documents/Academisch/UoC/Dissertation/Experiment/OpenSesame/NAP-FC/NAP_GER_AA_4blocks_noglides/subject-8.csv","xpyriment","Jazzy James","3.1.9","yes","yes","59a800d99ad5a1025d81bb03","59a801616c613b0251691de0","yes","no","0","j","f","NA","NA","return","space","j","899","22465","NA","NA","28491","22800","899","2","legacy","1024","1","44100","-16","experiment","enval","4","0","1","0","1","italienisch, englisch, franzoesisch","8","","even","577262","NA","NA","NA","NA","NA","NA","1650","NA","1650","1650","525641","554137","625375","623871","626275","599728","577258","NA","NA","440777","505428","NA","577004","NA","577262","NA","625374","625375","NA","NA","623866","NAP perception","9","10628","9","yes","1024"
"100","yes","100","1196.5","1196.5","white","no","xpyriment","Ich habe die obigen Informationen gelesen und verstanden.","legacy","legacy","0","uniform","1","0","NA","undefined","undefined","1","f","0","0","NA","NA","NA","NA","NA","0","0","0","0","0","0","9","9","9","0","0","NA","NA","0","0","0","0","NA","0","0","9","9","9","9","9","Wed Oct  4 20:44:21 2017","Forced-choice identification task with a practice and an experimental phase","yes","NAP_GER_AA_4blocks_noglides.osexp","/Users/aviadalbert/Documents/Academisch/UoC/Dissertation/Experiment/OpenSesame/NAP-FC/NAP_GER_AA_4blocks_noglides","yes","no","sans","no","20","no","black","no","Weiter","yes","768","legacy","9","9","0","/Users/aviadalbert/Documents/Academisch/UoC/Dissertation/Experiment/OpenSesame/NAP-FC/NAP_GER_AA_4blocks_noglides/subject-8.csv","xpyriment","Jazzy James","3.1.9","yes","yes","59a800d99ad5a1025d81bb03","59a801616c613b0251691de0","yes","no","0","f","f","NA","NA","return","space","f","1337","22465","NA","NA","28491","22800","1337","2","legacy","1024","1","44100","-16","experiment","vlal","4","0","1","0","1","italienisch, englisch, franzoesisch","8","","even","577262","NA","NA","NA","NA","NA","NA","1650","NA","1650","1650","525641","554137","628050","626546","629388","599728","577258","NA","NA","440777","505428","NA","577004","NA","577262","NA","628050","628050","NA","NA","626542","NAP perception","10","11965","10","yes","1024"
"100","yes","100","2414","2414","white","no","xpyriment","Ich habe die obigen Informationen gelesen und verstanden.","legacy","legacy","0","uniform","1","0","0","undefined","undefined","1","f","2","1","NA","0","1","0","0","0","0","0","0","0","0","10","10","10","0","0","0","NA","0","0","2","0","0","0","2","10","10","10","10","10","Wed Oct  4 20:44:21 2017","Forced-choice identification task with a practice and an experimental phase","yes","NAP_GER_AA_4blocks_noglides.osexp","/Users/aviadalbert/Documents/Academisch/UoC/Dissertation/Experiment/OpenSesame/NAP-FC/NAP_GER_AA_4blocks_noglides","yes","no","sans","no","20","no","black","no","Weiter","yes","768","legacy","0","9","0","/Users/aviadalbert/Documents/Academisch/UoC/Dissertation/Experiment/OpenSesame/NAP-FC/NAP_GER_AA_4blocks_noglides/subject-8.csv","xpyriment","Jazzy James","3.1.9","yes","yes","59a800d99ad5a1025d81bb03","59a801616c613b0251691de0","no","no","0","f","f","space","NA","return","space","f","2414","3221","25183","NA","28491","22800","2414","2","legacy","1024","1","44100","-16","experiment","ʃmal","4","0","1","0","1","italienisch, englisch, franzoesisch","8","","even","656817","631106","NA","NA","660039","656813","NA","1650","656345","1650","1650","525641","554137","661756","660252","664171","599728","577258","631105","NA","440777","505428","629453","577004","656817","577262","NA","661755","661756","NA","NA","660249","NAP perception","1","2414","1","yes","1024"
"100","yes","100","1733","1733","white","no","xpyriment","Ich habe die obigen Informationen gelesen und verstanden.","legacy","legacy","0","uniform","1","0","0","undefined","undefined","1","f","2","1","NA","0","1","0","0","0","0","0","0","0","0","11","11","11","0","0","0","NA","0","0","2","0","0","0","2","11","11","11","11","11","Wed Oct  4 20:44:21 2017","Forced-choice identification task with a practice and an experimental phase","yes","NAP_GER_AA_4blocks_noglides.osexp","/Users/aviadalbert/Documents/Academisch/UoC/Dissertation/Experiment/OpenSesame/NAP-FC/NAP_GER_AA_4blocks_noglides","yes","no","sans","no","20","no","black","no","Weiter","yes","768","legacy","1","9","0","/Users/aviadalbert/Documents/Academisch/UoC/Dissertation/Experiment/OpenSesame/NAP-FC/NAP_GER_AA_4blocks_noglides/subject-8.csv","xpyriment","Jazzy James","3.1.9","yes","yes","59a800d99ad5a1025d81bb03","59a801616c613b0251691de0","no","no","0","f","f","space","NA","return","space","f","1052","3221","25183","NA","28491","22800","1052","2","legacy","1024","1","44100","-16","experiment","fnal","4","0","1","0","1","italienisch, englisch, franzoesisch","8","","even","656817","631106","NA","NA","660039","656813","NA","1650","656345","1650","1650","525641","554137","665964","664461","667017","599728","577258","631105","NA","440777","505428","629453","577004","656817","577262","NA","665964","665964","NA","NA","664457","NAP perception","2","3466","2","yes","1024"
"66.6666666667","yes","66.6666666667","1529","1529","white","no","xpyriment","Ich habe die obigen Informationen gelesen und verstanden.","legacy","legacy","0","uniform","0","0","0","undefined","undefined","0","f","2","1","NA","0","1","0","0","0","0","0","0","0","0","12","12","12","0","0","0","NA","0","0","2","0","0","0","2","12","12","12","12","12","Wed Oct  4 20:44:21 2017","Forced-choice identification task with a practice and an experimental phase","yes","NAP_GER_AA_4blocks_noglides.osexp","/Users/aviadalbert/Documents/Academisch/UoC/Dissertation/Experiment/OpenSesame/NAP-FC/NAP_GER_AA_4blocks_noglides","yes","no","sans","no","20","no","black","no","Weiter","yes","768","legacy","2","9","0","/Users/aviadalbert/Documents/Academisch/UoC/Dissertation/Experiment/OpenSesame/NAP-FC/NAP_GER_AA_4blocks_noglides/subject-8.csv","xpyriment","Jazzy James","3.1.9","yes","yes","59a800d99ad5a1025d81bb03","59a801616c613b0251691de0","no","no","0","j","f","space","NA","return","space","j","1121","3221","25183","NA","28491","22800","1121","2","legacy","1024","1","44100","-16","experiment","msal","4","0","1","0","1","italienisch, englisch, franzoesisch","8","","even","656817","631106","NA","NA","660039","656813","NA","1650","656345","1650","1650","525641","554137","668796","667289","669918","599728","577258","631105","NA","440777","505428","629453","577004","656817","577262","NA","668796","668796","NA","NA","667285","NAP perception","2","4587","3","yes","1024"
"50","yes","50","1523","1523","white","no","xpyriment","Ich habe die obigen Informationen gelesen und verstanden.","legacy","legacy","0","uniform","0","0","0","undefined","undefined","0","f","2","1","NA","0","1","0","0","0","0","0","0","0","0","13","13","13","0","0","0","NA","0","0","2","0","0","0","2","13","13","13","13","13","Wed Oct  4 20:44:21 2017","Forced-choice identification task with a practice and an experimental phase","yes","NAP_GER_AA_4blocks_noglides.osexp","/Users/aviadalbert/Documents/Academisch/UoC/Dissertation/Experiment/OpenSesame/NAP-FC/NAP_GER_AA_4blocks_noglides","yes","no","sans","no","20","no","black","no","Weiter","yes","768","legacy","3","9","0","/Users/aviadalbert/Documents/Academisch/UoC/Dissertation/Experiment/OpenSesame/NAP-FC/NAP_GER_AA_4blocks_noglides/subject-8.csv","xpyriment","Jazzy James","3.1.9","yes","yes","59a800d99ad5a1025d81bb03","59a801616c613b0251691de0","no","no","0","j","f","space","NA","return","space","j","1505","3221","25183","NA","28491","22800","1505","2","legacy","1024","1","44100","-16","experiment","nval","4","0","1","0","1","italienisch, englisch, franzoesisch","8","","even","656817","631106","NA","NA","660039","656813","NA","1650","656345","1650","1650","525641","554137","671705","670201","673211","599728","577258","631105","NA","440777","505428","629453","577004","656817","577262","NA","671705","671705","NA","NA","670197","NAP perception","2","6092","4","yes","1024"
"60","yes","60","1425.4","1425.4","white","no","xpyriment","Ich habe die obigen Informationen gelesen und verstanden.","legacy","legacy","0","uniform","1","0","0","undefined","undefined","1","j","2","1","NA","0","1","0","0","0","0","0","0","0","0","14","14","14","0","0","0","NA","0","0","2","0","0","0","2","14","14","14","14","14","Wed Oct  4 20:44:21 2017","Forced-choice identification task with a practice and an experimental phase","yes","NAP_GER_AA_4blocks_noglides.osexp","/Users/aviadalbert/Documents/Academisch/UoC/Dissertation/Experiment/OpenSesame/NAP-FC/NAP_GER_AA_4blocks_noglides","yes","no","sans","no","20","no","black","no","Weiter","yes","768","legacy","4","9","0","/Users/aviadalbert/Documents/Academisch/UoC/Dissertation/Experiment/OpenSesame/NAP-FC/NAP_GER_AA_4blocks_noglides/subject-8.csv","xpyriment","Jazzy James","3.1.9","yes","yes","59a800d99ad5a1025d81bb03","59a801616c613b0251691de0","no","no","0","j","f","space","NA","return","space","j","1035","3221","25183","NA","28491","22800","1035","2","legacy","1024","1","44100","-16","experiment","zeval","4","0","1","0","1","italienisch, englisch, franzoesisch","8","","even","656817","631106","NA","NA","660039","656813","NA","1650","656345","1650","1650","525641","554137","675002","673499","676038","599728","577258","631105","NA","440777","505428","629453","577004","656817","577262","NA","675001","675001","NA","NA","673495","NAP perception","3","7127","5","yes","1024"
"66.6666666667","yes","66.6666666667","1329.83333333","1329.83333333","white","no","xpyriment","Ich habe die obigen Informationen gelesen und verstanden.","legacy","legacy","0","uniform","1","0","0","undefined","undefined","1","f","2","1","NA","0","1","0","0","0","0","0","0","0","0","15","15","15","0","0","0","NA","0","0","2","0","0","0","2","15","15","15","15","15","Wed Oct  4 20:44:21 2017","Forced-choice identification task with a practice and an experimental phase","yes","NAP_GER_AA_4blocks_noglides.osexp","/Users/aviadalbert/Documents/Academisch/UoC/Dissertation/Experiment/OpenSesame/NAP-FC/NAP_GER_AA_4blocks_noglides","yes","no","sans","no","20","no","black","no","Weiter","yes","768","legacy","5","9","0","/Users/aviadalbert/Documents/Academisch/UoC/Dissertation/Experiment/OpenSesame/NAP-FC/NAP_GER_AA_4blocks_noglides/subject-8.csv","xpyriment","Jazzy James","3.1.9","yes","yes","59a800d99ad5a1025d81bb03","59a801616c613b0251691de0","no","no","0","f","f","space","NA","return","space","f","852","3221","25183","NA","28491","22800","852","2","legacy","1024","1","44100","-16","experiment","zval","4","0","1","0","1","italienisch, englisch, franzoesisch","8","","even","656817","631106","NA","NA","660039","656813","NA","1650","656345","1650","1650","525641","554137","677813","676308","678666","599728","577258","631105","NA","440777","505428","629453","577004","656817","577262","NA","677812","677812","NA","NA","676304","NAP perception","4","7979","6","yes","1024"
"71.4285714286","yes","71.4285714286","1266.14285714","1266.14285714","white","no","xpyriment","Ich habe die obigen Informationen gelesen und verstanden.","legacy","legacy","0","uniform","1","0","0","undefined","undefined","1","j","2","1","NA","0","1","0","0","0","0","0","0","0","0","16","16","16","0","0","0","NA","0","0","2","0","0","0","2","16","16","16","16","16","Wed Oct  4 20:44:21 2017","Forced-choice identification task with a practice and an experimental phase","yes","NAP_GER_AA_4blocks_noglides.osexp","/Users/aviadalbert/Documents/Academisch/UoC/Dissertation/Experiment/OpenSesame/NAP-FC/NAP_GER_AA_4blocks_noglides","yes","no","sans","no","20","no","black","no","Weiter","yes","768","legacy","6","9","0","/Users/aviadalbert/Documents/Academisch/UoC/Dissertation/Experiment/OpenSesame/NAP-FC/NAP_GER_AA_4blocks_noglides/subject-8.csv","xpyriment","Jazzy James","3.1.9","yes","yes","59a800d99ad5a1025d81bb03","59a801616c613b0251691de0","no","no","0","j","f","space","NA","return","space","j","884","3221","25183","NA","28491","22800","884","2","legacy","1024","1","44100","-16","experiment","enval","4","0","1","0","1","italienisch, englisch, franzoesisch","8","","even","656817","631106","NA","NA","660039","656813","NA","1650","656345","1650","1650","525641","554137","680430","678925","681315","599728","577258","631105","NA","440777","505428","629453","577004","656817","577262","NA","680430","680430","NA","NA","678921","NAP perception","5","8863","7","yes","1024"
"75","yes","75","1299","1299","white","no","xpyriment","Ich habe die obigen Informationen gelesen und verstanden.","legacy","legacy","0","uniform","1","0","0","undefined","undefined","1","j","2","1","NA","0","1","0","0","0","0","0","0","0","0","17","17","17","0","0","0","NA","0","0","2","0","0","0","2","17","17","17","17","17","Wed Oct  4 20:44:21 2017","Forced-choice identification task with a practice and an experimental phase","yes","NAP_GER_AA_4blocks_noglides.osexp","/Users/aviadalbert/Documents/Academisch/UoC/Dissertation/Experiment/OpenSesame/NAP-FC/NAP_GER_AA_4blocks_noglides","yes","no","sans","no","20","no","black","no","Weiter","yes","768","legacy","7","9","0","/Users/aviadalbert/Documents/Academisch/UoC/Dissertation/Experiment/OpenSesame/NAP-FC/NAP_GER_AA_4blocks_noglides/subject-8.csv","xpyriment","Jazzy James","3.1.9","yes","yes","59a800d99ad5a1025d81bb03","59a801616c613b0251691de0","no","no","0","j","f","space","NA","return","space","j","1529","3221","25183","NA","28491","22800","1529","2","legacy","1024","1","44100","-16","experiment","ezmal","4","0","1","0","1","italienisch, englisch, franzoesisch","8","","even","656817","631106","NA","NA","660039","656813","NA","1650","656345","1650","1650","525641","554137","683090","681586","684620","599728","577258","631105","NA","440777","505428","629453","577004","656817","577262","NA","683089","683089","NA","NA","681581","NAP perception","6","10392","8","yes","1024"
"77.7777777778","yes","77.7777777778","1263.55555556","1263.55555556","white","no","xpyriment","Ich habe die obigen Informationen gelesen und verstanden.","legacy","legacy","0","uniform","1","0","0","undefined","undefined","1","f","2","1","NA","0","1","0","0","0","0","0","0","0","0","18","18","18","0","0","0","NA","0","0","2","0","0","0","2","18","18","18","18","18","Wed Oct  4 20:44:21 2017","Forced-choice identification task with a practice and an experimental phase","yes","NAP_GER_AA_4blocks_noglides.osexp","/Users/aviadalbert/Documents/Academisch/UoC/Dissertation/Experiment/OpenSesame/NAP-FC/NAP_GER_AA_4blocks_noglides","yes","no","sans","no","20","no","black","no","Weiter","yes","768","legacy","8","9","0","/Users/aviadalbert/Documents/Academisch/UoC/Dissertation/Experiment/OpenSesame/NAP-FC/NAP_GER_AA_4blocks_noglides/subject-8.csv","xpyriment","Jazzy James","3.1.9","yes","yes","59a800d99ad5a1025d81bb03","59a801616c613b0251691de0","no","no","0","f","f","space","NA","return","space","f","980","3221","25183","NA","28491","22800","980","2","legacy","1024","1","44100","-16","experiment","flal","4","0","1","0","1","italienisch, englisch, franzoesisch","8","","even","656817","631106","NA","NA","660039","656813","NA","1650","656345","1650","1650","525641","554137","686402","684895","687384","599728","577258","631105","NA","440777","505428","629453","577004","656817","577262","NA","686402","686402","NA","NA","684891","NAP perception","7","11372","9","yes","1024"
"70","yes","70","1290.2","1290.2","white","no","xpyriment","Ich habe die obigen Informationen gelesen und verstanden.","legacy","legacy","0","uniform","0","0","0","undefined","undefined","0","f","2","1","NA","0","1","0","0","0","0","0","0","0","0","19","19","19","0","0","0","NA","0","0","2","0","0","0","2","19","19","19","19","19","Wed Oct  4 20:44:21 2017","Forced-choice identification task with a practice and an experimental phase","yes","NAP_GER_AA_4blocks_noglides.osexp","/Users/aviadalbert/Documents/Academisch/UoC/Dissertation/Experiment/OpenSesame/NAP-FC/NAP_GER_AA_4blocks_noglides","yes","no","sans","no","20","no","black","no","Weiter","yes","768","legacy","9","9","0","/Users/aviadalbert/Documents/Academisch/UoC/Dissertation/Experiment/OpenSesame/NAP-FC/NAP_GER_AA_4blocks_noglides/subject-8.csv","xpyriment","Jazzy James","3.1.9","yes","yes","59a800d99ad5a1025d81bb03","59a801616c613b0251691de0","no","no","0","j","f","space","NA","return","space","j","1530","3221","25183","NA","28491","22800","1530","2","legacy","1024","1","44100","-16","experiment","lfal","4","0","1","0","1","italienisch, englisch, franzoesisch","8","","even","656817","631106","NA","NA","660039","656813","NA","1650","656345","1650","1650","525641","554137","689161","687655","690692","599728","577258","631105","NA","440777","505428","629453","577004","656817","577262","NA","689161","689161","NA","NA","687650","NAP perception","7","12902","10","yes","1024"
"72.7272727273","yes","72.7272727273","1252.45454545","1252.45454545","white","no","xpyriment","Ich habe die obigen Informationen gelesen und verstanden.","legacy","legacy","0","uniform","1","0","0","undefined","undefined","1","f","2","1","NA","0","1","0","0","0","0","0","0","0","0","20","20","20","0","0","0","NA","0","0","2","0","0","0","2","20","20","20","20","20","Wed Oct  4 20:44:21 2017","Forced-choice identification task with a practice and an experimental phase","yes","NAP_GER_AA_4blocks_noglides.osexp","/Users/aviadalbert/Documents/Academisch/UoC/Dissertation/Experiment/OpenSesame/NAP-FC/NAP_GER_AA_4blocks_noglides","yes","no","sans","no","20","no","black","no","Weiter","yes","768","legacy","10","9","0","/Users/aviadalbert/Documents/Academisch/UoC/Dissertation/Experiment/OpenSesame/NAP-FC/NAP_GER_AA_4blocks_noglides/subject-8.csv","xpyriment","Jazzy James","3.1.9","yes","yes","59a800d99ad5a1025d81bb03","59a801616c613b0251691de0","no","no","0","f","f","space","NA","return","space","f","875","3221","25183","NA","28491","22800","875","2","legacy","1024","1","44100","-16","experiment","smal","4","0","1","0","1","italienisch, englisch, franzoesisch","8","","even","656817","631106","NA","NA","660039","656813","NA","1650","656345","1650","1650","525641","554137","692458","690951","693334","599728","577258","631105","NA","440777","505428","629453","577004","656817","577262","NA","692458","692458","NA","NA","690946","NAP perception","8","13777","11","yes","1024"
"75","yes","75","1285.66666667","1285.66666667","white","no","xpyriment","Ich habe die obigen Informationen gelesen und verstanden.","legacy","legacy","0","uniform","1","0","0","undefined","undefined","1","f","2","1","NA","0","1","0","0","0","0","0","0","0","0","21","21","21","0","0","0","NA","0","0","2","0","0","0","2","21","21","21","21","21","Wed Oct  4 20:44:21 2017","Forced-choice identification task with a practice and an experimental phase","yes","NAP_GER_AA_4blocks_noglides.osexp","/Users/aviadalbert/Documents/Academisch/UoC/Dissertation/Experiment/OpenSesame/NAP-FC/NAP_GER_AA_4blocks_noglides","yes","no","sans","no","20","no","black","no","Weiter","yes","768","legacy","11","9","0","/Users/aviadalbert/Documents/Academisch/UoC/Dissertation/Experiment/OpenSesame/NAP-FC/NAP_GER_AA_4blocks_noglides/subject-8.csv","xpyriment","Jazzy James","3.1.9","yes","yes","59a800d99ad5a1025d81bb03","59a801616c613b0251691de0","no","no","0","f","f","space","NA","return","space","f","1651","3221","25183","NA","28491","22800","1651","2","legacy","1024","1","44100","-16","experiment","mzal","4","0","1","0","1","italienisch, englisch, franzoesisch","8","","even","656817","631106","NA","NA","660039","656813","NA","1650","656345","1650","1650","525641","554137","695115","693610","696767","599728","577258","631105","NA","440777","505428","629453","577004","656817","577262","NA","695115","695115","NA","NA","693605","NAP perception","9","15428","12","yes","1024"
"69.2307692308","yes","69.2307692308","1278.07692308","1278.07692308","white","no","xpyriment","Ich habe die obigen Informationen gelesen und verstanden.","legacy","legacy","0","uniform","0","0","0","undefined","undefined","0","f","2","1","NA","0","1","0","0","0","0","0","0","0","0","22","22","22","0","0","0","NA","0","0","2","0","0","0","2","22","22","22","22","22","Wed Oct  4 20:44:21 2017","Forced-choice identification task with a practice and an experimental phase","yes","NAP_GER_AA_4blocks_noglides.osexp","/Users/aviadalbert/Documents/Academisch/UoC/Dissertation/Experiment/OpenSesame/NAP-FC/NAP_GER_AA_4blocks_noglides","yes","no","sans","no","20","no","black","no","Weiter","yes","768","legacy","12","9","0","/Users/aviadalbert/Documents/Academisch/UoC/Dissertation/Experiment/OpenSesame/NAP-FC/NAP_GER_AA_4blocks_noglides/subject-8.csv","xpyriment","Jazzy James","3.1.9","yes","yes","59a800d99ad5a1025d81bb03","59a801616c613b0251691de0","no","no","0","j","f","space","NA","return","space","j","1187","3221","25183","NA","28491","22800","1187","2","legacy","1024","1","44100","-16","experiment","lpal","4","0","1","0","1","italienisch, englisch, franzoesisch","8","","even","656817","631106","NA","NA","660039","656813","NA","1650","656345","1650","1650","525641","554137","698536","697032","699724","599728","577258","631105","NA","440777","505428","629453","577004","656817","577262","NA","698536","698536","NA","NA","697028","NAP perception","9","16615","13","yes","1024"
"71.4285714286","yes","71.4285714286","1268.35714286","1268.35714286","white","no","xpyriment","Ich habe die obigen Informationen gelesen und verstanden.","legacy","legacy","0","uniform","1","0","0","undefined","undefined","1","f","2","1","NA","0","1","0","0","0","0","0","0","0","0","23","23","23","0","0","0","NA","0","0","2","0","0","0","2","23","23","23","23","23","Wed Oct  4 20:44:21 2017","Forced-choice identification task with a practice and an experimental phase","yes","NAP_GER_AA_4blocks_noglides.osexp","/Users/aviadalbert/Documents/Academisch/UoC/Dissertation/Experiment/OpenSesame/NAP-FC/NAP_GER_AA_4blocks_noglides","yes","no","sans","no","20","no","black","no","Weiter","yes","768","legacy","13","9","0","/Users/aviadalbert/Documents/Academisch/UoC/Dissertation/Experiment/OpenSesame/NAP-FC/NAP_GER_AA_4blocks_noglides/subject-8.csv","xpyriment","Jazzy James","3.1.9","yes","yes","59a800d99ad5a1025d81bb03","59a801616c613b0251691de0","no","no","0","f","f","space","NA","return","space","f","1142","3221","25183","NA","28491","22800","1142","2","legacy","1024","1","44100","-16","experiment","mlal","4","0","1","0","1","italienisch, englisch, franzoesisch","8","","even","656817","631106","NA","NA","660039","656813","NA","1650","656345","1650","1650","525641","554137","701491","699985","702634","599728","577258","631105","NA","440777","505428","629453","577004","656817","577262","NA","701491","701491","NA","NA","699981","NAP perception","10","17757","14","yes","1024"
"73.3333333333","yes","73.3333333333","1262","1262","white","no","xpyriment","Ich habe die obigen Informationen gelesen und verstanden.","legacy","legacy","0","uniform","1","0","0","undefined","undefined","1","j","2","1","NA","0","1","0","0","0","0","0","0","0","0","24","24","24","0","0","0","NA","0","0","2","0","0","0","2","24","24","24","24","24","Wed Oct  4 20:44:21 2017","Forced-choice identification task with a practice and an experimental phase","yes","NAP_GER_AA_4blocks_noglides.osexp","/Users/aviadalbert/Documents/Academisch/UoC/Dissertation/Experiment/OpenSesame/NAP-FC/NAP_GER_AA_4blocks_noglides","yes","no","sans","no","20","no","black","no","Weiter","yes","768","legacy","14","9","0","/Users/aviadalbert/Documents/Academisch/UoC/Dissertation/Experiment/OpenSesame/NAP-FC/NAP_GER_AA_4blocks_noglides/subject-8.csv","xpyriment","Jazzy James","3.1.9","yes","yes","59a800d99ad5a1025d81bb03","59a801616c613b0251691de0","no","no","0","j","f","space","NA","return","space","j","1173","3221","25183","NA","28491","22800","1173","2","legacy","1024","1","44100","-16","experiment","sepal","4","0","1","0","1","italienisch, englisch, franzoesisch","8","","even","656817","631106","NA","NA","660039","656813","NA","1650","656345","1650","1650","525641","554137","704406","702900","705580","599728","577258","631105","NA","440777","505428","629453","577004","656817","577262","NA","704406","704406","NA","NA","702896","NAP perception","11","18930","15","yes","1024"
"75","yes","75","1238.375","1238.375","white","no","xpyriment","Ich habe die obigen Informationen gelesen und verstanden.","legacy","legacy","0","uniform","1","0","0","undefined","undefined","1","j","2","1","NA","0","1","0","0","0","0","0","0","0","0","25","25","25","0","0","0","NA","0","0","2","0","0","0","2","25","25","25","25","25","Wed Oct  4 20:44:21 2017","Forced-choice identification task with a practice and an experimental phase","yes","NAP_GER_AA_4blocks_noglides.osexp","/Users/aviadalbert/Documents/Academisch/UoC/Dissertation/Experiment/OpenSesame/NAP-FC/NAP_GER_AA_4blocks_noglides","yes","no","sans","no","20","no","black","no","Weiter","yes","768","legacy","15","9","0","/Users/aviadalbert/Documents/Academisch/UoC/Dissertation/Experiment/OpenSesame/NAP-FC/NAP_GER_AA_4blocks_noglides/subject-8.csv","xpyriment","Jazzy James","3.1.9","yes","yes","59a800d99ad5a1025d81bb03","59a801616c613b0251691de0","no","no","0","j","f","space","NA","return","space","j","884","3221","25183","NA","28491","22800","884","2","legacy","1024","1","44100","-16","experiment","esfal","4","0","1","0","1","italienisch, englisch, franzoesisch","8","","even","656817","631106","NA","NA","660039","656813","NA","1650","656345","1650","1650","525641","554137","707348","705844","708233","599728","577258","631105","NA","440777","505428","629453","577004","656817","577262","NA","707348","707348","NA","NA","705840","NAP perception","12","19814","16","yes","1024"
"76.4705882353","yes","76.4705882353","1216.47058824","1216.47058824","white","no","xpyriment","Ich habe die obigen Informationen gelesen und verstanden.","legacy","legacy","0","uniform","1","0","0","undefined","undefined","1","j","2","1","NA","0","1","0","0","0","0","0","0","0","0","26","26","26","0","0","0","NA","0","0","2","0","0","0","2","26","26","26","26","26","Wed Oct  4 20:44:21 2017","Forced-choice identification task with a practice and an experimental phase","yes","NAP_GER_AA_4blocks_noglides.osexp","/Users/aviadalbert/Documents/Academisch/UoC/Dissertation/Experiment/OpenSesame/NAP-FC/NAP_GER_AA_4blocks_noglides","yes","no","sans","no","20","no","black","no","Weiter","yes","768","legacy","16","9","0","/Users/aviadalbert/Documents/Academisch/UoC/Dissertation/Experiment/OpenSesame/NAP-FC/NAP_GER_AA_4blocks_noglides/subject-8.csv","xpyriment","Jazzy James","3.1.9","yes","yes","59a800d99ad5a1025d81bb03","59a801616c613b0251691de0","no","no","0","j","f","space","NA","return","space","j","866","3221","25183","NA","28491","22800","866","2","legacy","1024","1","44100","-16","experiment","felal","4","0","1","0","1","italienisch, englisch, franzoesisch","8","","even","656817","631106","NA","NA","660039","656813","NA","1650","656345","1650","1650","525641","554137","710014","708508","710881","599728","577258","631105","NA","440777","505428","629453","577004","656817","577262","NA","710014","710014","NA","NA","708504","NAP perception","13","20680","17","yes","1024"
"72.2222222222","yes","72.2222222222","1257.16666667","1257.16666667","white","no","xpyriment","Ich habe die obigen Informationen gelesen und verstanden.","legacy","legacy","0","uniform","0","0","0","undefined","undefined","0","f","2","1","NA","0","1","0","0","0","0","0","0","0","0","27","27","27","0","0","0","NA","0","0","2","0","0","0","2","27","27","27","27","27","Wed Oct  4 20:44:21 2017","Forced-choice identification task with a practice and an experimental phase","yes","NAP_GER_AA_4blocks_noglides.osexp","/Users/aviadalbert/Documents/Academisch/UoC/Dissertation/Experiment/OpenSesame/NAP-FC/NAP_GER_AA_4blocks_noglides","yes","no","sans","no","20","no","black","no","Weiter","yes","768","legacy","17","9","0","/Users/aviadalbert/Documents/Academisch/UoC/Dissertation/Experiment/OpenSesame/NAP-FC/NAP_GER_AA_4blocks_noglides/subject-8.csv","xpyriment","Jazzy James","3.1.9","yes","yes","59a800d99ad5a1025d81bb03","59a801616c613b0251691de0","no","no","0","j","f","space","NA","return","space","j","1949","3221","25183","NA","28491","22800","1949","2","legacy","1024","1","44100","-16","experiment","nmal","4","0","1","0","1","italienisch, englisch, franzoesisch","8","","even","656817","631106","NA","NA","660039","656813","NA","1650","656345","1650","1650","525641","554137","712649","711143","714600","599728","577258","631105","NA","440777","505428","629453","577004","656817","577262","NA","712649","712649","NA","NA","711139","NAP perception","13","22629","18","yes","1024"
"73.6842105263","yes","73.6842105263","1247.10526316","1247.10526316","white","no","xpyriment","Ich habe die obigen Informationen gelesen und verstanden.","legacy","legacy","0","uniform","1","0","0","undefined","undefined","1","f","2","1","NA","0","1","0","0","0","0","0","0","0","0","28","28","28","0","0","0","NA","0","0","2","0","0","0","2","28","28","28","28","28","Wed Oct  4 20:44:21 2017","Forced-choice identification task with a practice and an experimental phase","yes","NAP_GER_AA_4blocks_noglides.osexp","/Users/aviadalbert/Documents/Academisch/UoC/Dissertation/Experiment/OpenSesame/NAP-FC/NAP_GER_AA_4blocks_noglides","yes","no","sans","no","20","no","black","no","Weiter","yes","768","legacy","18","9","0","/Users/aviadalbert/Documents/Academisch/UoC/Dissertation/Experiment/OpenSesame/NAP-FC/NAP_GER_AA_4blocks_noglides/subject-8.csv","xpyriment","Jazzy James","3.1.9","yes","yes","59a800d99ad5a1025d81bb03","59a801616c613b0251691de0","no","no","0","f","f","space","NA","return","space","f","1066","3221","25183","NA","28491","22800","1066","2","legacy","1024","1","44100","-16","experiment","flal","4","0","1","0","1","italienisch, englisch, franzoesisch","8","","even","656817","631106","NA","NA","660039","656813","NA","1650","656345","1650","1650","525641","554137","716387","714882","717455","599728","577258","631105","NA","440777","505428","629453","577004","656817","577262","NA","716387","716387","NA","NA","714878","NAP perception","14","23695","19","yes","1024"
"70","yes","70","1281.7","1281.7","white","no","xpyriment","Ich habe die obigen Informationen gelesen und verstanden.","legacy","legacy","0","uniform","0","0","0","undefined","undefined","0","f","2","1","NA","0","1","0","0","0","0","0","0","0","0","29","29","29","0","0","0","NA","0","0","2","0","0","0","2","29","29","29","29","29","Wed Oct  4 20:44:21 2017","Forced-choice identification task with a practice and an experimental phase","yes","NAP_GER_AA_4blocks_noglides.osexp","/Users/aviadalbert/Documents/Academisch/UoC/Dissertation/Experiment/OpenSesame/NAP-FC/NAP_GER_AA_4blocks_noglides","yes","no","sans","no","20","no","black","no","Weiter","yes","768","legacy","19","9","0","/Users/aviadalbert/Documents/Academisch/UoC/Dissertation/Experiment/OpenSesame/NAP-FC/NAP_GER_AA_4blocks_noglides/subject-8.csv","xpyriment","Jazzy James","3.1.9","yes","yes","59a800d99ad5a1025d81bb03","59a801616c613b0251691de0","no","no","0","j","f","space","NA","return","space","j","1939","3221","25183","NA","28491","22800","1939","2","legacy","1024","1","44100","-16","experiment","nval","4","0","1","0","1","italienisch, englisch, franzoesisch","8","","even","656817","631106","NA","NA","660039","656813","NA","1650","656345","1650","1650","525641","554137","719225","717719","721166","599728","577258","631105","NA","440777","505428","629453","577004","656817","577262","NA","719225","719225","NA","NA","717715","NAP perception","14","25634","20","yes","1024"
"66.6666666667","yes","66.6666666667","1256.04761905","1256.04761905","white","no","xpyriment","Ich habe die obigen Informationen gelesen und verstanden.","legacy","legacy","0","uniform","0","0","0","undefined","undefined","0","j","2","1","NA","0","1","0","0","0","0","0","0","0","0","30","30","30","0","0","0","NA","0","0","2","0","0","0","2","30","30","30","30","30","Wed Oct  4 20:44:21 2017","Forced-choice identification task with a practice and an experimental phase","yes","NAP_GER_AA_4blocks_noglides.osexp","/Users/aviadalbert/Documents/Academisch/UoC/Dissertation/Experiment/OpenSesame/NAP-FC/NAP_GER_AA_4blocks_noglides","yes","no","sans","no","20","no","black","no","Weiter","yes","768","legacy","20","9","0","/Users/aviadalbert/Documents/Academisch/UoC/Dissertation/Experiment/OpenSesame/NAP-FC/NAP_GER_AA_4blocks_noglides/subject-8.csv","xpyriment","Jazzy James","3.1.9","yes","yes","59a800d99ad5a1025d81bb03","59a801616c613b0251691de0","no","no","0","f","f","space","NA","return","space","f","743","3221","25183","NA","28491","22800","743","2","legacy","1024","1","44100","-16","experiment","eʃmal","4","0","1","0","1","italienisch, englisch, franzoesisch","8","","even","656817","631106","NA","NA","660039","656813","NA","1650","656345","1650","1650","525641","554137","722958","721451","723702","599728","577258","631105","NA","440777","505428","629453","577004","656817","577262","NA","722958","722958","NA","NA","721447","NAP perception","14","26377","21","yes","1024"
"68.1818181818","yes","68.1818181818","1244.27272727","1244.27272727","white","no","xpyriment","Ich habe die obigen Informationen gelesen und verstanden.","legacy","legacy","0","uniform","1","0","0","undefined","undefined","1","f","2","1","NA","0","1","0","0","0","0","0","0","0","0","31","31","31","0","0","0","NA","0","0","2","0","0","0","2","31","31","31","31","31","Wed Oct  4 20:44:21 2017","Forced-choice identification task with a practice and an experimental phase","yes","NAP_GER_AA_4blocks_noglides.osexp","/Users/aviadalbert/Documents/Academisch/UoC/Dissertation/Experiment/OpenSesame/NAP-FC/NAP_GER_AA_4blocks_noglides","yes","no","sans","no","20","no","black","no","Weiter","yes","768","legacy","21","9","0","/Users/aviadalbert/Documents/Academisch/UoC/Dissertation/Experiment/OpenSesame/NAP-FC/NAP_GER_AA_4blocks_noglides/subject-8.csv","xpyriment","Jazzy James","3.1.9","yes","yes","59a800d99ad5a1025d81bb03","59a801616c613b0251691de0","no","no","0","f","f","space","NA","return","space","f","997","3221","25183","NA","28491","22800","997","2","legacy","1024","1","44100","-16","experiment","zmal","4","0","1","0","1","italienisch, englisch, franzoesisch","8","","even","656817","631106","NA","NA","660039","656813","NA","1650","656345","1650","1650","525641","554137","725478","723971","726476","599728","577258","631105","NA","440777","505428","629453","577004","656817","577262","NA","725477","725477","NA","NA","723967","NAP perception","15","27374","22","yes","1024"
"69.5652173913","yes","69.5652173913","1233.47826087","1233.47826087","white","no","xpyriment","Ich habe die obigen Informationen gelesen und verstanden.","legacy","legacy","0","uniform","1","0","0","undefined","undefined","1","j","2","1","NA","0","1","0","0","0","0","0","0","0","0","32","32","32","0","0","0","NA","0","0","2","0","0","0","2","32","32","32","32","32","Wed Oct  4 20:44:21 2017","Forced-choice identification task with a practice and an experimental phase","yes","NAP_GER_AA_4blocks_noglides.osexp","/Users/aviadalbert/Documents/Academisch/UoC/Dissertation/Experiment/OpenSesame/NAP-FC/NAP_GER_AA_4blocks_noglides","yes","no","sans","no","20","no","black","no","Weiter","yes","768","legacy","22","9","0","/Users/aviadalbert/Documents/Academisch/UoC/Dissertation/Experiment/OpenSesame/NAP-FC/NAP_GER_AA_4blocks_noglides/subject-8.csv","xpyriment","Jazzy James","3.1.9","yes","yes","59a800d99ad5a1025d81bb03","59a801616c613b0251691de0","no","no","0","j","f","space","NA","return","space","j","996","3221","25183","NA","28491","22800","996","2","legacy","1024","1","44100","-16","experiment","nemal","4","0","1","0","1","italienisch, englisch, franzoesisch","8","","even","656817","631106","NA","NA","660039","656813","NA","1650","656345","1650","1650","525641","554137","728269","726765","729266","599728","577258","631105","NA","440777","505428","629453","577004","656817","577262","NA","728268","728268","NA","NA","726760","NAP perception","16","28370","23","yes","1024"
"70.8333333333","yes","70.8333333333","1248.79166667","1248.79166667","white","no","xpyriment","Ich habe die obigen Informationen gelesen und verstanden.","legacy","legacy","0","uniform","1","0","0","undefined","undefined","1","j","2","1","NA","0","1","0","0","0","0","0","0","0","0","33","33","33","0","0","0","NA","0","0","2","0","0","0","2","33","33","33","33","33","Wed Oct  4 20:44:21 2017","Forced-choice identification task with a practice and an experimental phase","yes","NAP_GER_AA_4blocks_noglides.osexp","/Users/aviadalbert/Documents/Academisch/UoC/Dissertation/Experiment/OpenSesame/NAP-FC/NAP_GER_AA_4blocks_noglides","yes","no","sans","no","20","no","black","no","Weiter","yes","768","legacy","23","9","0","/Users/aviadalbert/Documents/Academisch/UoC/Dissertation/Experiment/OpenSesame/NAP-FC/NAP_GER_AA_4blocks_noglides/subject-8.csv","xpyriment","Jazzy James","3.1.9","yes","yes","59a800d99ad5a1025d81bb03","59a801616c613b0251691de0","no","no","0","j","f","space","NA","return","space","j","1601","3221","25183","NA","28491","22800","1601","2","legacy","1024","1","44100","-16","experiment","esmal","4","0","1","0","1","italienisch, englisch, franzoesisch","8","","even","656817","631106","NA","NA","660039","656813","NA","1650","656345","1650","1650","525641","554137","731038","729531","732640","599728","577258","631105","NA","440777","505428","629453","577004","656817","577262","NA","731037","731037","NA","NA","729527","NAP perception","17","29971","24","yes","1024"
"72","yes","72","1236","1236","white","no","xpyriment","Ich habe die obigen Informationen gelesen und verstanden.","legacy","legacy","0","uniform","1","0","0","undefined","undefined","1","j","2","1","NA","0","1","0","0","0","0","0","0","0","0","34","34","34","0","0","0","NA","0","0","2","0","0","0","2","34","34","34","34","34","Wed Oct  4 20:44:21 2017","Forced-choice identification task with a practice and an experimental phase","yes","NAP_GER_AA_4blocks_noglides.osexp","/Users/aviadalbert/Documents/Academisch/UoC/Dissertation/Experiment/OpenSesame/NAP-FC/NAP_GER_AA_4blocks_noglides","yes","no","sans","no","20","no","black","no","Weiter","yes","768","legacy","24","9","0","/Users/aviadalbert/Documents/Academisch/UoC/Dissertation/Experiment/OpenSesame/NAP-FC/NAP_GER_AA_4blocks_noglides/subject-8.csv","xpyriment","Jazzy James","3.1.9","yes","yes","59a800d99ad5a1025d81bb03","59a801616c613b0251691de0","no","no","0","j","f","space","NA","return","space","j","929","3221","25183","NA","28491","22800","929","2","legacy","1024","1","44100","-16","experiment","lekal","4","0","1","0","1","italienisch, englisch, franzoesisch","8","","even","656817","631106","NA","NA","660039","656813","NA","1650","656345","1650","1650","525641","554137","734418","732914","735348","599728","577258","631105","NA","440777","505428","629453","577004","656817","577262","NA","734417","734417","NA","NA","732910","NAP perception","18","30900","25","yes","1024"
"73.0769230769","yes","73.0769230769","1221.15384615","1221.15384615","white","no","xpyriment","Ich habe die obigen Informationen gelesen und verstanden.","legacy","legacy","0","uniform","1","0","0","undefined","undefined","1","j","2","1","NA","0","1","0","0","0","0","0","0","0","0","35","35","35","0","0","0","NA","0","0","2","0","0","0","2","35","35","35","35","35","Wed Oct  4 20:44:21 2017","Forced-choice identification task with a practice and an experimental phase","yes","NAP_GER_AA_4blocks_noglides.osexp","/Users/aviadalbert/Documents/Academisch/UoC/Dissertation/Experiment/OpenSesame/NAP-FC/NAP_GER_AA_4blocks_noglides","yes","no","sans","no","20","no","black","no","Weiter","yes","768","legacy","25","9","0","/Users/aviadalbert/Documents/Academisch/UoC/Dissertation/Experiment/OpenSesame/NAP-FC/NAP_GER_AA_4blocks_noglides/subject-8.csv","xpyriment","Jazzy James","3.1.9","yes","yes","59a800d99ad5a1025d81bb03","59a801616c613b0251691de0","no","no","0","j","f","space","NA","return","space","j","850","3221","25183","NA","28491","22800","850","2","legacy","1024","1","44100","-16","experiment","enmal","4","0","1","0","1","italienisch, englisch, franzoesisch","8","","even","656817","631106","NA","NA","660039","656813","NA","1650","656345","1650","1650","525641","554137","737115","735610","737966","599728","577258","631105","NA","440777","505428","629453","577004","656817","577262","NA","737115","737115","NA","NA","735607","NAP perception","19","31750","26","yes","1024"
"74.0740740741","yes","74.0740740741","1207.40740741","1207.40740741","white","no","xpyriment","Ich habe die obigen Informationen gelesen und verstanden.","legacy","legacy","0","uniform","1","0","0","undefined","undefined","1","j","2","1","NA","0","1","0","0","0","0","0","0","0","0","36","36","36","0","0","0","NA","0","0","2","0","0","0","2","36","36","36","36","36","Wed Oct  4 20:44:21 2017","Forced-choice identification task with a practice and an experimental phase","yes","NAP_GER_AA_4blocks_noglides.osexp","/Users/aviadalbert/Documents/Academisch/UoC/Dissertation/Experiment/OpenSesame/NAP-FC/NAP_GER_AA_4blocks_noglides","yes","no","sans","no","20","no","black","no","Weiter","yes","768","legacy","26","9","0","/Users/aviadalbert/Documents/Academisch/UoC/Dissertation/Experiment/OpenSesame/NAP-FC/NAP_GER_AA_4blocks_noglides/subject-8.csv","xpyriment","Jazzy James","3.1.9","yes","yes","59a800d99ad5a1025d81bb03","59a801616c613b0251691de0","no","no","0","j","f","space","NA","return","space","j","850","3221","25183","NA","28491","22800","850","2","legacy","1024","1","44100","-16","experiment","elkal","4","0","1","0","1","italienisch, englisch, franzoesisch","8","","even","656817","631106","NA","NA","660039","656813","NA","1650","656345","1650","1650","525641","554137","739743","738238","740594","599728","577258","631105","NA","440777","505428","629453","577004","656817","577262","NA","739743","739743","NA","NA","738234","NAP perception","20","32600","27","yes","1024"
"75","yes","75","1196.78571429","1196.78571429","white","no","xpyriment","Ich habe die obigen Informationen gelesen und verstanden.","legacy","legacy","0","uniform","1","0","0","undefined","undefined","1","j","2","1","NA","0","1","0","0","0","0","0","0","0","0","37","37","37","0","0","0","NA","0","0","2","0","0","0","2","37","37","37","37","37","Wed Oct  4 20:44:21 2017","Forced-choice identification task with a practice and an experimental phase","yes","NAP_GER_AA_4blocks_noglides.osexp","/Users/aviadalbert/Documents/Academisch/UoC/Dissertation/Experiment/OpenSesame/NAP-FC/NAP_GER_AA_4blocks_noglides","yes","no","sans","no","20","no","black","no","Weiter","yes","768","legacy","27","9","0","/Users/aviadalbert/Documents/Academisch/UoC/Dissertation/Experiment/OpenSesame/NAP-FC/NAP_GER_AA_4blocks_noglides/subject-8.csv","xpyriment","Jazzy James","3.1.9","yes","yes","59a800d99ad5a1025d81bb03","59a801616c613b0251691de0","no","no","0","j","f","space","NA","return","space","j","910","3221","25183","NA","28491","22800","910","2","legacy","1024","1","44100","-16","experiment","melal","4","0","1","0","1","italienisch, englisch, franzoesisch","8","","even","656817","631106","NA","NA","660039","656813","NA","1650","656345","1650","1650","525641","554137","742378","740874","743289","599728","577258","631105","NA","440777","505428","629453","577004","656817","577262","NA","742378","742378","NA","NA","740870","NAP perception","21","33510","28","yes","1024"
"75.8620689655","yes","75.8620689655","1183.96551724","1183.96551724","white","no","xpyriment","Ich habe die obigen Informationen gelesen und verstanden.","legacy","legacy","0","uniform","1","0","0","undefined","undefined","1","j","2","1","NA","0","1","0","0","0","0","0","0","0","0","38","38","38","0","0","0","NA","0","0","2","0","0","0","2","38","38","38","38","38","Wed Oct  4 20:44:21 2017","Forced-choice identification task with a practice and an experimental phase","yes","NAP_GER_AA_4blocks_noglides.osexp","/Users/aviadalbert/Documents/Academisch/UoC/Dissertation/Experiment/OpenSesame/NAP-FC/NAP_GER_AA_4blocks_noglides","yes","no","sans","no","20","no","black","no","Weiter","yes","768","legacy","28","9","0","/Users/aviadalbert/Documents/Academisch/UoC/Dissertation/Experiment/OpenSesame/NAP-FC/NAP_GER_AA_4blocks_noglides/subject-8.csv","xpyriment","Jazzy James","3.1.9","yes","yes","59a800d99ad5a1025d81bb03","59a801616c613b0251691de0","no","no","0","j","f","space","NA","return","space","j","825","3221","25183","NA","28491","22800","825","2","legacy","1024","1","44100","-16","experiment","fetal","4","0","1","0","1","italienisch, englisch, franzoesisch","8","","even","656817","631106","NA","NA","660039","656813","NA","1650","656345","1650","1650","525641","554137","745065","743561","745891","599728","577258","631105","NA","440777","505428","629453","577004","656817","577262","NA","745064","745064","NA","NA","743557","NAP perception","22","34335","29","yes","1024"
"76.6666666667","yes","76.6666666667","1168.73333333","1168.73333333","white","no","xpyriment","Ich habe die obigen Informationen gelesen und verstanden.","legacy","legacy","0","uniform","1","0","0","undefined","undefined","1","j","2","1","NA","0","1","0","0","0","0","0","0","0","0","39","39","39","0","0","0","NA","0","0","2","0","0","0","2","39","39","39","39","39","Wed Oct  4 20:44:21 2017","Forced-choice identification task with a practice and an experimental phase","yes","NAP_GER_AA_4blocks_noglides.osexp","/Users/aviadalbert/Documents/Academisch/UoC/Dissertation/Experiment/OpenSesame/NAP-FC/NAP_GER_AA_4blocks_noglides","yes","no","sans","no","20","no","black","no","Weiter","yes","768","legacy","29","9","0","/Users/aviadalbert/Documents/Academisch/UoC/Dissertation/Experiment/OpenSesame/NAP-FC/NAP_GER_AA_4blocks_noglides/subject-8.csv","xpyriment","Jazzy James","3.1.9","yes","yes","59a800d99ad5a1025d81bb03","59a801616c613b0251691de0","no","no","0","j","f","space","NA","return","space","j","727","3221","25183","NA","28491","22800","727","2","legacy","1024","1","44100","-16","experiment","evnal","4","0","1","0","1","italienisch, englisch, franzoesisch","8","","even","656817","631106","NA","NA","660039","656813","NA","1650","656345","1650","1650","525641","554137","747669","746165","748397","599728","577258","631105","NA","440777","505428","629453","577004","656817","577262","NA","747669","747669","NA","NA","746161","NAP perception","23","35062","30","yes","1024"
"77.4193548387","yes","77.4193548387","1154.61290323","1154.61290323","white","no","xpyriment","Ich habe die obigen Informationen gelesen und verstanden.","legacy","legacy","0","uniform","1","0","0","undefined","undefined","1","j","2","1","NA","0","1","0","0","0","0","0","0","0","0","40","40","40","0","0","0","NA","0","0","2","0","0","0","2","40","40","40","40","40","Wed Oct  4 20:44:21 2017","Forced-choice identification task with a practice and an experimental phase","yes","NAP_GER_AA_4blocks_noglides.osexp","/Users/aviadalbert/Documents/Academisch/UoC/Dissertation/Experiment/OpenSesame/NAP-FC/NAP_GER_AA_4blocks_noglides","yes","no","sans","no","20","no","black","no","Weiter","yes","768","legacy","30","9","0","/Users/aviadalbert/Documents/Academisch/UoC/Dissertation/Experiment/OpenSesame/NAP-FC/NAP_GER_AA_4blocks_noglides/subject-8.csv","xpyriment","Jazzy James","3.1.9","yes","yes","59a800d99ad5a1025d81bb03","59a801616c613b0251691de0","no","no","0","j","f","space","NA","return","space","j","731","3221","25183","NA","28491","22800","731","2","legacy","1024","1","44100","-16","experiment","ezval","4","0","1","0","1","italienisch, englisch, franzoesisch","8","","even","656817","631106","NA","NA","660039","656813","NA","1650","656345","1650","1650","525641","554137","750155","748651","750888","599728","577258","631105","NA","440777","505428","629453","577004","656817","577262","NA","750155","750155","NA","NA","748647","NAP perception","24","35793","31","yes","1024"
"78.125","yes","78.125","1180.8125","1180.8125","white","no","xpyriment","Ich habe die obigen Informationen gelesen und verstanden.","legacy","legacy","0","uniform","1","0","0","undefined","undefined","1","f","2","1","NA","0","1","0","0","0","0","0","0","0","0","41","41","41","0","0","0","NA","0","0","2","0","0","0","2","41","41","41","41","41","Wed Oct  4 20:44:21 2017","Forced-choice identification task with a practice and an experimental phase","yes","NAP_GER_AA_4blocks_noglides.osexp","/Users/aviadalbert/Documents/Academisch/UoC/Dissertation/Experiment/OpenSesame/NAP-FC/NAP_GER_AA_4blocks_noglides","yes","no","sans","no","20","no","black","no","Weiter","yes","768","legacy","31","9","0","/Users/aviadalbert/Documents/Academisch/UoC/Dissertation/Experiment/OpenSesame/NAP-FC/NAP_GER_AA_4blocks_noglides/subject-8.csv","xpyriment","Jazzy James","3.1.9","yes","yes","59a800d99ad5a1025d81bb03","59a801616c613b0251691de0","no","no","0","f","f","space","NA","return","space","f","1993","3221","25183","NA","28491","22800","1993","2","legacy","1024","1","44100","-16","experiment","mnal","4","0","1","0","1","italienisch, englisch, franzoesisch","8","","even","656817","631106","NA","NA","660039","656813","NA","1650","656345","1650","1650","525641","554137","752663","751159","754657","599728","577258","631105","NA","440777","505428","629453","577004","656817","577262","NA","752662","752662","NA","NA","751155","NAP perception","25","37786","32","yes","1024"
"78.7878787879","yes","78.7878787879","1221.06060606","1221.06060606","white","no","xpyriment","Ich habe die obigen Informationen gelesen und verstanden.","legacy","legacy","0","uniform","1","0","0","undefined","undefined","1","f","2","1","NA","0","1","0","0","0","0","0","0","0","0","42","42","42","0","0","0","NA","0","0","2","0","0","0","2","42","42","42","42","42","Wed Oct  4 20:44:21 2017","Forced-choice identification task with a practice and an experimental phase","yes","NAP_GER_AA_4blocks_noglides.osexp","/Users/aviadalbert/Documents/Academisch/UoC/Dissertation/Experiment/OpenSesame/NAP-FC/NAP_GER_AA_4blocks_noglides","yes","no","sans","no","20","no","black","no","Weiter","yes","768","legacy","32","9","0","/Users/aviadalbert/Documents/Academisch/UoC/Dissertation/Experiment/OpenSesame/NAP-FC/NAP_GER_AA_4blocks_noglides/subject-8.csv","xpyriment","Jazzy James","3.1.9","yes","yes","59a800d99ad5a1025d81bb03","59a801616c613b0251691de0","no","no","0","f","f","space","NA","return","space","f","2509","3221","25183","NA","28491","22800","2509","2","legacy","1024","1","44100","-16","experiment","vzal","4","0","1","0","1","italienisch, englisch, franzoesisch","8","","even","656817","631106","NA","NA","660039","656813","NA","1650","656345","1650","1650","525641","554137","756446","754942","758957","599728","577258","631105","NA","440777","505428","629453","577004","656817","577262","NA","756445","756445","NA","NA","754938","NAP perception","26","40295","33","yes","1024"
"79.4117647059","yes","79.4117647059","1225.76470588","1225.76470588","white","no","xpyriment","Ich habe die obigen Informationen gelesen und verstanden.","legacy","legacy","0","uniform","1","0","0","undefined","undefined","1","j","2","1","NA","0","1","0","0","0","0","0","0","0","0","43","43","43","0","0","0","NA","0","0","2","0","0","0","2","43","43","43","43","43","Wed Oct  4 20:44:21 2017","Forced-choice identification task with a practice and an experimental phase","yes","NAP_GER_AA_4blocks_noglides.osexp","/Users/aviadalbert/Documents/Academisch/UoC/Dissertation/Experiment/OpenSesame/NAP-FC/NAP_GER_AA_4blocks_noglides","yes","no","sans","no","20","no","black","no","Weiter","yes","768","legacy","33","9","0","/Users/aviadalbert/Documents/Academisch/UoC/Dissertation/Experiment/OpenSesame/NAP-FC/NAP_GER_AA_4blocks_noglides/subject-8.csv","xpyriment","Jazzy James","3.1.9","yes","yes","59a800d99ad5a1025d81bb03","59a801616c613b0251691de0","no","no","0","j","f","space","NA","return","space","j","1381","3221","25183","NA","28491","22800","1381","2","legacy","1024","1","44100","-16","experiment","sefal","4","0","1","0","1","italienisch, englisch, franzoesisch","8","","even","656817","631106","NA","NA","660039","656813","NA","1650","656345","1650","1650","525641","554137","760719","759215","762102","599728","577258","631105","NA","440777","505428","629453","577004","656817","577262","NA","760718","760718","NA","NA","759211","NAP perception","27","41676","34","yes","1024"
"80","yes","80","1227.11428571","1227.11428571","white","no","xpyriment","Ich habe die obigen Informationen gelesen und verstanden.","legacy","legacy","0","uniform","1","0","0","undefined","undefined","1","f","2","1","NA","0","1","0","0","0","0","0","0","0","0","44","44","44","0","0","0","NA","0","0","2","0","0","0","2","44","44","44","44","44","Wed Oct  4 20:44:21 2017","Forced-choice identification task with a practice and an experimental phase","yes","NAP_GER_AA_4blocks_noglides.osexp","/Users/aviadalbert/Documents/Academisch/UoC/Dissertation/Experiment/OpenSesame/NAP-FC/NAP_GER_AA_4blocks_noglides","yes","no","sans","no","20","no","black","no","Weiter","yes","768","legacy","34","9","0","/Users/aviadalbert/Documents/Academisch/UoC/Dissertation/Experiment/OpenSesame/NAP-FC/NAP_GER_AA_4blocks_noglides/subject-8.csv","xpyriment","Jazzy James","3.1.9","yes","yes","59a800d99ad5a1025d81bb03","59a801616c613b0251691de0","no","no","0","f","f","space","NA","return","space","f","1273","3221","25183","NA","28491","22800","1273","2","legacy","1024","1","44100","-16","experiment","ʃfal","4","0","1","0","1","italienisch, englisch, franzoesisch","8","","even","656817","631106","NA","NA","660039","656813","NA","1650","656345","1650","1650","525641","554137","763896","762391","765171","599728","577258","631105","NA","440777","505428","629453","577004","656817","577262","NA","763895","763895","NA","NA","762387","NAP perception","28","42949","35","yes","1024"
"80.5555555556","yes","80.5555555556","1223.08333333","1223.08333333","white","no","xpyriment","Ich habe die obigen Informationen gelesen und verstanden.","legacy","legacy","0","uniform","1","0","0","undefined","undefined","1","f","2","1","NA","0","1","0","0","0","0","0","0","0","0","45","45","45","0","0","0","NA","0","0","2","0","0","0","2","45","45","45","45","45","Wed Oct  4 20:44:21 2017","Forced-choice identification task with a practice and an experimental phase","yes","NAP_GER_AA_4blocks_noglides.osexp","/Users/aviadalbert/Documents/Academisch/UoC/Dissertation/Experiment/OpenSesame/NAP-FC/NAP_GER_AA_4blocks_noglides","yes","no","sans","no","20","no","black","no","Weiter","yes","768","legacy","35","9","0","/Users/aviadalbert/Documents/Academisch/UoC/Dissertation/Experiment/OpenSesame/NAP-FC/NAP_GER_AA_4blocks_noglides/subject-8.csv","xpyriment","Jazzy James","3.1.9","yes","yes","59a800d99ad5a1025d81bb03","59a801616c613b0251691de0","no","no","0","f","f","space","NA","return","space","f","1082","3221","25183","NA","28491","22800","1082","2","legacy","1024","1","44100","-16","experiment","ftal","4","0","1","0","1","italienisch, englisch, franzoesisch","8","","even","656817","631106","NA","NA","660039","656813","NA","1650","656345","1650","1650","525641","554137","766966","765462","768050","599728","577258","631105","NA","440777","505428","629453","577004","656817","577262","NA","766966","766966","NA","NA","765457","NAP perception","29","44031","36","yes","1024"
"81.0810810811","yes","81.0810810811","1259.56756757","1259.56756757","white","no","xpyriment","Ich habe die obigen Informationen gelesen und verstanden.","legacy","legacy","0","uniform","1","0","0","undefined","undefined","1","f","2","1","NA","0","1","0","0","0","0","0","0","0","0","46","46","46","0","0","0","NA","0","0","2","0","0","0","2","46","46","46","46","46","Wed Oct  4 20:44:21 2017","Forced-choice identification task with a practice and an experimental phase","yes","NAP_GER_AA_4blocks_noglides.osexp","/Users/aviadalbert/Documents/Academisch/UoC/Dissertation/Experiment/OpenSesame/NAP-FC/NAP_GER_AA_4blocks_noglides","yes","no","sans","no","20","no","black","no","Weiter","yes","768","legacy","36","9","0","/Users/aviadalbert/Documents/Academisch/UoC/Dissertation/Experiment/OpenSesame/NAP-FC/NAP_GER_AA_4blocks_noglides/subject-8.csv","xpyriment","Jazzy James","3.1.9","yes","yes","59a800d99ad5a1025d81bb03","59a801616c613b0251691de0","no","no","0","f","f","space","NA","return","space","f","2573","3221","25183","NA","28491","22800","2573","2","legacy","1024","1","44100","-16","experiment","lval","4","0","1","0","1","italienisch, englisch, franzoesisch","8","","even","656817","631106","NA","NA","660039","656813","NA","1650","656345","1650","1650","525641","554137","769843","768339","772418","599728","577258","631105","NA","440777","505428","629453","577004","656817","577262","NA","769843","769843","NA","NA","768334","NAP perception","30","46604","37","yes","1024"
"81.5789473684","yes","81.5789473684","1251.02631579","1251.02631579","white","no","xpyriment","Ich habe die obigen Informationen gelesen und verstanden.","legacy","legacy","0","uniform","1","0","0","undefined","undefined","1","f","2","1","NA","0","1","0","0","0","0","0","0","0","0","47","47","47","0","0","0","NA","0","0","2","0","0","0","2","47","47","47","47","47","Wed Oct  4 20:44:21 2017","Forced-choice identification task with a practice and an experimental phase","yes","NAP_GER_AA_4blocks_noglides.osexp","/Users/aviadalbert/Documents/Academisch/UoC/Dissertation/Experiment/OpenSesame/NAP-FC/NAP_GER_AA_4blocks_noglides","yes","no","sans","no","20","no","black","no","Weiter","yes","768","legacy","37","9","0","/Users/aviadalbert/Documents/Academisch/UoC/Dissertation/Experiment/OpenSesame/NAP-FC/NAP_GER_AA_4blocks_noglides/subject-8.csv","xpyriment","Jazzy James","3.1.9","yes","yes","59a800d99ad5a1025d81bb03","59a801616c613b0251691de0","no","no","0","f","f","space","NA","return","space","f","935","3221","25183","NA","28491","22800","935","2","legacy","1024","1","44100","-16","experiment","ftal","4","0","1","0","1","italienisch, englisch, franzoesisch","8","","even","656817","631106","NA","NA","660039","656813","NA","1650","656345","1650","1650","525641","554137","774188","772683","775125","599728","577258","631105","NA","440777","505428","629453","577004","656817","577262","NA","774187","774187","NA","NA","772679","NAP perception","31","47539","38","yes","1024"
"82.0512820513","yes","82.0512820513","1240.61538462","1240.61538462","white","no","xpyriment","Ich habe die obigen Informationen gelesen und verstanden.","legacy","legacy","0","uniform","1","0","0","undefined","undefined","1","j","2","1","NA","0","1","0","0","0","0","0","0","0","0","48","48","48","0","0","0","NA","0","0","2","0","0","0","2","48","48","48","48","48","Wed Oct  4 20:44:21 2017","Forced-choice identification task with a practice and an experimental phase","yes","NAP_GER_AA_4blocks_noglides.osexp","/Users/aviadalbert/Documents/Academisch/UoC/Dissertation/Experiment/OpenSesame/NAP-FC/NAP_GER_AA_4blocks_noglides","yes","no","sans","no","20","no","black","no","Weiter","yes","768","legacy","38","9","0","/Users/aviadalbert/Documents/Academisch/UoC/Dissertation/Experiment/OpenSesame/NAP-FC/NAP_GER_AA_4blocks_noglides/subject-8.csv","xpyriment","Jazzy James","3.1.9","yes","yes","59a800d99ad5a1025d81bb03","59a801616c613b0251691de0","no","no","0","j","f","space","NA","return","space","j","845","3221","25183","NA","28491","22800","845","2","legacy","1024","1","44100","-16","experiment","espal","4","0","1","0","1","italienisch, englisch, franzoesisch","8","","even","656817","631106","NA","NA","660039","656813","NA","1650","656345","1650","1650","525641","554137","776913","775409","777760","599728","577258","631105","NA","440777","505428","629453","577004","656817","577262","NA","776913","776913","NA","NA","775404","NAP perception","32","48384","39","yes","1024"
"82.5","yes","82.5","1230.9","1230.9","white","no","xpyriment","Ich habe die obigen Informationen gelesen und verstanden.","legacy","legacy","0","uniform","1","0","0","undefined","undefined","1","j","2","1","NA","0","1","0","0","0","0","0","0","0","0","49","49","49","0","0","0","NA","0","0","2","0","0","0","2","49","49","49","49","49","Wed Oct  4 20:44:21 2017","Forced-choice identification task with a practice and an experimental phase","yes","NAP_GER_AA_4blocks_noglides.osexp","/Users/aviadalbert/Documents/Academisch/UoC/Dissertation/Experiment/OpenSesame/NAP-FC/NAP_GER_AA_4blocks_noglides","yes","no","sans","no","20","no","black","no","Weiter","yes","768","legacy","39","9","0","/Users/aviadalbert/Documents/Academisch/UoC/Dissertation/Experiment/OpenSesame/NAP-FC/NAP_GER_AA_4blocks_noglides/subject-8.csv","xpyriment","Jazzy James","3.1.9","yes","yes","59a800d99ad5a1025d81bb03","59a801616c613b0251691de0","no","no","0","j","f","space","NA","return","space","j","852","3221","25183","NA","28491","22800","852","2","legacy","1024","1","44100","-16","experiment","zemal","4","0","1","0","1","italienisch, englisch, franzoesisch","8","","even","656817","631106","NA","NA","660039","656813","NA","1650","656345","1650","1650","525641","554137","779535","778030","780389","599728","577258","631105","NA","440777","505428","629453","577004","656817","577262","NA","779535","779535","NA","NA","778026","NAP perception","33","49236","40","yes","1024"
"82.9268292683","yes","82.9268292683","1221.12195122","1221.12195122","white","no","xpyriment","Ich habe die obigen Informationen gelesen und verstanden.","legacy","legacy","0","uniform","1","0","0","undefined","undefined","1","j","2","1","NA","0","1","0","0","0","0","0","0","0","0","50","50","50","0","0","0","NA","0","0","2","0","0","0","2","50","50","50","50","50","Wed Oct  4 20:44:21 2017","Forced-choice identification task with a practice and an experimental phase","yes","NAP_GER_AA_4blocks_noglides.osexp","/Users/aviadalbert/Documents/Academisch/UoC/Dissertation/Experiment/OpenSesame/NAP-FC/NAP_GER_AA_4blocks_noglides","yes","no","sans","no","20","no","black","no","Weiter","yes","768","legacy","40","9","0","/Users/aviadalbert/Documents/Academisch/UoC/Dissertation/Experiment/OpenSesame/NAP-FC/NAP_GER_AA_4blocks_noglides/subject-8.csv","xpyriment","Jazzy James","3.1.9","yes","yes","59a800d99ad5a1025d81bb03","59a801616c613b0251691de0","no","no","0","j","f","space","NA","return","space","j","830","3221","25183","NA","28491","22800","830","2","legacy","1024","1","44100","-16","experiment","ʃefal","4","0","1","0","1","italienisch, englisch, franzoesisch","8","","even","656817","631106","NA","NA","660039","656813","NA","1650","656345","1650","1650","525641","554137","782161","780657","782993","599728","577258","631105","NA","440777","505428","629453","577004","656817","577262","NA","782160","782160","NA","NA","780653","NAP perception","34","50066","41","yes","1024"
"83.3333333333","yes","83.3333333333","1234.5952381","1234.5952381","white","no","xpyriment","Ich habe die obigen Informationen gelesen und verstanden.","legacy","legacy","0","uniform","1","0","0","undefined","undefined","1","f","2","1","NA","0","1","0","0","0","0","0","0","0","0","51","51","51","0","0","0","NA","0","0","2","0","0","0","2","51","51","51","51","51","Wed Oct  4 20:44:21 2017","Forced-choice identification task with a practice and an experimental phase","yes","NAP_GER_AA_4blocks_noglides.osexp","/Users/aviadalbert/Documents/Academisch/UoC/Dissertation/Experiment/OpenSesame/NAP-FC/NAP_GER_AA_4blocks_noglides","yes","no","sans","no","20","no","black","no","Weiter","yes","768","legacy","41","9","0","/Users/aviadalbert/Documents/Academisch/UoC/Dissertation/Experiment/OpenSesame/NAP-FC/NAP_GER_AA_4blocks_noglides/subject-8.csv","xpyriment","Jazzy James","3.1.9","yes","yes","59a800d99ad5a1025d81bb03","59a801616c613b0251691de0","no","no","0","f","f","space","NA","return","space","f","1787","3221","25183","NA","28491","22800","1787","2","legacy","1024","1","44100","-16","experiment","fsal","4","0","1","0","1","italienisch, englisch, franzoesisch","8","","even","656817","631106","NA","NA","660039","656813","NA","1650","656345","1650","1650","525641","554137","784771","783266","786560","599728","577258","631105","NA","440777","505428","629453","577004","656817","577262","NA","784771","784771","NA","NA","783262","NAP perception","35","51853","42","yes","1024"
"83.7209302326","yes","83.7209302326","1223.88372093","1223.88372093","white","no","xpyriment","Ich habe die obigen Informationen gelesen und verstanden.","legacy","legacy","0","uniform","1","0","0","undefined","undefined","1","j","2","1","NA","0","1","0","0","0","0","0","0","0","0","52","52","52","0","0","0","NA","0","0","2","0","0","0","2","52","52","52","52","52","Wed Oct  4 20:44:21 2017","Forced-choice identification task with a practice and an experimental phase","yes","NAP_GER_AA_4blocks_noglides.osexp","/Users/aviadalbert/Documents/Academisch/UoC/Dissertation/Experiment/OpenSesame/NAP-FC/NAP_GER_AA_4blocks_noglides","yes","no","sans","no","20","no","black","no","Weiter","yes","768","legacy","42","9","0","/Users/aviadalbert/Documents/Academisch/UoC/Dissertation/Experiment/OpenSesame/NAP-FC/NAP_GER_AA_4blocks_noglides/subject-8.csv","xpyriment","Jazzy James","3.1.9","yes","yes","59a800d99ad5a1025d81bb03","59a801616c613b0251691de0","no","no","0","j","f","space","NA","return","space","j","774","3221","25183","NA","28491","22800","774","2","legacy","1024","1","44100","-16","experiment","emsal","4","0","1","0","1","italienisch, englisch, franzoesisch","8","","even","656817","631106","NA","NA","660039","656813","NA","1650","656345","1650","1650","525641","554137","788341","786836","789117","599728","577258","631105","NA","440777","505428","629453","577004","656817","577262","NA","788340","788341","NA","NA","786832","NAP perception","36","52627","43","yes","1024"
"84.0909090909","yes","84.0909090909","1220.77272727","1220.77272727","white","no","xpyriment","Ich habe die obigen Informationen gelesen und verstanden.","legacy","legacy","0","uniform","1","0","0","undefined","undefined","1","f","2","1","NA","0","1","0","0","0","0","0","0","0","0","53","53","53","0","0","0","NA","0","0","2","0","0","0","2","53","53","53","53","53","Wed Oct  4 20:44:21 2017","Forced-choice identification task with a practice and an experimental phase","yes","NAP_GER_AA_4blocks_noglides.osexp","/Users/aviadalbert/Documents/Academisch/UoC/Dissertation/Experiment/OpenSesame/NAP-FC/NAP_GER_AA_4blocks_noglides","yes","no","sans","no","20","no","black","no","Weiter","yes","768","legacy","43","9","0","/Users/aviadalbert/Documents/Academisch/UoC/Dissertation/Experiment/OpenSesame/NAP-FC/NAP_GER_AA_4blocks_noglides/subject-8.csv","xpyriment","Jazzy James","3.1.9","yes","yes","59a800d99ad5a1025d81bb03","59a801616c613b0251691de0","no","no","0","f","f","space","NA","return","space","f","1087","3221","25183","NA","28491","22800","1087","2","legacy","1024","1","44100","-16","experiment","nfal","4","0","1","0","1","italienisch, englisch, franzoesisch","8","","even","656817","631106","NA","NA","660039","656813","NA","1650","656345","1650","1650","525641","554137","790902","789394","791991","599728","577258","631105","NA","440777","505428","629453","577004","656817","577262","NA","790902","790902","NA","NA","789390","NAP perception","37","53714","44","yes","1024"
"84.4444444444","yes","84.4444444444","1213.91111111","1213.91111111","white","no","xpyriment","Ich habe die obigen Informationen gelesen und verstanden.","legacy","legacy","0","uniform","1","0","0","undefined","undefined","1","j","2","1","NA","0","1","0","0","0","0","0","0","0","0","54","54","54","0","0","0","NA","0","0","2","0","0","0","2","54","54","54","54","54","Wed Oct  4 20:44:21 2017","Forced-choice identification task with a practice and an experimental phase","yes","NAP_GER_AA_4blocks_noglides.osexp","/Users/aviadalbert/Documents/Academisch/UoC/Dissertation/Experiment/OpenSesame/NAP-FC/NAP_GER_AA_4blocks_noglides","yes","no","sans","no","20","no","black","no","Weiter","yes","768","legacy","44","9","0","/Users/aviadalbert/Documents/Academisch/UoC/Dissertation/Experiment/OpenSesame/NAP-FC/NAP_GER_AA_4blocks_noglides/subject-8.csv","xpyriment","Jazzy James","3.1.9","yes","yes","59a800d99ad5a1025d81bb03","59a801616c613b0251691de0","no","no","0","j","f","space","NA","return","space","j","912","3221","25183","NA","28491","22800","912","2","legacy","1024","1","44100","-16","experiment","menal","4","0","1","0","1","italienisch, englisch, franzoesisch","8","","even","656817","631106","NA","NA","660039","656813","NA","1650","656345","1650","1650","525641","554137","793762","792257","794675","599728","577258","631105","NA","440777","505428","629453","577004","656817","577262","NA","793761","793761","NA","NA","792253","NAP perception","38","54626","45","yes","1024"
"84.7826086957","yes","84.7826086957","1204.67391304","1204.67391304","white","no","xpyriment","Ich habe die obigen Informationen gelesen und verstanden.","legacy","legacy","0","uniform","1","0","0","undefined","undefined","1","j","2","1","NA","0","1","0","0","0","0","0","0","0","0","55","55","55","0","0","0","NA","0","0","2","0","0","0","2","55","55","55","55","55","Wed Oct  4 20:44:21 2017","Forced-choice identification task with a practice and an experimental phase","yes","NAP_GER_AA_4blocks_noglides.osexp","/Users/aviadalbert/Documents/Academisch/UoC/Dissertation/Experiment/OpenSesame/NAP-FC/NAP_GER_AA_4blocks_noglides","yes","no","sans","no","20","no","black","no","Weiter","yes","768","legacy","45","9","0","/Users/aviadalbert/Documents/Academisch/UoC/Dissertation/Experiment/OpenSesame/NAP-FC/NAP_GER_AA_4blocks_noglides/subject-8.csv","xpyriment","Jazzy James","3.1.9","yes","yes","59a800d99ad5a1025d81bb03","59a801616c613b0251691de0","no","no","0","j","f","space","NA","return","space","j","789","3221","25183","NA","28491","22800","789","2","legacy","1024","1","44100","-16","experiment","eʃfal","4","0","1","0","1","italienisch, englisch, franzoesisch","8","","even","656817","631106","NA","NA","660039","656813","NA","1650","656345","1650","1650","525641","554137","796457","794953","797247","599728","577258","631105","NA","440777","505428","629453","577004","656817","577262","NA","796457","796457","NA","NA","794949","NAP perception","39","55415","46","yes","1024"
"85.1063829787","yes","85.1063829787","1195.14893617","1195.14893617","white","no","xpyriment","Ich habe die obigen Informationen gelesen und verstanden.","legacy","legacy","0","uniform","1","0","0","undefined","undefined","1","j","2","1","NA","0","1","0","0","0","0","0","0","0","0","56","56","56","0","0","0","NA","0","0","2","0","0","0","2","56","56","56","56","56","Wed Oct  4 20:44:21 2017","Forced-choice identification task with a practice and an experimental phase","yes","NAP_GER_AA_4blocks_noglides.osexp","/Users/aviadalbert/Documents/Academisch/UoC/Dissertation/Experiment/OpenSesame/NAP-FC/NAP_GER_AA_4blocks_noglides","yes","no","sans","no","20","no","black","no","Weiter","yes","768","legacy","46","9","0","/Users/aviadalbert/Documents/Academisch/UoC/Dissertation/Experiment/OpenSesame/NAP-FC/NAP_GER_AA_4blocks_noglides/subject-8.csv","xpyriment","Jazzy James","3.1.9","yes","yes","59a800d99ad5a1025d81bb03","59a801616c613b0251691de0","no","no","0","j","f","space","NA","return","space","j","757","3221","25183","NA","28491","22800","757","2","legacy","1024","1","44100","-16","experiment","emnal","4","0","1","0","1","italienisch, englisch, franzoesisch","8","","even","656817","631106","NA","NA","660039","656813","NA","1650","656345","1650","1650","525641","554137","799010","797506","799768","599728","577258","631105","NA","440777","505428","629453","577004","656817","577262","NA","799009","799009","NA","NA","797502","NAP perception","40","56172","47","yes","1024"
"85.4166666667","yes","85.4166666667","1186.27083333","1186.27083333","white","no","xpyriment","Ich habe die obigen Informationen gelesen und verstanden.","legacy","legacy","0","uniform","1","0","0","undefined","undefined","1","j","2","1","NA","0","1","0","0","0","0","0","0","0","0","57","57","57","0","0","0","NA","0","0","2","0","0","0","2","57","57","57","57","57","Wed Oct  4 20:44:21 2017","Forced-choice identification task with a practice and an experimental phase","yes","NAP_GER_AA_4blocks_noglides.osexp","/Users/aviadalbert/Documents/Academisch/UoC/Dissertation/Experiment/OpenSesame/NAP-FC/NAP_GER_AA_4blocks_noglides","yes","no","sans","no","20","no","black","no","Weiter","yes","768","legacy","47","9","0","/Users/aviadalbert/Documents/Academisch/UoC/Dissertation/Experiment/OpenSesame/NAP-FC/NAP_GER_AA_4blocks_noglides/subject-8.csv","xpyriment","Jazzy James","3.1.9","yes","yes","59a800d99ad5a1025d81bb03","59a801616c613b0251691de0","no","no","0","j","f","space","NA","return","space","j","769","3221","25183","NA","28491","22800","769","2","legacy","1024","1","44100","-16","experiment","nepal","4","0","1","0","1","italienisch, englisch, franzoesisch","8","","even","656817","631106","NA","NA","660039","656813","NA","1650","656345","1650","1650","525641","554137","801549","800045","802319","599728","577258","631105","NA","440777","505428","629453","577004","656817","577262","NA","801549","801549","NA","NA","800041","NAP perception","41","56941","48","yes","1024"
"85.7142857143","yes","85.7142857143","1175.40816327","1175.40816327","white","no","xpyriment","Ich habe die obigen Informationen gelesen und verstanden.","legacy","legacy","0","uniform","1","0","0","undefined","undefined","1","j","2","1","NA","0","1","0","0","0","0","0","0","0","0","58","58","58","0","0","0","NA","0","0","2","0","0","0","2","58","58","58","58","58","Wed Oct  4 20:44:21 2017","Forced-choice identification task with a practice and an experimental phase","yes","NAP_GER_AA_4blocks_noglides.osexp","/Users/aviadalbert/Documents/Academisch/UoC/Dissertation/Experiment/OpenSesame/NAP-FC/NAP_GER_AA_4blocks_noglides","yes","no","sans","no","20","no","black","no","Weiter","yes","768","legacy","48","9","0","/Users/aviadalbert/Documents/Academisch/UoC/Dissertation/Experiment/OpenSesame/NAP-FC/NAP_GER_AA_4blocks_noglides/subject-8.csv","xpyriment","Jazzy James","3.1.9","yes","yes","59a800d99ad5a1025d81bb03","59a801616c613b0251691de0","no","no","0","j","f","space","NA","return","space","j","654","3221","25183","NA","28491","22800","654","2","legacy","1024","1","44100","-16","experiment","ʃepal","4","0","1","0","1","italienisch, englisch, franzoesisch","8","","even","656817","631106","NA","NA","660039","656813","NA","1650","656345","1650","1650","525641","554137","804089","802584","804744","599728","577258","631105","NA","440777","505428","629453","577004","656817","577262","NA","804089","804089","NA","NA","802580","NAP perception","42","57595","49","yes","1024"
"86","yes","86","1163.08","1163.08","white","no","xpyriment","Ich habe die obigen Informationen gelesen und verstanden.","legacy","legacy","0","uniform","1","0","0","undefined","undefined","1","j","2","1","NA","0","1","0","0","0","0","0","0","0","0","59","59","59","0","0","0","NA","0","0","2","0","0","0","2","59","59","59","59","59","Wed Oct  4 20:44:21 2017","Forced-choice identification task with a practice and an experimental phase","yes","NAP_GER_AA_4blocks_noglides.osexp","/Users/aviadalbert/Documents/Academisch/UoC/Dissertation/Experiment/OpenSesame/NAP-FC/NAP_GER_AA_4blocks_noglides","yes","no","sans","no","20","no","black","no","Weiter","yes","768","legacy","49","9","0","/Users/aviadalbert/Documents/Academisch/UoC/Dissertation/Experiment/OpenSesame/NAP-FC/NAP_GER_AA_4blocks_noglides/subject-8.csv","xpyriment","Jazzy James","3.1.9","yes","yes","59a800d99ad5a1025d81bb03","59a801616c613b0251691de0","no","no","0","j","f","space","NA","return","space","j","559","3221","25183","NA","28491","22800","559","2","legacy","1024","1","44100","-16","experiment","efnal","4","0","1","0","1","italienisch, englisch, franzoesisch","8","","even","656817","631106","NA","NA","660039","656813","NA","1650","656345","1650","1650","525641","554137","806517","805009","807078","599728","577258","631105","NA","440777","505428","629453","577004","656817","577262","NA","806517","806517","NA","NA","805005","NAP perception","43","58154","50","yes","1024"
"84.3137254902","yes","84.3137254902","1157.62745098","1157.62745098","white","no","xpyriment","Ich habe die obigen Informationen gelesen und verstanden.","legacy","legacy","0","uniform","0","0","0","undefined","undefined","0","f","2","1","NA","0","1","0","0","0","0","0","0","0","0","60","60","60","0","0","0","NA","0","0","2","0","0","0","2","60","60","60","60","60","Wed Oct  4 20:44:21 2017","Forced-choice identification task with a practice and an experimental phase","yes","NAP_GER_AA_4blocks_noglides.osexp","/Users/aviadalbert/Documents/Academisch/UoC/Dissertation/Experiment/OpenSesame/NAP-FC/NAP_GER_AA_4blocks_noglides","yes","no","sans","no","20","no","black","no","Weiter","yes","768","legacy","50","9","0","/Users/aviadalbert/Documents/Academisch/UoC/Dissertation/Experiment/OpenSesame/NAP-FC/NAP_GER_AA_4blocks_noglides/subject-8.csv","xpyriment","Jazzy James","3.1.9","yes","yes","59a800d99ad5a1025d81bb03","59a801616c613b0251691de0","no","no","0","j","f","space","NA","return","space","j","885","3221","25183","NA","28491","22800","885","2","legacy","1024","1","44100","-16","experiment","nmal","4","0","1","0","1","italienisch, englisch, franzoesisch","8","","even","656817","631106","NA","NA","660039","656813","NA","1650","656345","1650","1650","525641","554137","808854","807350","809741","599728","577258","631105","NA","440777","505428","629453","577004","656817","577262","NA","808854","808854","NA","NA","807346","NAP perception","43","59039","51","yes","1024"
"84.6153846154","yes","84.6153846154","1155.11538462","1155.11538462","white","no","xpyriment","Ich habe die obigen Informationen gelesen und verstanden.","legacy","legacy","0","uniform","1","0","0","undefined","undefined","1","f","2","1","NA","0","1","0","0","0","0","0","0","0","0","61","61","61","0","0","0","NA","0","0","2","0","0","0","2","61","61","61","61","61","Wed Oct  4 20:44:21 2017","Forced-choice identification task with a practice and an experimental phase","yes","NAP_GER_AA_4blocks_noglides.osexp","/Users/aviadalbert/Documents/Academisch/UoC/Dissertation/Experiment/OpenSesame/NAP-FC/NAP_GER_AA_4blocks_noglides","yes","no","sans","no","20","no","black","no","Weiter","yes","768","legacy","51","9","0","/Users/aviadalbert/Documents/Academisch/UoC/Dissertation/Experiment/OpenSesame/NAP-FC/NAP_GER_AA_4blocks_noglides/subject-8.csv","xpyriment","Jazzy James","3.1.9","yes","yes","59a800d99ad5a1025d81bb03","59a801616c613b0251691de0","no","no","0","f","f","space","NA","return","space","f","1027","3221","25183","NA","28491","22800","1027","2","legacy","1024","1","44100","-16","experiment","lmal","4","0","1","0","1","italienisch, englisch, franzoesisch","8","","even","656817","631106","NA","NA","660039","656813","NA","1650","656345","1650","1650","525641","554137","811524","810019","812553","599728","577258","631105","NA","440777","505428","629453","577004","656817","577262","NA","811524","811524","NA","NA","810014","NAP perception","44","60066","52","yes","1024"
"84.9056603774","yes","84.9056603774","1152.05660377","1152.05660377","white","no","xpyriment","Ich habe die obigen Informationen gelesen und verstanden.","legacy","legacy","0","uniform","1","0","0","undefined","undefined","1","f","2","1","NA","0","1","0","0","0","0","0","0","0","0","62","62","62","0","0","0","NA","0","0","2","0","0","0","2","62","62","62","62","62","Wed Oct  4 20:44:21 2017","Forced-choice identification task with a practice and an experimental phase","yes","NAP_GER_AA_4blocks_noglides.osexp","/Users/aviadalbert/Documents/Academisch/UoC/Dissertation/Experiment/OpenSesame/NAP-FC/NAP_GER_AA_4blocks_noglides","yes","no","sans","no","20","no","black","no","Weiter","yes","768","legacy","52","9","0","/Users/aviadalbert/Documents/Academisch/UoC/Dissertation/Experiment/OpenSesame/NAP-FC/NAP_GER_AA_4blocks_noglides/subject-8.csv","xpyriment","Jazzy James","3.1.9","yes","yes","59a800d99ad5a1025d81bb03","59a801616c613b0251691de0","no","no","0","f","f","space","NA","return","space","f","993","3221","25183","NA","28491","22800","993","2","legacy","1024","1","44100","-16","experiment","lval","4","0","1","0","1","italienisch, englisch, franzoesisch","8","","even","656817","631106","NA","NA","660039","656813","NA","1650","656345","1650","1650","525641","554137","814331","812825","815326","599728","577258","631105","NA","440777","505428","629453","577004","656817","577262","NA","814331","814331","NA","NA","812821","NAP perception","45","61059","53","yes","1024"
"85.1851851852","yes","85.1851851852","1138.87037037","1138.87037037","white","no","xpyriment","Ich habe die obigen Informationen gelesen und verstanden.","legacy","legacy","0","uniform","1","0","0","undefined","undefined","1","f","2","1","NA","0","1","0","0","0","0","0","0","0","0","63","63","63","0","0","0","NA","0","0","2","0","0","0","2","63","63","63","63","63","Wed Oct  4 20:44:21 2017","Forced-choice identification task with a practice and an experimental phase","yes","NAP_GER_AA_4blocks_noglides.osexp","/Users/aviadalbert/Documents/Academisch/UoC/Dissertation/Experiment/OpenSesame/NAP-FC/NAP_GER_AA_4blocks_noglides","yes","no","sans","no","20","no","black","no","Weiter","yes","768","legacy","53","9","0","/Users/aviadalbert/Documents/Academisch/UoC/Dissertation/Experiment/OpenSesame/NAP-FC/NAP_GER_AA_4blocks_noglides/subject-8.csv","xpyriment","Jazzy James","3.1.9","yes","yes","59a800d99ad5a1025d81bb03","59a801616c613b0251691de0","no","no","0","f","f","space","NA","return","space","f","440","3221","25183","NA","28491","22800","440","2","legacy","1024","1","44100","-16","experiment","lpal","4","0","1","0","1","italienisch, englisch, franzoesisch","8","","even","656817","631106","NA","NA","660039","656813","NA","1650","656345","1650","1650","525641","554137","817108","815604","817550","599728","577258","631105","NA","440777","505428","629453","577004","656817","577262","NA","817107","817107","NA","NA","815600","NAP perception","46","61499","54","yes","1024"
"85.4545454545","yes","85.4545454545","1131.36363636","1131.36363636","white","no","xpyriment","Ich habe die obigen Informationen gelesen und verstanden.","legacy","legacy","0","uniform","1","0","0","undefined","undefined","1","f","2","1","NA","0","1","0","0","0","0","0","0","0","0","64","64","64","0","0","0","NA","0","0","2","0","0","0","2","64","64","64","64","64","Wed Oct  4 20:44:21 2017","Forced-choice identification task with a practice and an experimental phase","yes","NAP_GER_AA_4blocks_noglides.osexp","/Users/aviadalbert/Documents/Academisch/UoC/Dissertation/Experiment/OpenSesame/NAP-FC/NAP_GER_AA_4blocks_noglides","yes","no","sans","no","20","no","black","no","Weiter","yes","768","legacy","54","9","0","/Users/aviadalbert/Documents/Academisch/UoC/Dissertation/Experiment/OpenSesame/NAP-FC/NAP_GER_AA_4blocks_noglides/subject-8.csv","xpyriment","Jazzy James","3.1.9","yes","yes","59a800d99ad5a1025d81bb03","59a801616c613b0251691de0","no","no","0","f","f","space","NA","return","space","f","726","3221","25183","NA","28491","22800","726","2","legacy","1024","1","44100","-16","experiment","ʃmal","4","0","1","0","1","italienisch, englisch, franzoesisch","8","","even","656817","631106","NA","NA","660039","656813","NA","1650","656345","1650","1650","525641","554137","819328","817821","820056","599728","577258","631105","NA","440777","505428","629453","577004","656817","577262","NA","819327","819327","NA","NA","817816","NAP perception","47","62225","55","yes","1024"
