"acc","accept_status","accuracy","average_response_time","avg_rt","background","bidi","canvas_backend","checkbox_status","clock_backend","color_backend","compensation","coordinates","correct","correct_block_activation","correct_block_exit","correct_instructions_1","correct_instructions_2","correct_keyboard_response","correct_response","count_block_activation","count_block_exit","count_block_info_QA","count_cont_e_block_message","count_e_block_loop","count_e_block_sequence","count_end_of_experiment","count_experiment","count_experimental_loop","count_form_consent","count_info_forms","count_instructions_1","count_instructions_2","count_keyboard_response","count_listen_message","count_logger","count_p_block_loop","count_p_block_sequence","count_p_feedback","count_pause_feedback","count_personal_details_form_1","count_personal_details_form_2","count_post_loop_blank","count_practice_loop","count_pre_e_block_message","count_pre_p_block_message","count_reset_feedback","count_stimulus_image","count_stimulus_sound","count_timeout_message","count_timeout_sound","count_trial_sequence","datetime","description","disable_garbage_collection","experiment_file","experiment_path","expyriment_opengl","font_bold","font_family","font_italic","font_size","font_underline","foreground","form_clicks","form_response","fullscreen","height","keyboard_backend","live_row","live_row_p_block_loop","live_row_practice_loop","logfile","mouse_backend","opensesame_codename","opensesame_version","osf_always_upload_data","osf_always_upload_experiment","osf_datanode_id","osf_id","practice","pygame_doublebuf","repeat_cycle","response","response_block_activation","response_block_exit","response_block_info_QA","response_instructions_1","response_instructions_2","response_keyboard_response","response_time","response_time_block_activation","response_time_block_exit","response_time_block_info_QA","response_time_instructions_1","response_time_instructions_2","response_time_keyboard_response","round_decimals","sampler_backend","sound_buf_size","sound_channels","sound_freq","sound_sample_size","start","stimulus","subject_age","subject_education","subject_gender","subject_german_native","subject_handedness","subject_language_other","subject_nr","subject_other_native_lang","subject_parity","time_block_activation","time_block_exit","time_block_info_QA","time_cont_e_block_message","time_e_block_loop","time_e_block_sequence","time_end_of_experiment","time_experiment","time_experimental_loop","time_form_consent","time_info_forms","time_instructions_1","time_instructions_2","time_keyboard_response","time_listen_message","time_logger","time_p_block_loop","time_p_block_sequence","time_p_feedback","time_pause_feedback","time_personal_details_form_1","time_personal_details_form_2","time_post_loop_blank","time_practice_loop","time_pre_e_block_message","time_pre_p_block_message","time_reset_feedback","time_stimulus_image","time_stimulus_sound","time_timeout_message","time_timeout_sound","time_trial_sequence","title","total_correct","total_response_time","total_responses","uniform_coordinates","width"
"100","yes","100","2045","2045","white","no","xpyriment","Ich habe die obigen Informationen gelesen und verstanden.","legacy","legacy","0","uniform","1","0","NA","undefined","undefined","1","f","0","0","NA","NA","NA","NA","NA","0","0","0","0","0","0","0","0","0","0","0","NA","NA","0","0","0","0","NA","0","0","0","0","0","0","0","Thu Oct 26 13:45:56 2017","Forced-choice identification task with a practice and an experimental phase","yes","NAP_GER_AA_4blocks_noglides.osexp","/Users/aviadalbert/Documents/Academisch/UoC/Dissertation/Experiment/OpenSesame/NAP-FC/NAP_GER_AA_4blocks_noglides","yes","no","sans","no","20","no","black","no","Weiter","yes","768","legacy","0","0","0","/Users/aviadalbert/Documents/Academisch/UoC/Dissertation/Experiment/OpenSesame/NAP-FC/NAP_GER_AA_4blocks_noglides/subject-26.csv","xpyriment","Jazzy James","3.1.9","yes","yes","59a800d99ad5a1025d81bb03","59a801616c613b0251691de0","yes","no","0","f","f","NA","NA","u","u","f","2045","6517","NA","NA","27642","10338","2045","2","legacy","1024","1","44100","-16","experiment","flal","2","0","0","0","1","English","26","","even","1891900","NA","NA","NA","NA","NA","NA","1763004","NA","1763004","1763004","1853610","1881256","1900120","1898617","1902166","1898418","1891896","NA","NA","1810526","1844112","NA","1891659","NA","1891900","NA","1900120","1900120","NA","NA","1898614","NAP perception","1","2045","1","yes","1024"
"100","yes","100","1850","1850","white","no","xpyriment","Ich habe die obigen Informationen gelesen und verstanden.","legacy","legacy","0","uniform","1","0","NA","undefined","undefined","1","j","0","0","NA","NA","NA","NA","NA","0","0","0","0","0","0","1","1","1","0","0","NA","NA","0","0","0","0","NA","0","0","1","1","1","1","1","Thu Oct 26 13:45:56 2017","Forced-choice identification task with a practice and an experimental phase","yes","NAP_GER_AA_4blocks_noglides.osexp","/Users/aviadalbert/Documents/Academisch/UoC/Dissertation/Experiment/OpenSesame/NAP-FC/NAP_GER_AA_4blocks_noglides","yes","no","sans","no","20","no","black","no","Weiter","yes","768","legacy","1","1","0","/Users/aviadalbert/Documents/Academisch/UoC/Dissertation/Experiment/OpenSesame/NAP-FC/NAP_GER_AA_4blocks_noglides/subject-26.csv","xpyriment","Jazzy James","3.1.9","yes","yes","59a800d99ad5a1025d81bb03","59a801616c613b0251691de0","yes","no","0","j","f","NA","NA","u","u","j","1655","6517","NA","NA","27642","10338","1655","2","legacy","1024","1","44100","-16","experiment","lepal","2","0","0","0","1","English","26","","even","1891900","NA","NA","NA","NA","NA","NA","1763004","NA","1763004","1763004","1853610","1881256","1903937","1902430","1905593","1898418","1891896","NA","NA","1810526","1844112","NA","1891659","NA","1891900","NA","1903937","1903937","NA","NA","1902426","NAP perception","2","3700","2","yes","1024"
"100","yes","100","1660.66666667","1660.66666667","white","no","xpyriment","Ich habe die obigen Informationen gelesen und verstanden.","legacy","legacy","0","uniform","1","0","NA","undefined","undefined","1","j","0","0","NA","NA","NA","NA","NA","0","0","0","0","0","0","2","2","2","0","0","NA","NA","0","0","0","0","NA","0","0","2","2","2","2","2","Thu Oct 26 13:45:56 2017","Forced-choice identification task with a practice and an experimental phase","yes","NAP_GER_AA_4blocks_noglides.osexp","/Users/aviadalbert/Documents/Academisch/UoC/Dissertation/Experiment/OpenSesame/NAP-FC/NAP_GER_AA_4blocks_noglides","yes","no","sans","no","20","no","black","no","Weiter","yes","768","legacy","2","2","0","/Users/aviadalbert/Documents/Academisch/UoC/Dissertation/Experiment/OpenSesame/NAP-FC/NAP_GER_AA_4blocks_noglides/subject-26.csv","xpyriment","Jazzy James","3.1.9","yes","yes","59a800d99ad5a1025d81bb03","59a801616c613b0251691de0","yes","no","0","j","f","NA","NA","u","u","j","1282","6517","NA","NA","27642","10338","1282","2","legacy","1024","1","44100","-16","experiment","emtal","2","0","0","0","1","English","26","","even","1891900","NA","NA","NA","NA","NA","NA","1763004","NA","1763004","1763004","1853610","1881256","1907379","1905876","1908662","1898418","1891896","NA","NA","1810526","1844112","NA","1891659","NA","1891900","NA","1907379","1907379","NA","NA","1905872","NAP perception","3","4982","3","yes","1024"
"100","yes","100","1678.75","1678.75","white","no","xpyriment","Ich habe die obigen Informationen gelesen und verstanden.","legacy","legacy","0","uniform","1","0","NA","undefined","undefined","1","f","0","0","NA","NA","NA","NA","NA","0","0","0","0","0","0","3","3","3","0","0","NA","NA","0","0","0","0","NA","0","0","3","3","3","3","3","Thu Oct 26 13:45:56 2017","Forced-choice identification task with a practice and an experimental phase","yes","NAP_GER_AA_4blocks_noglides.osexp","/Users/aviadalbert/Documents/Academisch/UoC/Dissertation/Experiment/OpenSesame/NAP-FC/NAP_GER_AA_4blocks_noglides","yes","no","sans","no","20","no","black","no","Weiter","yes","768","legacy","3","3","0","/Users/aviadalbert/Documents/Academisch/UoC/Dissertation/Experiment/OpenSesame/NAP-FC/NAP_GER_AA_4blocks_noglides/subject-26.csv","xpyriment","Jazzy James","3.1.9","yes","yes","59a800d99ad5a1025d81bb03","59a801616c613b0251691de0","yes","no","0","f","f","NA","NA","u","u","f","1733","6517","NA","NA","27642","10338","1733","2","legacy","1024","1","44100","-16","experiment","ʃpal","2","0","0","0","1","English","26","","even","1891900","NA","NA","NA","NA","NA","NA","1763004","NA","1763004","1763004","1853610","1881256","1910450","1908944","1912184","1898418","1891896","NA","NA","1810526","1844112","NA","1891659","NA","1891900","NA","1910450","1910450","NA","NA","1908940","NAP perception","4","6715","4","yes","1024"
"100","yes","100","1534","1534","white","no","xpyriment","Ich habe die obigen Informationen gelesen und verstanden.","legacy","legacy","0","uniform","1","0","NA","undefined","undefined","1","j","0","0","NA","NA","NA","NA","NA","0","0","0","0","0","0","4","4","4","0","0","NA","NA","0","0","0","0","NA","0","0","4","4","4","4","4","Thu Oct 26 13:45:56 2017","Forced-choice identification task with a practice and an experimental phase","yes","NAP_GER_AA_4blocks_noglides.osexp","/Users/aviadalbert/Documents/Academisch/UoC/Dissertation/Experiment/OpenSesame/NAP-FC/NAP_GER_AA_4blocks_noglides","yes","no","sans","no","20","no","black","no","Weiter","yes","768","legacy","4","4","0","/Users/aviadalbert/Documents/Academisch/UoC/Dissertation/Experiment/OpenSesame/NAP-FC/NAP_GER_AA_4blocks_noglides/subject-26.csv","xpyriment","Jazzy James","3.1.9","yes","yes","59a800d99ad5a1025d81bb03","59a801616c613b0251691de0","yes","no","0","j","f","NA","NA","u","u","j","955","6517","NA","NA","27642","10338","955","2","legacy","1024","1","44100","-16","experiment","nefal","2","0","0","0","1","English","26","","even","1891900","NA","NA","NA","NA","NA","NA","1763004","NA","1763004","1763004","1853610","1881256","1913970","1912463","1914926","1898418","1891896","NA","NA","1810526","1844112","NA","1891659","NA","1891900","NA","1913970","1913970","NA","NA","1912459","NAP perception","5","7670","5","yes","1024"
"100","yes","100","1473.5","1473.5","white","no","xpyriment","Ich habe die obigen Informationen gelesen und verstanden.","legacy","legacy","0","uniform","1","0","NA","undefined","undefined","1","f","0","0","NA","NA","NA","NA","NA","0","0","0","0","0","0","5","5","5","0","0","NA","NA","0","0","0","0","NA","0","0","5","5","5","5","5","Thu Oct 26 13:45:56 2017","Forced-choice identification task with a practice and an experimental phase","yes","NAP_GER_AA_4blocks_noglides.osexp","/Users/aviadalbert/Documents/Academisch/UoC/Dissertation/Experiment/OpenSesame/NAP-FC/NAP_GER_AA_4blocks_noglides","yes","no","sans","no","20","no","black","no","Weiter","yes","768","legacy","5","5","0","/Users/aviadalbert/Documents/Academisch/UoC/Dissertation/Experiment/OpenSesame/NAP-FC/NAP_GER_AA_4blocks_noglides/subject-26.csv","xpyriment","Jazzy James","3.1.9","yes","yes","59a800d99ad5a1025d81bb03","59a801616c613b0251691de0","yes","no","0","f","f","NA","NA","u","u","f","1171","6517","NA","NA","27642","10338","1171","2","legacy","1024","1","44100","-16","experiment","sfal","2","0","0","0","1","English","26","","even","1891900","NA","NA","NA","NA","NA","NA","1763004","NA","1763004","1763004","1853610","1881256","1916714","1915210","1917886","1898418","1891896","NA","NA","1810526","1844112","NA","1891659","NA","1891900","NA","1916714","1916714","NA","NA","1915206","NAP perception","6","8841","6","yes","1024"
"100","yes","100","1438.85714286","1438.85714286","white","no","xpyriment","Ich habe die obigen Informationen gelesen und verstanden.","legacy","legacy","0","uniform","1","0","NA","undefined","undefined","1","f","0","0","NA","NA","NA","NA","NA","0","0","0","0","0","0","6","6","6","0","0","NA","NA","0","0","0","0","NA","0","0","6","6","6","6","6","Thu Oct 26 13:45:56 2017","Forced-choice identification task with a practice and an experimental phase","yes","NAP_GER_AA_4blocks_noglides.osexp","/Users/aviadalbert/Documents/Academisch/UoC/Dissertation/Experiment/OpenSesame/NAP-FC/NAP_GER_AA_4blocks_noglides","yes","no","sans","no","20","no","black","no","Weiter","yes","768","legacy","6","6","0","/Users/aviadalbert/Documents/Academisch/UoC/Dissertation/Experiment/OpenSesame/NAP-FC/NAP_GER_AA_4blocks_noglides/subject-26.csv","xpyriment","Jazzy James","3.1.9","yes","yes","59a800d99ad5a1025d81bb03","59a801616c613b0251691de0","yes","no","0","f","f","NA","NA","u","u","f","1231","6517","NA","NA","27642","10338","1231","2","legacy","1024","1","44100","-16","experiment","zmal","2","0","0","0","1","English","26","","even","1891900","NA","NA","NA","NA","NA","NA","1763004","NA","1763004","1763004","1853610","1881256","1919672","1918167","1920904","1898418","1891896","NA","NA","1810526","1844112","NA","1891659","NA","1891900","NA","1919671","1919671","NA","NA","1918163","NAP perception","7","10072","7","yes","1024"
"100","yes","100","1368.375","1368.375","white","no","xpyriment","Ich habe die obigen Informationen gelesen und verstanden.","legacy","legacy","0","uniform","1","0","NA","undefined","undefined","1","j","0","0","NA","NA","NA","NA","NA","0","0","0","0","0","0","7","7","7","0","0","NA","NA","0","0","0","0","NA","0","0","7","7","7","7","7","Thu Oct 26 13:45:56 2017","Forced-choice identification task with a practice and an experimental phase","yes","NAP_GER_AA_4blocks_noglides.osexp","/Users/aviadalbert/Documents/Academisch/UoC/Dissertation/Experiment/OpenSesame/NAP-FC/NAP_GER_AA_4blocks_noglides","yes","no","sans","no","20","no","black","no","Weiter","yes","768","legacy","7","7","0","/Users/aviadalbert/Documents/Academisch/UoC/Dissertation/Experiment/OpenSesame/NAP-FC/NAP_GER_AA_4blocks_noglides/subject-26.csv","xpyriment","Jazzy James","3.1.9","yes","yes","59a800d99ad5a1025d81bb03","59a801616c613b0251691de0","yes","no","0","j","f","NA","NA","u","u","j","875","6517","NA","NA","27642","10338","875","2","legacy","1024","1","44100","-16","experiment","mesal","2","0","0","0","1","English","26","","even","1891900","NA","NA","NA","NA","NA","NA","1763004","NA","1763004","1763004","1853610","1881256","1922681","1921176","1923557","1898418","1891896","NA","NA","1810526","1844112","NA","1891659","NA","1891900","NA","1922680","1922680","NA","NA","1921173","NAP perception","8","10947","8","yes","1024"
"100","yes","100","1332.44444444","1332.44444444","white","no","xpyriment","Ich habe die obigen Informationen gelesen und verstanden.","legacy","legacy","0","uniform","1","0","NA","undefined","undefined","1","j","0","0","NA","NA","NA","NA","NA","0","0","0","0","0","0","8","8","8","0","0","NA","NA","0","0","0","0","NA","0","0","8","8","8","8","8","Thu Oct 26 13:45:56 2017","Forced-choice identification task with a practice and an experimental phase","yes","NAP_GER_AA_4blocks_noglides.osexp","/Users/aviadalbert/Documents/Academisch/UoC/Dissertation/Experiment/OpenSesame/NAP-FC/NAP_GER_AA_4blocks_noglides","yes","no","sans","no","20","no","black","no","Weiter","yes","768","legacy","8","8","0","/Users/aviadalbert/Documents/Academisch/UoC/Dissertation/Experiment/OpenSesame/NAP-FC/NAP_GER_AA_4blocks_noglides/subject-26.csv","xpyriment","Jazzy James","3.1.9","yes","yes","59a800d99ad5a1025d81bb03","59a801616c613b0251691de0","yes","no","0","j","f","NA","NA","u","u","j","1045","6517","NA","NA","27642","10338","1045","2","legacy","1024","1","44100","-16","experiment","enval","2","0","0","0","1","English","26","","even","1891900","NA","NA","NA","NA","NA","NA","1763004","NA","1763004","1763004","1853610","1881256","1925329","1923826","1926376","1898418","1891896","NA","NA","1810526","1844112","NA","1891659","NA","1891900","NA","1925329","1925329","NA","NA","1923822","NAP perception","9","11992","9","yes","1024"
"100","yes","100","1363.2","1363.2","white","no","xpyriment","Ich habe die obigen Informationen gelesen und verstanden.","legacy","legacy","0","uniform","1","0","NA","undefined","undefined","1","f","0","0","NA","NA","NA","NA","NA","0","0","0","0","0","0","9","9","9","0","0","NA","NA","0","0","0","0","NA","0","0","9","9","9","9","9","Thu Oct 26 13:45:56 2017","Forced-choice identification task with a practice and an experimental phase","yes","NAP_GER_AA_4blocks_noglides.osexp","/Users/aviadalbert/Documents/Academisch/UoC/Dissertation/Experiment/OpenSesame/NAP-FC/NAP_GER_AA_4blocks_noglides","yes","no","sans","no","20","no","black","no","Weiter","yes","768","legacy","9","9","0","/Users/aviadalbert/Documents/Academisch/UoC/Dissertation/Experiment/OpenSesame/NAP-FC/NAP_GER_AA_4blocks_noglides/subject-26.csv","xpyriment","Jazzy James","3.1.9","yes","yes","59a800d99ad5a1025d81bb03","59a801616c613b0251691de0","yes","no","0","f","f","NA","NA","u","u","f","1640","6517","NA","NA","27642","10338","1640","2","legacy","1024","1","44100","-16","experiment","vlal","2","0","0","0","1","English","26","","even","1891900","NA","NA","NA","NA","NA","NA","1763004","NA","1763004","1763004","1853610","1881256","1928164","1926659","1929806","1898418","1891896","NA","NA","1810526","1844112","NA","1891659","NA","1891900","NA","1928163","1928164","NA","NA","1926655","NAP perception","10","13632","10","yes","1024"
"0","yes","0","1445","1445","white","no","xpyriment","Ich habe die obigen Informationen gelesen und verstanden.","legacy","legacy","0","uniform","0","0","0","undefined","undefined","0","f","2","1","NA","0","1","0","0","0","0","0","0","0","0","10","10","10","0","0","0","NA","0","0","2","0","0","0","2","10","10","10","10","10","Thu Oct 26 13:45:56 2017","Forced-choice identification task with a practice and an experimental phase","yes","NAP_GER_AA_4blocks_noglides.osexp","/Users/aviadalbert/Documents/Academisch/UoC/Dissertation/Experiment/OpenSesame/NAP-FC/NAP_GER_AA_4blocks_noglides","yes","no","sans","no","20","no","black","no","Weiter","yes","768","legacy","0","9","0","/Users/aviadalbert/Documents/Academisch/UoC/Dissertation/Experiment/OpenSesame/NAP-FC/NAP_GER_AA_4blocks_noglides/subject-26.csv","xpyriment","Jazzy James","3.1.9","yes","yes","59a800d99ad5a1025d81bb03","59a801616c613b0251691de0","no","no","0","j","f","space","NA","u","u","j","1445","2006","14037","NA","27642","10338","1445","2","legacy","1024","1","44100","-16","experiment","lkal","2","0","0","0","1","English","26","","even","1946105","1931529","NA","NA","1948112","1946101","NA","1763004","1945624","1763004","1763004","1853610","1881256","1949838","1948334","1951284","1898418","1891896","1931528","NA","1810526","1844112","1929870","1891659","1946105","1891900","NA","1949837","1949837","NA","NA","1948330","NAP perception","0","1445","1","yes","1024"
"0","yes","0","1442.5","1442.5","white","no","xpyriment","Ich habe die obigen Informationen gelesen und verstanden.","legacy","legacy","0","uniform","0","0","0","undefined","undefined","0","f","2","1","NA","0","1","0","0","0","0","0","0","0","0","11","11","11","0","0","0","NA","0","0","2","0","0","0","2","11","11","11","11","11","Thu Oct 26 13:45:56 2017","Forced-choice identification task with a practice and an experimental phase","yes","NAP_GER_AA_4blocks_noglides.osexp","/Users/aviadalbert/Documents/Academisch/UoC/Dissertation/Experiment/OpenSesame/NAP-FC/NAP_GER_AA_4blocks_noglides","yes","no","sans","no","20","no","black","no","Weiter","yes","768","legacy","1","9","0","/Users/aviadalbert/Documents/Academisch/UoC/Dissertation/Experiment/OpenSesame/NAP-FC/NAP_GER_AA_4blocks_noglides/subject-26.csv","xpyriment","Jazzy James","3.1.9","yes","yes","59a800d99ad5a1025d81bb03","59a801616c613b0251691de0","no","no","0","j","f","space","NA","u","u","j","1440","2006","14037","NA","27642","10338","1440","2","legacy","1024","1","44100","-16","experiment","lkal","2","0","0","0","1","English","26","","even","1946105","1931529","NA","NA","1948112","1946101","NA","1763004","1945624","1763004","1763004","1853610","1881256","1953062","1951559","1954504","1898418","1891896","1931528","NA","1810526","1844112","1929870","1891659","1946105","1891900","NA","1953062","1953062","NA","NA","1951555","NAP perception","0","2885","2","yes","1024"
"33.3333333333","yes","33.3333333333","1305.33333333","1305.33333333","white","no","xpyriment","Ich habe die obigen Informationen gelesen und verstanden.","legacy","legacy","0","uniform","1","0","0","undefined","undefined","1","f","2","1","NA","0","1","0","0","0","0","0","0","0","0","12","12","12","0","0","0","NA","0","0","2","0","0","0","2","12","12","12","12","12","Thu Oct 26 13:45:56 2017","Forced-choice identification task with a practice and an experimental phase","yes","NAP_GER_AA_4blocks_noglides.osexp","/Users/aviadalbert/Documents/Academisch/UoC/Dissertation/Experiment/OpenSesame/NAP-FC/NAP_GER_AA_4blocks_noglides","yes","no","sans","no","20","no","black","no","Weiter","yes","768","legacy","2","9","0","/Users/aviadalbert/Documents/Academisch/UoC/Dissertation/Experiment/OpenSesame/NAP-FC/NAP_GER_AA_4blocks_noglides/subject-26.csv","xpyriment","Jazzy James","3.1.9","yes","yes","59a800d99ad5a1025d81bb03","59a801616c613b0251691de0","no","no","0","f","f","space","NA","u","u","f","1031","2006","14037","NA","27642","10338","1031","2","legacy","1024","1","44100","-16","experiment","ʃpal","2","0","0","0","1","English","26","","even","1946105","1931529","NA","NA","1948112","1946101","NA","1763004","1945624","1763004","1763004","1853610","1881256","1956288","1954783","1957320","1898418","1891896","1931528","NA","1810526","1844112","1929870","1891659","1946105","1891900","NA","1956287","1956287","NA","NA","1954779","NAP perception","1","3916","3","yes","1024"
"50","yes","50","1187","1187","white","no","xpyriment","Ich habe die obigen Informationen gelesen und verstanden.","legacy","legacy","0","uniform","1","0","0","undefined","undefined","1","j","2","1","NA","0","1","0","0","0","0","0","0","0","0","13","13","13","0","0","0","NA","0","0","2","0","0","0","2","13","13","13","13","13","Thu Oct 26 13:45:56 2017","Forced-choice identification task with a practice and an experimental phase","yes","NAP_GER_AA_4blocks_noglides.osexp","/Users/aviadalbert/Documents/Academisch/UoC/Dissertation/Experiment/OpenSesame/NAP-FC/NAP_GER_AA_4blocks_noglides","yes","no","sans","no","20","no","black","no","Weiter","yes","768","legacy","3","9","0","/Users/aviadalbert/Documents/Academisch/UoC/Dissertation/Experiment/OpenSesame/NAP-FC/NAP_GER_AA_4blocks_noglides/subject-26.csv","xpyriment","Jazzy James","3.1.9","yes","yes","59a800d99ad5a1025d81bb03","59a801616c613b0251691de0","no","no","0","j","f","space","NA","u","u","j","832","2006","14037","NA","27642","10338","832","2","legacy","1024","1","44100","-16","experiment","enpal","2","0","0","0","1","English","26","","even","1946105","1931529","NA","NA","1948112","1946101","NA","1763004","1945624","1763004","1763004","1853610","1881256","1959105","1957598","1959938","1898418","1891896","1931528","NA","1810526","1844112","1929870","1891659","1946105","1891900","NA","1959104","1959105","NA","NA","1957594","NAP perception","2","4748","4","yes","1024"
"60","yes","60","1110.8","1110.8","white","no","xpyriment","Ich habe die obigen Informationen gelesen und verstanden.","legacy","legacy","0","uniform","1","0","0","undefined","undefined","1","j","2","1","NA","0","1","0","0","0","0","0","0","0","0","14","14","14","0","0","0","NA","0","0","2","0","0","0","2","14","14","14","14","14","Thu Oct 26 13:45:56 2017","Forced-choice identification task with a practice and an experimental phase","yes","NAP_GER_AA_4blocks_noglides.osexp","/Users/aviadalbert/Documents/Academisch/UoC/Dissertation/Experiment/OpenSesame/NAP-FC/NAP_GER_AA_4blocks_noglides","yes","no","sans","no","20","no","black","no","Weiter","yes","768","legacy","4","9","0","/Users/aviadalbert/Documents/Academisch/UoC/Dissertation/Experiment/OpenSesame/NAP-FC/NAP_GER_AA_4blocks_noglides/subject-26.csv","xpyriment","Jazzy James","3.1.9","yes","yes","59a800d99ad5a1025d81bb03","59a801616c613b0251691de0","no","no","0","j","f","space","NA","u","u","j","806","2006","14037","NA","27642","10338","806","2","legacy","1024","1","44100","-16","experiment","ʃemal","2","0","0","0","1","English","26","","even","1946105","1931529","NA","NA","1948112","1946101","NA","1763004","1945624","1763004","1763004","1853610","1881256","1961710","1960203","1962517","1898418","1891896","1931528","NA","1810526","1844112","1929870","1891659","1946105","1891900","NA","1961709","1961709","NA","NA","1960199","NAP perception","3","5554","5","yes","1024"
"66.6666666667","yes","66.6666666667","1085","1085","white","no","xpyriment","Ich habe die obigen Informationen gelesen und verstanden.","legacy","legacy","0","uniform","1","0","0","undefined","undefined","1","f","2","1","NA","0","1","0","0","0","0","0","0","0","0","15","15","15","0","0","0","NA","0","0","2","0","0","0","2","15","15","15","15","15","Thu Oct 26 13:45:56 2017","Forced-choice identification task with a practice and an experimental phase","yes","NAP_GER_AA_4blocks_noglides.osexp","/Users/aviadalbert/Documents/Academisch/UoC/Dissertation/Experiment/OpenSesame/NAP-FC/NAP_GER_AA_4blocks_noglides","yes","no","sans","no","20","no","black","no","Weiter","yes","768","legacy","5","9","0","/Users/aviadalbert/Documents/Academisch/UoC/Dissertation/Experiment/OpenSesame/NAP-FC/NAP_GER_AA_4blocks_noglides/subject-26.csv","xpyriment","Jazzy James","3.1.9","yes","yes","59a800d99ad5a1025d81bb03","59a801616c613b0251691de0","no","no","0","f","f","space","NA","u","u","f","956","2006","14037","NA","27642","10338","956","2","legacy","1024","1","44100","-16","experiment","zmal","2","0","0","0","1","English","26","","even","1946105","1931529","NA","NA","1948112","1946101","NA","1763004","1945624","1763004","1763004","1853610","1881256","1964295","1962791","1965252","1898418","1891896","1931528","NA","1810526","1844112","1929870","1891659","1946105","1891900","NA","1964294","1964294","NA","NA","1962787","NAP perception","4","6510","6","yes","1024"
"57.1428571429","yes","57.1428571429","1130.28571429","1130.28571429","white","no","xpyriment","Ich habe die obigen Informationen gelesen und verstanden.","legacy","legacy","0","uniform","0","0","0","undefined","undefined","0","f","2","1","NA","0","1","0","0","0","0","0","0","0","0","16","16","16","0","0","0","NA","0","0","2","0","0","0","2","16","16","16","16","16","Thu Oct 26 13:45:56 2017","Forced-choice identification task with a practice and an experimental phase","yes","NAP_GER_AA_4blocks_noglides.osexp","/Users/aviadalbert/Documents/Academisch/UoC/Dissertation/Experiment/OpenSesame/NAP-FC/NAP_GER_AA_4blocks_noglides","yes","no","sans","no","20","no","black","no","Weiter","yes","768","legacy","6","9","0","/Users/aviadalbert/Documents/Academisch/UoC/Dissertation/Experiment/OpenSesame/NAP-FC/NAP_GER_AA_4blocks_noglides/subject-26.csv","xpyriment","Jazzy James","3.1.9","yes","yes","59a800d99ad5a1025d81bb03","59a801616c613b0251691de0","no","no","0","j","f","space","NA","u","u","j","1402","2006","14037","NA","27642","10338","1402","2","legacy","1024","1","44100","-16","experiment","nmal","2","0","0","0","1","English","26","","even","1946105","1931529","NA","NA","1948112","1946101","NA","1763004","1945624","1763004","1763004","1853610","1881256","1967027","1965523","1968430","1898418","1891896","1931528","NA","1810526","1844112","1929870","1891659","1946105","1891900","NA","1967027","1967027","NA","NA","1965519","NAP perception","4","7912","7","yes","1024"
"50","yes","50","1106.5","1106.5","white","no","xpyriment","Ich habe die obigen Informationen gelesen und verstanden.","legacy","legacy","0","uniform","0","0","0","undefined","undefined","0","f","2","1","NA","0","1","0","0","0","0","0","0","0","0","17","17","17","0","0","0","NA","0","0","2","0","0","0","2","17","17","17","17","17","Thu Oct 26 13:45:56 2017","Forced-choice identification task with a practice and an experimental phase","yes","NAP_GER_AA_4blocks_noglides.osexp","/Users/aviadalbert/Documents/Academisch/UoC/Dissertation/Experiment/OpenSesame/NAP-FC/NAP_GER_AA_4blocks_noglides","yes","no","sans","no","20","no","black","no","Weiter","yes","768","legacy","7","9","0","/Users/aviadalbert/Documents/Academisch/UoC/Dissertation/Experiment/OpenSesame/NAP-FC/NAP_GER_AA_4blocks_noglides/subject-26.csv","xpyriment","Jazzy James","3.1.9","yes","yes","59a800d99ad5a1025d81bb03","59a801616c613b0251691de0","no","no","0","j","f","space","NA","u","u","j","940","2006","14037","NA","27642","10338","940","2","legacy","1024","1","44100","-16","experiment","lfal","2","0","0","0","1","English","26","","even","1946105","1931529","NA","NA","1948112","1946101","NA","1763004","1945624","1763004","1763004","1853610","1881256","1970217","1968713","1971158","1898418","1891896","1931528","NA","1810526","1844112","1929870","1891659","1946105","1891900","NA","1970216","1970217","NA","NA","1968709","NAP perception","4","8852","8","yes","1024"
"44.4444444444","yes","44.4444444444","1155.11111111","1155.11111111","white","no","xpyriment","Ich habe die obigen Informationen gelesen und verstanden.","legacy","legacy","0","uniform","0","0","0","undefined","undefined","0","f","2","1","NA","0","1","0","0","0","0","0","0","0","0","18","18","18","0","0","0","NA","0","0","2","0","0","0","2","18","18","18","18","18","Thu Oct 26 13:45:56 2017","Forced-choice identification task with a practice and an experimental phase","yes","NAP_GER_AA_4blocks_noglides.osexp","/Users/aviadalbert/Documents/Academisch/UoC/Dissertation/Experiment/OpenSesame/NAP-FC/NAP_GER_AA_4blocks_noglides","yes","no","sans","no","20","no","black","no","Weiter","yes","768","legacy","8","9","0","/Users/aviadalbert/Documents/Academisch/UoC/Dissertation/Experiment/OpenSesame/NAP-FC/NAP_GER_AA_4blocks_noglides/subject-26.csv","xpyriment","Jazzy James","3.1.9","yes","yes","59a800d99ad5a1025d81bb03","59a801616c613b0251691de0","no","no","0","j","f","space","NA","u","u","j","1544","2006","14037","NA","27642","10338","1544","2","legacy","1024","1","44100","-16","experiment","npal","2","0","0","0","1","English","26","","even","1946105","1931529","NA","NA","1948112","1946101","NA","1763004","1945624","1763004","1763004","1853610","1881256","1972939","1971436","1974484","1898418","1891896","1931528","NA","1810526","1844112","1929870","1891659","1946105","1891900","NA","1972939","1972939","NA","NA","1971432","NAP perception","4","10396","9","yes","1024"
"50","yes","50","1146.9","1146.9","white","no","xpyriment","Ich habe die obigen Informationen gelesen und verstanden.","legacy","legacy","0","uniform","1","0","0","undefined","undefined","1","j","2","1","NA","0","1","0","0","0","0","0","0","0","0","19","19","19","0","0","0","NA","0","0","2","0","0","0","2","19","19","19","19","19","Thu Oct 26 13:45:56 2017","Forced-choice identification task with a practice and an experimental phase","yes","NAP_GER_AA_4blocks_noglides.osexp","/Users/aviadalbert/Documents/Academisch/UoC/Dissertation/Experiment/OpenSesame/NAP-FC/NAP_GER_AA_4blocks_noglides","yes","no","sans","no","20","no","black","no","Weiter","yes","768","legacy","9","9","0","/Users/aviadalbert/Documents/Academisch/UoC/Dissertation/Experiment/OpenSesame/NAP-FC/NAP_GER_AA_4blocks_noglides/subject-26.csv","xpyriment","Jazzy James","3.1.9","yes","yes","59a800d99ad5a1025d81bb03","59a801616c613b0251691de0","no","no","0","j","f","space","NA","u","u","j","1073","2006","14037","NA","27642","10338","1073","2","legacy","1024","1","44100","-16","experiment","efsal","2","0","0","0","1","English","26","","even","1946105","1931529","NA","NA","1948112","1946101","NA","1763004","1945624","1763004","1763004","1853610","1881256","1976276","1974773","1977350","1898418","1891896","1931528","NA","1810526","1844112","1929870","1891659","1946105","1891900","NA","1976276","1976276","NA","NA","1974769","NAP perception","5","11469","10","yes","1024"
"45.4545454545","yes","45.4545454545","1246.72727273","1246.72727273","white","no","xpyriment","Ich habe die obigen Informationen gelesen und verstanden.","legacy","legacy","0","uniform","0","0","0","undefined","undefined","0","f","2","1","NA","0","1","0","0","0","0","0","0","0","0","20","20","20","0","0","0","NA","0","0","2","0","0","0","2","20","20","20","20","20","Thu Oct 26 13:45:56 2017","Forced-choice identification task with a practice and an experimental phase","yes","NAP_GER_AA_4blocks_noglides.osexp","/Users/aviadalbert/Documents/Academisch/UoC/Dissertation/Experiment/OpenSesame/NAP-FC/NAP_GER_AA_4blocks_noglides","yes","no","sans","no","20","no","black","no","Weiter","yes","768","legacy","10","9","0","/Users/aviadalbert/Documents/Academisch/UoC/Dissertation/Experiment/OpenSesame/NAP-FC/NAP_GER_AA_4blocks_noglides/subject-26.csv","xpyriment","Jazzy James","3.1.9","yes","yes","59a800d99ad5a1025d81bb03","59a801616c613b0251691de0","no","no","0","j","f","space","NA","u","u","j","2245","2006","14037","NA","27642","10338","2245","2","legacy","1024","1","44100","-16","experiment","lpal","2","0","0","0","1","English","26","","even","1946105","1931529","NA","NA","1948112","1946101","NA","1763004","1945624","1763004","1763004","1853610","1881256","1979129","1977625","1981375","1898418","1891896","1931528","NA","1810526","1844112","1929870","1891659","1946105","1891900","NA","1979129","1979129","NA","NA","1977622","NAP perception","5","13714","11","yes","1024"
"50","yes","50","1210.91666667","1210.91666667","white","no","xpyriment","Ich habe die obigen Informationen gelesen und verstanden.","legacy","legacy","0","uniform","1","0","0","undefined","undefined","1","j","2","1","NA","0","1","0","0","0","0","0","0","0","0","21","21","21","0","0","0","NA","0","0","2","0","0","0","2","21","21","21","21","21","Thu Oct 26 13:45:56 2017","Forced-choice identification task with a practice and an experimental phase","yes","NAP_GER_AA_4blocks_noglides.osexp","/Users/aviadalbert/Documents/Academisch/UoC/Dissertation/Experiment/OpenSesame/NAP-FC/NAP_GER_AA_4blocks_noglides","yes","no","sans","no","20","no","black","no","Weiter","yes","768","legacy","11","9","0","/Users/aviadalbert/Documents/Academisch/UoC/Dissertation/Experiment/OpenSesame/NAP-FC/NAP_GER_AA_4blocks_noglides/subject-26.csv","xpyriment","Jazzy James","3.1.9","yes","yes","59a800d99ad5a1025d81bb03","59a801616c613b0251691de0","no","no","0","j","f","space","NA","u","u","j","817","2006","14037","NA","27642","10338","817","2","legacy","1024","1","44100","-16","experiment","elmal","2","0","0","0","1","English","26","","even","1946105","1931529","NA","NA","1948112","1946101","NA","1763004","1945624","1763004","1763004","1853610","1881256","1983161","1981658","1983979","1898418","1891896","1931528","NA","1810526","1844112","1929870","1891659","1946105","1891900","NA","1983161","1983161","NA","NA","1981654","NAP perception","6","14531","12","yes","1024"
"53.8461538462","yes","53.8461538462","1183","1183","white","no","xpyriment","Ich habe die obigen Informationen gelesen und verstanden.","legacy","legacy","0","uniform","1","0","0","undefined","undefined","1","j","2","1","NA","0","1","0","0","0","0","0","0","0","0","22","22","22","0","0","0","NA","0","0","2","0","0","0","2","22","22","22","22","22","Thu Oct 26 13:45:56 2017","Forced-choice identification task with a practice and an experimental phase","yes","NAP_GER_AA_4blocks_noglides.osexp","/Users/aviadalbert/Documents/Academisch/UoC/Dissertation/Experiment/OpenSesame/NAP-FC/NAP_GER_AA_4blocks_noglides","yes","no","sans","no","20","no","black","no","Weiter","yes","768","legacy","12","9","0","/Users/aviadalbert/Documents/Academisch/UoC/Dissertation/Experiment/OpenSesame/NAP-FC/NAP_GER_AA_4blocks_noglides/subject-26.csv","xpyriment","Jazzy James","3.1.9","yes","yes","59a800d99ad5a1025d81bb03","59a801616c613b0251691de0","no","no","0","j","f","space","NA","u","u","j","848","2006","14037","NA","27642","10338","848","2","legacy","1024","1","44100","-16","experiment","sefal","2","0","0","0","1","English","26","","even","1946105","1931529","NA","NA","1948112","1946101","NA","1763004","1945624","1763004","1763004","1853610","1881256","1985760","1984257","1986609","1898418","1891896","1931528","NA","1810526","1844112","1929870","1891659","1946105","1891900","NA","1985760","1985760","NA","NA","1984253","NAP perception","7","15379","13","yes","1024"
"57.1428571429","yes","57.1428571429","1165","1165","white","no","xpyriment","Ich habe die obigen Informationen gelesen und verstanden.","legacy","legacy","0","uniform","1","0","0","undefined","undefined","1","f","2","1","NA","0","1","0","0","0","0","0","0","0","0","23","23","23","0","0","0","NA","0","0","2","0","0","0","2","23","23","23","23","23","Thu Oct 26 13:45:56 2017","Forced-choice identification task with a practice and an experimental phase","yes","NAP_GER_AA_4blocks_noglides.osexp","/Users/aviadalbert/Documents/Academisch/UoC/Dissertation/Experiment/OpenSesame/NAP-FC/NAP_GER_AA_4blocks_noglides","yes","no","sans","no","20","no","black","no","Weiter","yes","768","legacy","13","9","0","/Users/aviadalbert/Documents/Academisch/UoC/Dissertation/Experiment/OpenSesame/NAP-FC/NAP_GER_AA_4blocks_noglides/subject-26.csv","xpyriment","Jazzy James","3.1.9","yes","yes","59a800d99ad5a1025d81bb03","59a801616c613b0251691de0","no","no","0","f","f","space","NA","u","u","f","931","2006","14037","NA","27642","10338","931","2","legacy","1024","1","44100","-16","experiment","spal","2","0","0","0","1","English","26","","even","1946105","1931529","NA","NA","1948112","1946101","NA","1763004","1945624","1763004","1763004","1853610","1881256","1988381","1986878","1989313","1898418","1891896","1931528","NA","1810526","1844112","1929870","1891659","1946105","1891900","NA","1988381","1988381","NA","NA","1986874","NAP perception","8","16310","14","yes","1024"
"60","yes","60","1192.13333333","1192.13333333","white","no","xpyriment","Ich habe die obigen Informationen gelesen und verstanden.","legacy","legacy","0","uniform","1","0","0","undefined","undefined","1","f","2","1","NA","0","1","0","0","0","0","0","0","0","0","24","24","24","0","0","0","NA","0","0","2","0","0","0","2","24","24","24","24","24","Thu Oct 26 13:45:56 2017","Forced-choice identification task with a practice and an experimental phase","yes","NAP_GER_AA_4blocks_noglides.osexp","/Users/aviadalbert/Documents/Academisch/UoC/Dissertation/Experiment/OpenSesame/NAP-FC/NAP_GER_AA_4blocks_noglides","yes","no","sans","no","20","no","black","no","Weiter","yes","768","legacy","14","9","0","/Users/aviadalbert/Documents/Academisch/UoC/Dissertation/Experiment/OpenSesame/NAP-FC/NAP_GER_AA_4blocks_noglides/subject-26.csv","xpyriment","Jazzy James","3.1.9","yes","yes","59a800d99ad5a1025d81bb03","59a801616c613b0251691de0","no","no","0","f","f","space","NA","u","u","f","1572","2006","14037","NA","27642","10338","1572","2","legacy","1024","1","44100","-16","experiment","mlal","2","0","0","0","1","English","26","","even","1946105","1931529","NA","NA","1948112","1946101","NA","1763004","1945624","1763004","1763004","1853610","1881256","1991107","1989600","1992681","1898418","1891896","1931528","NA","1810526","1844112","1929870","1891659","1946105","1891900","NA","1991107","1991107","NA","NA","1989597","NAP perception","9","17882","15","yes","1024"
"62.5","yes","62.5","1167.9375","1167.9375","white","no","xpyriment","Ich habe die obigen Informationen gelesen und verstanden.","legacy","legacy","0","uniform","1","0","0","undefined","undefined","1","j","2","1","NA","0","1","0","0","0","0","0","0","0","0","25","25","25","0","0","0","NA","0","0","2","0","0","0","2","25","25","25","25","25","Thu Oct 26 13:45:56 2017","Forced-choice identification task with a practice and an experimental phase","yes","NAP_GER_AA_4blocks_noglides.osexp","/Users/aviadalbert/Documents/Academisch/UoC/Dissertation/Experiment/OpenSesame/NAP-FC/NAP_GER_AA_4blocks_noglides","yes","no","sans","no","20","no","black","no","Weiter","yes","768","legacy","15","9","0","/Users/aviadalbert/Documents/Academisch/UoC/Dissertation/Experiment/OpenSesame/NAP-FC/NAP_GER_AA_4blocks_noglides/subject-26.csv","xpyriment","Jazzy James","3.1.9","yes","yes","59a800d99ad5a1025d81bb03","59a801616c613b0251691de0","no","no","0","j","f","space","NA","u","u","j","805","2006","14037","NA","27642","10338","805","2","legacy","1024","1","44100","-16","experiment","zemal","2","0","0","0","1","English","26","","even","1946105","1931529","NA","NA","1948112","1946101","NA","1763004","1945624","1763004","1763004","1853610","1881256","1994463","1992960","1995270","1898418","1891896","1931528","NA","1810526","1844112","1929870","1891659","1946105","1891900","NA","1994463","1994463","NA","NA","1992956","NAP perception","10","18687","16","yes","1024"
"64.7058823529","yes","64.7058823529","1140.41176471","1140.41176471","white","no","xpyriment","Ich habe die obigen Informationen gelesen und verstanden.","legacy","legacy","0","uniform","1","0","0","undefined","undefined","1","j","2","1","NA","0","1","0","0","0","0","0","0","0","0","26","26","26","0","0","0","NA","0","0","2","0","0","0","2","26","26","26","26","26","Thu Oct 26 13:45:56 2017","Forced-choice identification task with a practice and an experimental phase","yes","NAP_GER_AA_4blocks_noglides.osexp","/Users/aviadalbert/Documents/Academisch/UoC/Dissertation/Experiment/OpenSesame/NAP-FC/NAP_GER_AA_4blocks_noglides","yes","no","sans","no","20","no","black","no","Weiter","yes","768","legacy","16","9","0","/Users/aviadalbert/Documents/Academisch/UoC/Dissertation/Experiment/OpenSesame/NAP-FC/NAP_GER_AA_4blocks_noglides/subject-26.csv","xpyriment","Jazzy James","3.1.9","yes","yes","59a800d99ad5a1025d81bb03","59a801616c613b0251691de0","no","no","0","j","f","space","NA","u","u","j","700","2006","14037","NA","27642","10338","700","2","legacy","1024","1","44100","-16","experiment","melal","2","0","0","0","1","English","26","","even","1946105","1931529","NA","NA","1948112","1946101","NA","1763004","1945624","1763004","1763004","1853610","1881256","1997043","1995539","1997745","1898418","1891896","1931528","NA","1810526","1844112","1929870","1891659","1946105","1891900","NA","1997043","1997043","NA","NA","1995535","NAP perception","11","19387","17","yes","1024"
"66.6666666667","yes","66.6666666667","1114.83333333","1114.83333333","white","no","xpyriment","Ich habe die obigen Informationen gelesen und verstanden.","legacy","legacy","0","uniform","1","0","0","undefined","undefined","1","f","2","1","NA","0","1","0","0","0","0","0","0","0","0","27","27","27","0","0","0","NA","0","0","2","0","0","0","2","27","27","27","27","27","Thu Oct 26 13:45:56 2017","Forced-choice identification task with a practice and an experimental phase","yes","NAP_GER_AA_4blocks_noglides.osexp","/Users/aviadalbert/Documents/Academisch/UoC/Dissertation/Experiment/OpenSesame/NAP-FC/NAP_GER_AA_4blocks_noglides","yes","no","sans","no","20","no","black","no","Weiter","yes","768","legacy","17","9","0","/Users/aviadalbert/Documents/Academisch/UoC/Dissertation/Experiment/OpenSesame/NAP-FC/NAP_GER_AA_4blocks_noglides/subject-26.csv","xpyriment","Jazzy James","3.1.9","yes","yes","59a800d99ad5a1025d81bb03","59a801616c613b0251691de0","no","no","0","f","f","space","NA","u","u","f","680","2006","14037","NA","27642","10338","680","2","legacy","1024","1","44100","-16","experiment","flal","2","0","0","0","1","English","26","","even","1946105","1931529","NA","NA","1948112","1946101","NA","1763004","1945624","1763004","1763004","1853610","1881256","1999538","1998033","2000220","1898418","1891896","1931528","NA","1810526","1844112","1929870","1891659","1946105","1891900","NA","1999538","1999538","NA","NA","1998029","NAP perception","12","20067","18","yes","1024"
"68.4210526316","yes","68.4210526316","1126.94736842","1126.94736842","white","no","xpyriment","Ich habe die obigen Informationen gelesen und verstanden.","legacy","legacy","0","uniform","1","0","0","undefined","undefined","1","j","2","1","NA","0","1","0","0","0","0","0","0","0","0","28","28","28","0","0","0","NA","0","0","2","0","0","0","2","28","28","28","28","28","Thu Oct 26 13:45:56 2017","Forced-choice identification task with a practice and an experimental phase","yes","NAP_GER_AA_4blocks_noglides.osexp","/Users/aviadalbert/Documents/Academisch/UoC/Dissertation/Experiment/OpenSesame/NAP-FC/NAP_GER_AA_4blocks_noglides","yes","no","sans","no","20","no","black","no","Weiter","yes","768","legacy","18","9","0","/Users/aviadalbert/Documents/Academisch/UoC/Dissertation/Experiment/OpenSesame/NAP-FC/NAP_GER_AA_4blocks_noglides/subject-26.csv","xpyriment","Jazzy James","3.1.9","yes","yes","59a800d99ad5a1025d81bb03","59a801616c613b0251691de0","no","no","0","j","f","space","NA","u","u","j","1345","2006","14037","NA","27642","10338","1345","2","legacy","1024","1","44100","-16","experiment","efnal","2","0","0","0","1","English","26","","even","1946105","1931529","NA","NA","1948112","1946101","NA","1763004","1945624","1763004","1763004","1853610","1881256","2001993","2000485","2003339","1898418","1891896","1931528","NA","1810526","1844112","1929870","1891659","1946105","1891900","NA","2001992","2001992","NA","NA","2000481","NAP perception","13","21412","19","yes","1024"
"70","yes","70","1150.85","1150.85","white","no","xpyriment","Ich habe die obigen Informationen gelesen und verstanden.","legacy","legacy","0","uniform","1","0","0","undefined","undefined","1","j","2","1","NA","0","1","0","0","0","0","0","0","0","0","29","29","29","0","0","0","NA","0","0","2","0","0","0","2","29","29","29","29","29","Thu Oct 26 13:45:56 2017","Forced-choice identification task with a practice and an experimental phase","yes","NAP_GER_AA_4blocks_noglides.osexp","/Users/aviadalbert/Documents/Academisch/UoC/Dissertation/Experiment/OpenSesame/NAP-FC/NAP_GER_AA_4blocks_noglides","yes","no","sans","no","20","no","black","no","Weiter","yes","768","legacy","19","9","0","/Users/aviadalbert/Documents/Academisch/UoC/Dissertation/Experiment/OpenSesame/NAP-FC/NAP_GER_AA_4blocks_noglides/subject-26.csv","xpyriment","Jazzy James","3.1.9","yes","yes","59a800d99ad5a1025d81bb03","59a801616c613b0251691de0","no","no","0","j","f","space","NA","u","u","j","1605","2006","14037","NA","27642","10338","1605","2","legacy","1024","1","44100","-16","experiment","lekal","2","0","0","0","1","English","26","","even","1946105","1931529","NA","NA","1948112","1946101","NA","1763004","1945624","1763004","1763004","1853610","1881256","2005133","2003629","2006740","1898418","1891896","1931528","NA","1810526","1844112","1929870","1891659","1946105","1891900","NA","2005133","2005133","NA","NA","2003625","NAP perception","14","23017","20","yes","1024"
"66.6666666667","yes","66.6666666667","1238.9047619","1238.9047619","white","no","xpyriment","Ich habe die obigen Informationen gelesen und verstanden.","legacy","legacy","0","uniform","0","0","0","undefined","undefined","0","f","2","1","NA","0","1","0","0","0","0","0","0","0","0","30","30","30","0","0","0","NA","0","0","2","0","0","0","2","30","30","30","30","30","Thu Oct 26 13:45:56 2017","Forced-choice identification task with a practice and an experimental phase","yes","NAP_GER_AA_4blocks_noglides.osexp","/Users/aviadalbert/Documents/Academisch/UoC/Dissertation/Experiment/OpenSesame/NAP-FC/NAP_GER_AA_4blocks_noglides","yes","no","sans","no","20","no","black","no","Weiter","yes","768","legacy","20","9","0","/Users/aviadalbert/Documents/Academisch/UoC/Dissertation/Experiment/OpenSesame/NAP-FC/NAP_GER_AA_4blocks_noglides/subject-26.csv","xpyriment","Jazzy James","3.1.9","yes","yes","59a800d99ad5a1025d81bb03","59a801616c613b0251691de0","no","no","0","None","f","space","NA","u","u","None","3000","2006","14037","NA","27642","10338","3000","2","legacy","1024","1","44100","-16","experiment","mzal","2","0","0","0","1","English","26","","even","1946105","1931529","NA","NA","1948112","1946101","NA","1763004","1945624","1763004","1763004","1853610","1881256","2008523","2007016","2012527","1898418","1891896","1931528","NA","1810526","1844112","1929870","1891659","1946105","1891900","NA","2008522","2008523","2011526","2011523","2007012","NAP perception","14","26017","21","yes","1024"
"68.1818181818","yes","68.1818181818","1233.68181818","1233.68181818","white","no","xpyriment","Ich habe die obigen Informationen gelesen und verstanden.","legacy","legacy","0","uniform","1","0","0","undefined","undefined","1","j","2","1","NA","0","1","0","0","0","0","0","0","0","0","31","31","31","0","0","0","NA","0","0","2","0","0","0","2","31","31","31","31","31","Thu Oct 26 13:45:56 2017","Forced-choice identification task with a practice and an experimental phase","yes","NAP_GER_AA_4blocks_noglides.osexp","/Users/aviadalbert/Documents/Academisch/UoC/Dissertation/Experiment/OpenSesame/NAP-FC/NAP_GER_AA_4blocks_noglides","yes","no","sans","no","20","no","black","no","Weiter","yes","768","legacy","21","9","0","/Users/aviadalbert/Documents/Academisch/UoC/Dissertation/Experiment/OpenSesame/NAP-FC/NAP_GER_AA_4blocks_noglides/subject-26.csv","xpyriment","Jazzy James","3.1.9","yes","yes","59a800d99ad5a1025d81bb03","59a801616c613b0251691de0","no","no","0","j","f","space","NA","u","u","j","1124","2006","14037","NA","27642","10338","1124","2","legacy","1024","1","44100","-16","experiment","vezal","2","0","0","0","1","English","26","","even","1946105","1931529","NA","NA","1948112","1946101","NA","1763004","1945624","1763004","1763004","1853610","1881256","2014313","2012808","2015439","1898418","1891896","1931528","NA","1810526","1844112","1929870","1891659","1946105","1891900","NA","2014312","2014312","2011526","2011523","2012804","NAP perception","15","27141","22","yes","1024"
"69.5652173913","yes","69.5652173913","1211.69565217","1211.69565217","white","no","xpyriment","Ich habe die obigen Informationen gelesen und verstanden.","legacy","legacy","0","uniform","1","0","0","undefined","undefined","1","j","2","1","NA","0","1","0","0","0","0","0","0","0","0","32","32","32","0","0","0","NA","0","0","2","0","0","0","2","32","32","32","32","32","Thu Oct 26 13:45:56 2017","Forced-choice identification task with a practice and an experimental phase","yes","NAP_GER_AA_4blocks_noglides.osexp","/Users/aviadalbert/Documents/Academisch/UoC/Dissertation/Experiment/OpenSesame/NAP-FC/NAP_GER_AA_4blocks_noglides","yes","no","sans","no","20","no","black","no","Weiter","yes","768","legacy","22","9","0","/Users/aviadalbert/Documents/Academisch/UoC/Dissertation/Experiment/OpenSesame/NAP-FC/NAP_GER_AA_4blocks_noglides/subject-26.csv","xpyriment","Jazzy James","3.1.9","yes","yes","59a800d99ad5a1025d81bb03","59a801616c613b0251691de0","no","no","0","j","f","space","NA","u","u","j","728","2006","14037","NA","27642","10338","728","2","legacy","1024","1","44100","-16","experiment","elval","2","0","0","0","1","English","26","","even","1946105","1931529","NA","NA","1948112","1946101","NA","1763004","1945624","1763004","1763004","1853610","1881256","2017207","2015700","2017937","1898418","1891896","1931528","NA","1810526","1844112","1929870","1891659","1946105","1891900","NA","2017207","2017207","2011526","2011523","2015696","NAP perception","16","27869","23","yes","1024"
"70.8333333333","yes","70.8333333333","1218.75","1218.75","white","no","xpyriment","Ich habe die obigen Informationen gelesen und verstanden.","legacy","legacy","0","uniform","1","0","0","undefined","undefined","1","j","2","1","NA","0","1","0","0","0","0","0","0","0","0","33","33","33","0","0","0","NA","0","0","2","0","0","0","2","33","33","33","33","33","Thu Oct 26 13:45:56 2017","Forced-choice identification task with a practice and an experimental phase","yes","NAP_GER_AA_4blocks_noglides.osexp","/Users/aviadalbert/Documents/Academisch/UoC/Dissertation/Experiment/OpenSesame/NAP-FC/NAP_GER_AA_4blocks_noglides","yes","no","sans","no","20","no","black","no","Weiter","yes","768","legacy","23","9","0","/Users/aviadalbert/Documents/Academisch/UoC/Dissertation/Experiment/OpenSesame/NAP-FC/NAP_GER_AA_4blocks_noglides/subject-26.csv","xpyriment","Jazzy James","3.1.9","yes","yes","59a800d99ad5a1025d81bb03","59a801616c613b0251691de0","no","no","0","j","f","space","NA","u","u","j","1381","2006","14037","NA","27642","10338","1381","2","legacy","1024","1","44100","-16","experiment","eftal","2","0","0","0","1","English","26","","even","1946105","1931529","NA","NA","1948112","1946101","NA","1763004","1945624","1763004","1763004","1853610","1881256","2019722","2018218","2021105","1898418","1891896","1931528","NA","1810526","1844112","1929870","1891659","1946105","1891900","NA","2019722","2019722","2011526","2011523","2018215","NAP perception","17","29250","24","yes","1024"
"68","yes","68","1229.52","1229.52","white","no","xpyriment","Ich habe die obigen Informationen gelesen und verstanden.","legacy","legacy","0","uniform","0","0","0","undefined","undefined","0","f","2","1","NA","0","1","0","0","0","0","0","0","0","0","34","34","34","0","0","0","NA","0","0","2","0","0","0","2","34","34","34","34","34","Thu Oct 26 13:45:56 2017","Forced-choice identification task with a practice and an experimental phase","yes","NAP_GER_AA_4blocks_noglides.osexp","/Users/aviadalbert/Documents/Academisch/UoC/Dissertation/Experiment/OpenSesame/NAP-FC/NAP_GER_AA_4blocks_noglides","yes","no","sans","no","20","no","black","no","Weiter","yes","768","legacy","24","9","0","/Users/aviadalbert/Documents/Academisch/UoC/Dissertation/Experiment/OpenSesame/NAP-FC/NAP_GER_AA_4blocks_noglides/subject-26.csv","xpyriment","Jazzy James","3.1.9","yes","yes","59a800d99ad5a1025d81bb03","59a801616c613b0251691de0","no","no","0","j","f","space","NA","u","u","j","1488","2006","14037","NA","27642","10338","1488","2","legacy","1024","1","44100","-16","experiment","lval","2","0","0","0","1","English","26","","even","1946105","1931529","NA","NA","1948112","1946101","NA","1763004","1945624","1763004","1763004","1853610","1881256","2022885","2021379","2024374","1898418","1891896","1931528","NA","1810526","1844112","1929870","1891659","1946105","1891900","NA","2022885","2022885","2011526","2011523","2021375","NAP perception","17","30738","25","yes","1024"
"69.2307692308","yes","69.2307692308","1209.03846154","1209.03846154","white","no","xpyriment","Ich habe die obigen Informationen gelesen und verstanden.","legacy","legacy","0","uniform","1","0","0","undefined","undefined","1","j","2","1","NA","0","1","0","0","0","0","0","0","0","0","35","35","35","0","0","0","NA","0","0","2","0","0","0","2","35","35","35","35","35","Thu Oct 26 13:45:56 2017","Forced-choice identification task with a practice and an experimental phase","yes","NAP_GER_AA_4blocks_noglides.osexp","/Users/aviadalbert/Documents/Academisch/UoC/Dissertation/Experiment/OpenSesame/NAP-FC/NAP_GER_AA_4blocks_noglides","yes","no","sans","no","20","no","black","no","Weiter","yes","768","legacy","25","9","0","/Users/aviadalbert/Documents/Academisch/UoC/Dissertation/Experiment/OpenSesame/NAP-FC/NAP_GER_AA_4blocks_noglides/subject-26.csv","xpyriment","Jazzy James","3.1.9","yes","yes","59a800d99ad5a1025d81bb03","59a801616c613b0251691de0","no","no","0","j","f","space","NA","u","u","j","697","2006","14037","NA","27642","10338","697","2","legacy","1024","1","44100","-16","experiment","leval","2","0","0","0","1","English","26","","even","1946105","1931529","NA","NA","1948112","1946101","NA","1763004","1945624","1763004","1763004","1853610","1881256","2026160","2024656","2026858","1898418","1891896","1931528","NA","1810526","1844112","1929870","1891659","1946105","1891900","NA","2026159","2026160","2011526","2011523","2024652","NAP perception","18","31435","26","yes","1024"
"70.3703703704","yes","70.3703703704","1190.62962963","1190.62962963","white","no","xpyriment","Ich habe die obigen Informationen gelesen und verstanden.","legacy","legacy","0","uniform","1","0","0","undefined","undefined","1","f","2","1","NA","0","1","0","0","0","0","0","0","0","0","36","36","36","0","0","0","NA","0","0","2","0","0","0","2","36","36","36","36","36","Thu Oct 26 13:45:56 2017","Forced-choice identification task with a practice and an experimental phase","yes","NAP_GER_AA_4blocks_noglides.osexp","/Users/aviadalbert/Documents/Academisch/UoC/Dissertation/Experiment/OpenSesame/NAP-FC/NAP_GER_AA_4blocks_noglides","yes","no","sans","no","20","no","black","no","Weiter","yes","768","legacy","26","9","0","/Users/aviadalbert/Documents/Academisch/UoC/Dissertation/Experiment/OpenSesame/NAP-FC/NAP_GER_AA_4blocks_noglides/subject-26.csv","xpyriment","Jazzy James","3.1.9","yes","yes","59a800d99ad5a1025d81bb03","59a801616c613b0251691de0","no","no","0","f","f","space","NA","u","u","f","712","2006","14037","NA","27642","10338","712","2","legacy","1024","1","44100","-16","experiment","ʃmal","2","0","0","0","1","English","26","","even","1946105","1931529","NA","NA","1948112","1946101","NA","1763004","1945624","1763004","1763004","1853610","1881256","2028643","2027139","2029356","1898418","1891896","1931528","NA","1810526","1844112","1929870","1891659","1946105","1891900","NA","2028643","2028643","2011526","2011523","2027135","NAP perception","19","32147","27","yes","1024"
"71.4285714286","yes","71.4285714286","1187.35714286","1187.35714286","white","no","xpyriment","Ich habe die obigen Informationen gelesen und verstanden.","legacy","legacy","0","uniform","1","0","0","undefined","undefined","1","j","2","1","NA","0","1","0","0","0","0","0","0","0","0","37","37","37","0","0","0","NA","0","0","2","0","0","0","2","37","37","37","37","37","Thu Oct 26 13:45:56 2017","Forced-choice identification task with a practice and an experimental phase","yes","NAP_GER_AA_4blocks_noglides.osexp","/Users/aviadalbert/Documents/Academisch/UoC/Dissertation/Experiment/OpenSesame/NAP-FC/NAP_GER_AA_4blocks_noglides","yes","no","sans","no","20","no","black","no","Weiter","yes","768","legacy","27","9","0","/Users/aviadalbert/Documents/Academisch/UoC/Dissertation/Experiment/OpenSesame/NAP-FC/NAP_GER_AA_4blocks_noglides/subject-26.csv","xpyriment","Jazzy James","3.1.9","yes","yes","59a800d99ad5a1025d81bb03","59a801616c613b0251691de0","no","no","0","j","f","space","NA","u","u","j","1099","2006","14037","NA","27642","10338","1099","2","legacy","1024","1","44100","-16","experiment","emzal","2","0","0","0","1","English","26","","even","1946105","1931529","NA","NA","1948112","1946101","NA","1763004","1945624","1763004","1763004","1853610","1881256","2031143","2029640","2032243","1898418","1891896","1931528","NA","1810526","1844112","1929870","1891659","1946105","1891900","NA","2031143","2031143","2011526","2011523","2029636","NAP perception","20","33246","28","yes","1024"
"72.4137931034","yes","72.4137931034","1174.72413793","1174.72413793","white","no","xpyriment","Ich habe die obigen Informationen gelesen und verstanden.","legacy","legacy","0","uniform","1","0","0","undefined","undefined","1","j","2","1","NA","0","1","0","0","0","0","0","0","0","0","38","38","38","0","0","0","NA","0","0","2","0","0","0","2","38","38","38","38","38","Thu Oct 26 13:45:56 2017","Forced-choice identification task with a practice and an experimental phase","yes","NAP_GER_AA_4blocks_noglides.osexp","/Users/aviadalbert/Documents/Academisch/UoC/Dissertation/Experiment/OpenSesame/NAP-FC/NAP_GER_AA_4blocks_noglides","yes","no","sans","no","20","no","black","no","Weiter","yes","768","legacy","28","9","0","/Users/aviadalbert/Documents/Academisch/UoC/Dissertation/Experiment/OpenSesame/NAP-FC/NAP_GER_AA_4blocks_noglides/subject-26.csv","xpyriment","Jazzy James","3.1.9","yes","yes","59a800d99ad5a1025d81bb03","59a801616c613b0251691de0","no","no","0","j","f","space","NA","u","u","j","821","2006","14037","NA","27642","10338","821","2","legacy","1024","1","44100","-16","experiment","elfal","2","0","0","0","1","English","26","","even","1946105","1931529","NA","NA","1948112","1946101","NA","1763004","1945624","1763004","1763004","1853610","1881256","2034031","2032524","2034854","1898418","1891896","1931528","NA","1810526","1844112","1929870","1891659","1946105","1891900","NA","2034031","2034031","2011526","2011523","2032521","NAP perception","21","34067","29","yes","1024"
"70","yes","70","1197.73333333","1197.73333333","white","no","xpyriment","Ich habe die obigen Informationen gelesen und verstanden.","legacy","legacy","0","uniform","0","0","0","undefined","undefined","0","f","2","1","NA","0","1","0","0","0","0","0","0","0","0","39","39","39","0","0","0","NA","0","0","2","0","0","0","2","39","39","39","39","39","Thu Oct 26 13:45:56 2017","Forced-choice identification task with a practice and an experimental phase","yes","NAP_GER_AA_4blocks_noglides.osexp","/Users/aviadalbert/Documents/Academisch/UoC/Dissertation/Experiment/OpenSesame/NAP-FC/NAP_GER_AA_4blocks_noglides","yes","no","sans","no","20","no","black","no","Weiter","yes","768","legacy","29","9","0","/Users/aviadalbert/Documents/Academisch/UoC/Dissertation/Experiment/OpenSesame/NAP-FC/NAP_GER_AA_4blocks_noglides/subject-26.csv","xpyriment","Jazzy James","3.1.9","yes","yes","59a800d99ad5a1025d81bb03","59a801616c613b0251691de0","no","no","0","j","f","space","NA","u","u","j","1865","2006","14037","NA","27642","10338","1865","2","legacy","1024","1","44100","-16","experiment","lmal","2","0","0","0","1","English","26","","even","1946105","1931529","NA","NA","1948112","1946101","NA","1763004","1945624","1763004","1763004","1853610","1881256","2036634","2035130","2038500","1898418","1891896","1931528","NA","1810526","1844112","1929870","1891659","1946105","1891900","NA","2036633","2036634","2011526","2011523","2035126","NAP perception","21","35932","30","yes","1024"
"70.9677419355","yes","70.9677419355","1183.87096774","1183.87096774","white","no","xpyriment","Ich habe die obigen Informationen gelesen und verstanden.","legacy","legacy","0","uniform","1","0","0","undefined","undefined","1","j","2","1","NA","0","1","0","0","0","0","0","0","0","0","40","40","40","0","0","0","NA","0","0","2","0","0","0","2","40","40","40","40","40","Thu Oct 26 13:45:56 2017","Forced-choice identification task with a practice and an experimental phase","yes","NAP_GER_AA_4blocks_noglides.osexp","/Users/aviadalbert/Documents/Academisch/UoC/Dissertation/Experiment/OpenSesame/NAP-FC/NAP_GER_AA_4blocks_noglides","yes","no","sans","no","20","no","black","no","Weiter","yes","768","legacy","30","9","0","/Users/aviadalbert/Documents/Academisch/UoC/Dissertation/Experiment/OpenSesame/NAP-FC/NAP_GER_AA_4blocks_noglides/subject-26.csv","xpyriment","Jazzy James","3.1.9","yes","yes","59a800d99ad5a1025d81bb03","59a801616c613b0251691de0","no","no","0","j","f","space","NA","u","u","j","768","2006","14037","NA","27642","10338","768","2","legacy","1024","1","44100","-16","experiment","emsal","2","0","0","0","1","English","26","","even","1946105","1931529","NA","NA","1948112","1946101","NA","1763004","1945624","1763004","1763004","1853610","1881256","2040280","2038776","2041049","1898418","1891896","1931528","NA","1810526","1844112","1929870","1891659","1946105","1891900","NA","2040280","2040280","2011526","2011523","2038772","NAP perception","22","36700","31","yes","1024"
"71.875","yes","71.875","1184.3125","1184.3125","white","no","xpyriment","Ich habe die obigen Informationen gelesen und verstanden.","legacy","legacy","0","uniform","1","0","0","undefined","undefined","1","j","2","1","NA","0","1","0","0","0","0","0","0","0","0","41","41","41","0","0","0","NA","0","0","2","0","0","0","2","41","41","41","41","41","Thu Oct 26 13:45:56 2017","Forced-choice identification task with a practice and an experimental phase","yes","NAP_GER_AA_4blocks_noglides.osexp","/Users/aviadalbert/Documents/Academisch/UoC/Dissertation/Experiment/OpenSesame/NAP-FC/NAP_GER_AA_4blocks_noglides","yes","no","sans","no","20","no","black","no","Weiter","yes","768","legacy","31","9","0","/Users/aviadalbert/Documents/Academisch/UoC/Dissertation/Experiment/OpenSesame/NAP-FC/NAP_GER_AA_4blocks_noglides/subject-26.csv","xpyriment","Jazzy James","3.1.9","yes","yes","59a800d99ad5a1025d81bb03","59a801616c613b0251691de0","no","no","0","j","f","space","NA","u","u","j","1198","2006","14037","NA","27642","10338","1198","2","legacy","1024","1","44100","-16","experiment","nemal","2","0","0","0","1","English","26","","even","1946105","1931529","NA","NA","1948112","1946101","NA","1763004","1945624","1763004","1763004","1853610","1881256","2042831","2041326","2044031","1898418","1891896","1931528","NA","1810526","1844112","1929870","1891659","1946105","1891900","NA","2042831","2042831","2011526","2011523","2041322","NAP perception","23","37898","32","yes","1024"
"72.7272727273","yes","72.7272727273","1167.96969697","1167.96969697","white","no","xpyriment","Ich habe die obigen Informationen gelesen und verstanden.","legacy","legacy","0","uniform","1","0","0","undefined","undefined","1","j","2","1","NA","0","1","0","0","0","0","0","0","0","0","42","42","42","0","0","0","NA","0","0","2","0","0","0","2","42","42","42","42","42","Thu Oct 26 13:45:56 2017","Forced-choice identification task with a practice and an experimental phase","yes","NAP_GER_AA_4blocks_noglides.osexp","/Users/aviadalbert/Documents/Academisch/UoC/Dissertation/Experiment/OpenSesame/NAP-FC/NAP_GER_AA_4blocks_noglides","yes","no","sans","no","20","no","black","no","Weiter","yes","768","legacy","32","9","0","/Users/aviadalbert/Documents/Academisch/UoC/Dissertation/Experiment/OpenSesame/NAP-FC/NAP_GER_AA_4blocks_noglides/subject-26.csv","xpyriment","Jazzy James","3.1.9","yes","yes","59a800d99ad5a1025d81bb03","59a801616c613b0251691de0","no","no","0","j","f","space","NA","u","u","j","645","2006","14037","NA","27642","10338","645","2","legacy","1024","1","44100","-16","experiment","nefal","2","0","0","0","1","English","26","","even","1946105","1931529","NA","NA","1948112","1946101","NA","1763004","1945624","1763004","1763004","1853610","1881256","2045829","2044325","2046475","1898418","1891896","1931528","NA","1810526","1844112","1929870","1891659","1946105","1891900","NA","2045829","2045829","2011526","2011523","2044322","NAP perception","24","38543","33","yes","1024"
"73.5294117647","yes","73.5294117647","1174.73529412","1174.73529412","white","no","xpyriment","Ich habe die obigen Informationen gelesen und verstanden.","legacy","legacy","0","uniform","1","0","0","undefined","undefined","1","j","2","1","NA","0","1","0","0","0","0","0","0","0","0","43","43","43","0","0","0","NA","0","0","2","0","0","0","2","43","43","43","43","43","Thu Oct 26 13:45:56 2017","Forced-choice identification task with a practice and an experimental phase","yes","NAP_GER_AA_4blocks_noglides.osexp","/Users/aviadalbert/Documents/Academisch/UoC/Dissertation/Experiment/OpenSesame/NAP-FC/NAP_GER_AA_4blocks_noglides","yes","no","sans","no","20","no","black","no","Weiter","yes","768","legacy","33","9","0","/Users/aviadalbert/Documents/Academisch/UoC/Dissertation/Experiment/OpenSesame/NAP-FC/NAP_GER_AA_4blocks_noglides/subject-26.csv","xpyriment","Jazzy James","3.1.9","yes","yes","59a800d99ad5a1025d81bb03","59a801616c613b0251691de0","no","no","0","j","f","space","NA","u","u","j","1398","2006","14037","NA","27642","10338","1398","2","legacy","1024","1","44100","-16","experiment","evlal","2","0","0","0","1","English","26","","even","1946105","1931529","NA","NA","1948112","1946101","NA","1763004","1945624","1763004","1763004","1853610","1881256","2048259","2046755","2049658","1898418","1891896","1931528","NA","1810526","1844112","1929870","1891659","1946105","1891900","NA","2048259","2048259","2011526","2011523","2046751","NAP perception","25","39941","34","yes","1024"
"74.2857142857","yes","74.2857142857","1164.42857143","1164.42857143","white","no","xpyriment","Ich habe die obigen Informationen gelesen und verstanden.","legacy","legacy","0","uniform","1","0","0","undefined","undefined","1","f","2","1","NA","0","1","0","0","0","0","0","0","0","0","44","44","44","0","0","0","NA","0","0","2","0","0","0","2","44","44","44","44","44","Thu Oct 26 13:45:56 2017","Forced-choice identification task with a practice and an experimental phase","yes","NAP_GER_AA_4blocks_noglides.osexp","/Users/aviadalbert/Documents/Academisch/UoC/Dissertation/Experiment/OpenSesame/NAP-FC/NAP_GER_AA_4blocks_noglides","yes","no","sans","no","20","no","black","no","Weiter","yes","768","legacy","34","9","0","/Users/aviadalbert/Documents/Academisch/UoC/Dissertation/Experiment/OpenSesame/NAP-FC/NAP_GER_AA_4blocks_noglides/subject-26.csv","xpyriment","Jazzy James","3.1.9","yes","yes","59a800d99ad5a1025d81bb03","59a801616c613b0251691de0","no","no","0","f","f","space","NA","u","u","f","814","2006","14037","NA","27642","10338","814","2","legacy","1024","1","44100","-16","experiment","ʃfal","2","0","0","0","1","English","26","","even","1946105","1931529","NA","NA","1948112","1946101","NA","1763004","1945624","1763004","1763004","1853610","1881256","2051441","2049938","2052256","1898418","1891896","1931528","NA","1810526","1844112","1929870","1891659","1946105","1891900","NA","2051441","2051441","2011526","2011523","2049934","NAP perception","26","40755","35","yes","1024"
"75","yes","75","1166.72222222","1166.72222222","white","no","xpyriment","Ich habe die obigen Informationen gelesen und verstanden.","legacy","legacy","0","uniform","1","0","0","undefined","undefined","1","f","2","1","NA","0","1","0","0","0","0","0","0","0","0","45","45","45","0","0","0","NA","0","0","2","0","0","0","2","45","45","45","45","45","Thu Oct 26 13:45:56 2017","Forced-choice identification task with a practice and an experimental phase","yes","NAP_GER_AA_4blocks_noglides.osexp","/Users/aviadalbert/Documents/Academisch/UoC/Dissertation/Experiment/OpenSesame/NAP-FC/NAP_GER_AA_4blocks_noglides","yes","no","sans","no","20","no","black","no","Weiter","yes","768","legacy","35","9","0","/Users/aviadalbert/Documents/Academisch/UoC/Dissertation/Experiment/OpenSesame/NAP-FC/NAP_GER_AA_4blocks_noglides/subject-26.csv","xpyriment","Jazzy James","3.1.9","yes","yes","59a800d99ad5a1025d81bb03","59a801616c613b0251691de0","no","no","0","f","f","space","NA","u","u","f","1247","2006","14037","NA","27642","10338","1247","2","legacy","1024","1","44100","-16","experiment","mnal","2","0","0","0","1","English","26","","even","1946105","1931529","NA","NA","1948112","1946101","NA","1763004","1945624","1763004","1763004","1853610","1881256","2054047","2052542","2055296","1898418","1891896","1931528","NA","1810526","1844112","1929870","1891659","1946105","1891900","NA","2054047","2054047","2011526","2011523","2052538","NAP perception","27","42002","36","yes","1024"
"75.6756756757","yes","75.6756756757","1157.37837838","1157.37837838","white","no","xpyriment","Ich habe die obigen Informationen gelesen und verstanden.","legacy","legacy","0","uniform","1","0","0","undefined","undefined","1","j","2","1","NA","0","1","0","0","0","0","0","0","0","0","46","46","46","0","0","0","NA","0","0","2","0","0","0","2","46","46","46","46","46","Thu Oct 26 13:45:56 2017","Forced-choice identification task with a practice and an experimental phase","yes","NAP_GER_AA_4blocks_noglides.osexp","/Users/aviadalbert/Documents/Academisch/UoC/Dissertation/Experiment/OpenSesame/NAP-FC/NAP_GER_AA_4blocks_noglides","yes","no","sans","no","20","no","black","no","Weiter","yes","768","legacy","36","9","0","/Users/aviadalbert/Documents/Academisch/UoC/Dissertation/Experiment/OpenSesame/NAP-FC/NAP_GER_AA_4blocks_noglides/subject-26.csv","xpyriment","Jazzy James","3.1.9","yes","yes","59a800d99ad5a1025d81bb03","59a801616c613b0251691de0","no","no","0","j","f","space","NA","u","u","j","821","2006","14037","NA","27642","10338","821","2","legacy","1024","1","44100","-16","experiment","venal","2","0","0","0","1","English","26","","even","1946105","1931529","NA","NA","1948112","1946101","NA","1763004","1945624","1763004","1763004","1853610","1881256","2057077","2055570","2057900","1898418","1891896","1931528","NA","1810526","1844112","1929870","1891659","1946105","1891900","NA","2057077","2057077","2011526","2011523","2055567","NAP perception","28","42823","37","yes","1024"
"76.3157894737","yes","76.3157894737","1167.31578947","1167.31578947","white","no","xpyriment","Ich habe die obigen Informationen gelesen und verstanden.","legacy","legacy","0","uniform","1","0","0","undefined","undefined","1","f","2","1","NA","0","1","0","0","0","0","0","0","0","0","47","47","47","0","0","0","NA","0","0","2","0","0","0","2","47","47","47","47","47","Thu Oct 26 13:45:56 2017","Forced-choice identification task with a practice and an experimental phase","yes","NAP_GER_AA_4blocks_noglides.osexp","/Users/aviadalbert/Documents/Academisch/UoC/Dissertation/Experiment/OpenSesame/NAP-FC/NAP_GER_AA_4blocks_noglides","yes","no","sans","no","20","no","black","no","Weiter","yes","768","legacy","37","9","0","/Users/aviadalbert/Documents/Academisch/UoC/Dissertation/Experiment/OpenSesame/NAP-FC/NAP_GER_AA_4blocks_noglides/subject-26.csv","xpyriment","Jazzy James","3.1.9","yes","yes","59a800d99ad5a1025d81bb03","59a801616c613b0251691de0","no","no","0","f","f","space","NA","u","u","f","1535","2006","14037","NA","27642","10338","1535","2","legacy","1024","1","44100","-16","experiment","nfal","2","0","0","0","1","English","26","","even","1946105","1931529","NA","NA","1948112","1946101","NA","1763004","1945624","1763004","1763004","1853610","1881256","2059672","2058168","2061209","1898418","1891896","1931528","NA","1810526","1844112","1929870","1891659","1946105","1891900","NA","2059672","2059672","2011526","2011523","2058164","NAP perception","29","44358","38","yes","1024"
"76.9230769231","yes","76.9230769231","1170.07692308","1170.07692308","white","no","xpyriment","Ich habe die obigen Informationen gelesen und verstanden.","legacy","legacy","0","uniform","1","0","0","undefined","undefined","1","j","2","1","NA","0","1","0","0","0","0","0","0","0","0","48","48","48","0","0","0","NA","0","0","2","0","0","0","2","48","48","48","48","48","Thu Oct 26 13:45:56 2017","Forced-choice identification task with a practice and an experimental phase","yes","NAP_GER_AA_4blocks_noglides.osexp","/Users/aviadalbert/Documents/Academisch/UoC/Dissertation/Experiment/OpenSesame/NAP-FC/NAP_GER_AA_4blocks_noglides","yes","no","sans","no","20","no","black","no","Weiter","yes","768","legacy","38","9","0","/Users/aviadalbert/Documents/Academisch/UoC/Dissertation/Experiment/OpenSesame/NAP-FC/NAP_GER_AA_4blocks_noglides/subject-26.csv","xpyriment","Jazzy James","3.1.9","yes","yes","59a800d99ad5a1025d81bb03","59a801616c613b0251691de0","no","no","0","j","f","space","NA","u","u","j","1275","2006","14037","NA","27642","10338","1275","2","legacy","1024","1","44100","-16","experiment","ʃefal","2","0","0","0","1","English","26","","even","1946105","1931529","NA","NA","1948112","1946101","NA","1763004","1945624","1763004","1763004","1853610","1881256","2062985","2061478","2064262","1898418","1891896","1931528","NA","1810526","1844112","1929870","1891659","1946105","1891900","NA","2062985","2062985","2011526","2011523","2061474","NAP perception","30","45633","39","yes","1024"
"77.5","yes","77.5","1167.425","1167.425","white","no","xpyriment","Ich habe die obigen Informationen gelesen und verstanden.","legacy","legacy","0","uniform","1","0","0","undefined","undefined","1","j","2","1","NA","0","1","0","0","0","0","0","0","0","0","49","49","49","0","0","0","NA","0","0","2","0","0","0","2","49","49","49","49","49","Thu Oct 26 13:45:56 2017","Forced-choice identification task with a practice and an experimental phase","yes","NAP_GER_AA_4blocks_noglides.osexp","/Users/aviadalbert/Documents/Academisch/UoC/Dissertation/Experiment/OpenSesame/NAP-FC/NAP_GER_AA_4blocks_noglides","yes","no","sans","no","20","no","black","no","Weiter","yes","768","legacy","39","9","0","/Users/aviadalbert/Documents/Academisch/UoC/Dissertation/Experiment/OpenSesame/NAP-FC/NAP_GER_AA_4blocks_noglides/subject-26.csv","xpyriment","Jazzy James","3.1.9","yes","yes","59a800d99ad5a1025d81bb03","59a801616c613b0251691de0","no","no","0","j","f","space","NA","u","u","j","1064","2006","14037","NA","27642","10338","1064","2","legacy","1024","1","44100","-16","experiment","neval","2","0","0","0","1","English","26","","even","1946105","1931529","NA","NA","1948112","1946101","NA","1763004","1945624","1763004","1763004","1853610","1881256","2066053","2064547","2067119","1898418","1891896","1931528","NA","1810526","1844112","1929870","1891659","1946105","1891900","NA","2066052","2066053","2011526","2011523","2064543","NAP perception","31","46697","40","yes","1024"
"78.0487804878","yes","78.0487804878","1156.31707317","1156.31707317","white","no","xpyriment","Ich habe die obigen Informationen gelesen und verstanden.","legacy","legacy","0","uniform","1","0","0","undefined","undefined","1","f","2","1","NA","0","1","0","0","0","0","0","0","0","0","50","50","50","0","0","0","NA","0","0","2","0","0","0","2","50","50","50","50","50","Thu Oct 26 13:45:56 2017","Forced-choice identification task with a practice and an experimental phase","yes","NAP_GER_AA_4blocks_noglides.osexp","/Users/aviadalbert/Documents/Academisch/UoC/Dissertation/Experiment/OpenSesame/NAP-FC/NAP_GER_AA_4blocks_noglides","yes","no","sans","no","20","no","black","no","Weiter","yes","768","legacy","40","9","0","/Users/aviadalbert/Documents/Academisch/UoC/Dissertation/Experiment/OpenSesame/NAP-FC/NAP_GER_AA_4blocks_noglides/subject-26.csv","xpyriment","Jazzy James","3.1.9","yes","yes","59a800d99ad5a1025d81bb03","59a801616c613b0251691de0","no","no","0","f","f","space","NA","u","u","f","712","2006","14037","NA","27642","10338","712","2","legacy","1024","1","44100","-16","experiment","smal","2","0","0","0","1","English","26","","even","1946105","1931529","NA","NA","1948112","1946101","NA","1763004","1945624","1763004","1763004","1853610","1881256","2068910","2067405","2069624","1898418","1891896","1931528","NA","1810526","1844112","1929870","1891659","1946105","1891900","NA","2068910","2068910","2011526","2011523","2067401","NAP perception","32","47409","41","yes","1024"
"78.5714285714","yes","78.5714285714","1144.76190476","1144.76190476","white","no","xpyriment","Ich habe die obigen Informationen gelesen und verstanden.","legacy","legacy","0","uniform","1","0","0","undefined","undefined","1","j","2","1","NA","0","1","0","0","0","0","0","0","0","0","51","51","51","0","0","0","NA","0","0","2","0","0","0","2","51","51","51","51","51","Thu Oct 26 13:45:56 2017","Forced-choice identification task with a practice and an experimental phase","yes","NAP_GER_AA_4blocks_noglides.osexp","/Users/aviadalbert/Documents/Academisch/UoC/Dissertation/Experiment/OpenSesame/NAP-FC/NAP_GER_AA_4blocks_noglides","yes","no","sans","no","20","no","black","no","Weiter","yes","768","legacy","41","9","0","/Users/aviadalbert/Documents/Academisch/UoC/Dissertation/Experiment/OpenSesame/NAP-FC/NAP_GER_AA_4blocks_noglides/subject-26.csv","xpyriment","Jazzy James","3.1.9","yes","yes","59a800d99ad5a1025d81bb03","59a801616c613b0251691de0","no","no","0","j","f","space","NA","u","u","j","671","2006","14037","NA","27642","10338","671","2","legacy","1024","1","44100","-16","experiment","fetal","2","0","0","0","1","English","26","","even","1946105","1931529","NA","NA","1948112","1946101","NA","1763004","1945624","1763004","1763004","1853610","1881256","2071422","2069918","2072095","1898418","1891896","1931528","NA","1810526","1844112","1929870","1891659","1946105","1891900","NA","2071421","2071422","2011526","2011523","2069914","NAP perception","33","48080","42","yes","1024"
"79.0697674419","yes","79.0697674419","1138.41860465","1138.41860465","white","no","xpyriment","Ich habe die obigen Informationen gelesen und verstanden.","legacy","legacy","0","uniform","1","0","0","undefined","undefined","1","j","2","1","NA","0","1","0","0","0","0","0","0","0","0","52","52","52","0","0","0","NA","0","0","2","0","0","0","2","52","52","52","52","52","Thu Oct 26 13:45:56 2017","Forced-choice identification task with a practice and an experimental phase","yes","NAP_GER_AA_4blocks_noglides.osexp","/Users/aviadalbert/Documents/Academisch/UoC/Dissertation/Experiment/OpenSesame/NAP-FC/NAP_GER_AA_4blocks_noglides","yes","no","sans","no","20","no","black","no","Weiter","yes","768","legacy","42","9","0","/Users/aviadalbert/Documents/Academisch/UoC/Dissertation/Experiment/OpenSesame/NAP-FC/NAP_GER_AA_4blocks_noglides/subject-26.csv","xpyriment","Jazzy James","3.1.9","yes","yes","59a800d99ad5a1025d81bb03","59a801616c613b0251691de0","no","no","0","j","f","space","NA","u","u","j","872","2006","14037","NA","27642","10338","872","2","legacy","1024","1","44100","-16","experiment","mesal","2","0","0","0","1","English","26","","even","1946105","1931529","NA","NA","1948112","1946101","NA","1763004","1945624","1763004","1763004","1853610","1881256","2073873","2072368","2074747","1898418","1891896","1931528","NA","1810526","1844112","1929870","1891659","1946105","1891900","NA","2073873","2073873","2011526","2011523","2072364","NAP perception","34","48952","43","yes","1024"
"79.5454545455","yes","79.5454545455","1133.63636364","1133.63636364","white","no","xpyriment","Ich habe die obigen Informationen gelesen und verstanden.","legacy","legacy","0","uniform","1","0","0","undefined","undefined","1","f","2","1","NA","0","1","0","0","0","0","0","0","0","0","53","53","53","0","0","0","NA","0","0","2","0","0","0","2","53","53","53","53","53","Thu Oct 26 13:45:56 2017","Forced-choice identification task with a practice and an experimental phase","yes","NAP_GER_AA_4blocks_noglides.osexp","/Users/aviadalbert/Documents/Academisch/UoC/Dissertation/Experiment/OpenSesame/NAP-FC/NAP_GER_AA_4blocks_noglides","yes","no","sans","no","20","no","black","no","Weiter","yes","768","legacy","43","9","0","/Users/aviadalbert/Documents/Academisch/UoC/Dissertation/Experiment/OpenSesame/NAP-FC/NAP_GER_AA_4blocks_noglides/subject-26.csv","xpyriment","Jazzy James","3.1.9","yes","yes","59a800d99ad5a1025d81bb03","59a801616c613b0251691de0","no","no","0","f","f","space","NA","u","u","f","928","2006","14037","NA","27642","10338","928","2","legacy","1024","1","44100","-16","experiment","vlal","2","0","0","0","1","English","26","","even","1946105","1931529","NA","NA","1948112","1946101","NA","1763004","1945624","1763004","1763004","1853610","1881256","2076529","2075022","2077459","1898418","1891896","1931528","NA","1810526","1844112","1929870","1891659","1946105","1891900","NA","2076529","2076529","2011526","2011523","2075018","NAP perception","35","49880","44","yes","1024"
"80","yes","80","1124.77777778","1124.77777778","white","no","xpyriment","Ich habe die obigen Informationen gelesen und verstanden.","legacy","legacy","0","uniform","1","0","0","undefined","undefined","1","j","2","1","NA","0","1","0","0","0","0","0","0","0","0","54","54","54","0","0","0","NA","0","0","2","0","0","0","2","54","54","54","54","54","Thu Oct 26 13:45:56 2017","Forced-choice identification task with a practice and an experimental phase","yes","NAP_GER_AA_4blocks_noglides.osexp","/Users/aviadalbert/Documents/Academisch/UoC/Dissertation/Experiment/OpenSesame/NAP-FC/NAP_GER_AA_4blocks_noglides","yes","no","sans","no","20","no","black","no","Weiter","yes","768","legacy","44","9","0","/Users/aviadalbert/Documents/Academisch/UoC/Dissertation/Experiment/OpenSesame/NAP-FC/NAP_GER_AA_4blocks_noglides/subject-26.csv","xpyriment","Jazzy James","3.1.9","yes","yes","59a800d99ad5a1025d81bb03","59a801616c613b0251691de0","no","no","0","j","f","space","NA","u","u","j","735","2006","14037","NA","27642","10338","735","2","legacy","1024","1","44100","-16","experiment","enmal","2","0","0","0","1","English","26","","even","1946105","1931529","NA","NA","1948112","1946101","NA","1763004","1945624","1763004","1763004","1853610","1881256","2079249","2077745","2079985","1898418","1891896","1931528","NA","1810526","1844112","1929870","1891659","1946105","1891900","NA","2079249","2079249","2011526","2011523","2077741","NAP perception","36","50615","45","yes","1024"
"80.4347826087","yes","80.4347826087","1127.84782609","1127.84782609","white","no","xpyriment","Ich habe die obigen Informationen gelesen und verstanden.","legacy","legacy","0","uniform","1","0","0","undefined","undefined","1","f","2","1","NA","0","1","0","0","0","0","0","0","0","0","55","55","55","0","0","0","NA","0","0","2","0","0","0","2","55","55","55","55","55","Thu Oct 26 13:45:56 2017","Forced-choice identification task with a practice and an experimental phase","yes","NAP_GER_AA_4blocks_noglides.osexp","/Users/aviadalbert/Documents/Academisch/UoC/Dissertation/Experiment/OpenSesame/NAP-FC/NAP_GER_AA_4blocks_noglides","yes","no","sans","no","20","no","black","no","Weiter","yes","768","legacy","45","9","0","/Users/aviadalbert/Documents/Academisch/UoC/Dissertation/Experiment/OpenSesame/NAP-FC/NAP_GER_AA_4blocks_noglides/subject-26.csv","xpyriment","Jazzy James","3.1.9","yes","yes","59a800d99ad5a1025d81bb03","59a801616c613b0251691de0","no","no","0","f","f","space","NA","u","u","f","1266","2006","14037","NA","27642","10338","1266","2","legacy","1024","1","44100","-16","experiment","vzal","2","0","0","0","1","English","26","","even","1946105","1931529","NA","NA","1948112","1946101","NA","1763004","1945624","1763004","1763004","1853610","1881256","2081758","2080253","2083025","1898418","1891896","1931528","NA","1810526","1844112","1929870","1891659","1946105","1891900","NA","2081757","2081757","2011526","2011523","2080249","NAP perception","37","51881","46","yes","1024"
"80.8510638298","yes","80.8510638298","1120.91489362","1120.91489362","white","no","xpyriment","Ich habe die obigen Informationen gelesen und verstanden.","legacy","legacy","0","uniform","1","0","0","undefined","undefined","1","j","2","1","NA","0","1","0","0","0","0","0","0","0","0","56","56","56","0","0","0","NA","0","0","2","0","0","0","2","56","56","56","56","56","Thu Oct 26 13:45:56 2017","Forced-choice identification task with a practice and an experimental phase","yes","NAP_GER_AA_4blocks_noglides.osexp","/Users/aviadalbert/Documents/Academisch/UoC/Dissertation/Experiment/OpenSesame/NAP-FC/NAP_GER_AA_4blocks_noglides","yes","no","sans","no","20","no","black","no","Weiter","yes","768","legacy","46","9","0","/Users/aviadalbert/Documents/Academisch/UoC/Dissertation/Experiment/OpenSesame/NAP-FC/NAP_GER_AA_4blocks_noglides/subject-26.csv","xpyriment","Jazzy James","3.1.9","yes","yes","59a800d99ad5a1025d81bb03","59a801616c613b0251691de0","no","no","0","j","f","space","NA","u","u","j","802","2006","14037","NA","27642","10338","802","2","legacy","1024","1","44100","-16","experiment","semal","2","0","0","0","1","English","26","","even","1946105","1931529","NA","NA","1948112","1946101","NA","1763004","1945624","1763004","1763004","1853610","1881256","2084804","2083300","2085607","1898418","1891896","1931528","NA","1810526","1844112","1929870","1891659","1946105","1891900","NA","2084804","2084804","2011526","2011523","2083296","NAP perception","38","52683","47","yes","1024"
"81.25","yes","81.25","1115.14583333","1115.14583333","white","no","xpyriment","Ich habe die obigen Informationen gelesen und verstanden.","legacy","legacy","0","uniform","1","0","0","undefined","undefined","1","j","2","1","NA","0","1","0","0","0","0","0","0","0","0","57","57","57","0","0","0","NA","0","0","2","0","0","0","2","57","57","57","57","57","Thu Oct 26 13:45:56 2017","Forced-choice identification task with a practice and an experimental phase","yes","NAP_GER_AA_4blocks_noglides.osexp","/Users/aviadalbert/Documents/Academisch/UoC/Dissertation/Experiment/OpenSesame/NAP-FC/NAP_GER_AA_4blocks_noglides","yes","no","sans","no","20","no","black","no","Weiter","yes","768","legacy","47","9","0","/Users/aviadalbert/Documents/Academisch/UoC/Dissertation/Experiment/OpenSesame/NAP-FC/NAP_GER_AA_4blocks_noglides/subject-26.csv","xpyriment","Jazzy James","3.1.9","yes","yes","59a800d99ad5a1025d81bb03","59a801616c613b0251691de0","no","no","0","j","f","space","NA","u","u","j","844","2006","14037","NA","27642","10338","844","2","legacy","1024","1","44100","-16","experiment","elkal","2","0","0","0","1","English","26","","even","1946105","1931529","NA","NA","1948112","1946101","NA","1763004","1945624","1763004","1763004","1853610","1881256","2087395","2085892","2088240","1898418","1891896","1931528","NA","1810526","1844112","1929870","1891659","1946105","1891900","NA","2087395","2087395","2011526","2011523","2085888","NAP perception","39","53527","48","yes","1024"
"81.6326530612","yes","81.6326530612","1107.36734694","1107.36734694","white","no","xpyriment","Ich habe die obigen Informationen gelesen und verstanden.","legacy","legacy","0","uniform","1","0","0","undefined","undefined","1","j","2","1","NA","0","1","0","0","0","0","0","0","0","0","58","58","58","0","0","0","NA","0","0","2","0","0","0","2","58","58","58","58","58","Thu Oct 26 13:45:56 2017","Forced-choice identification task with a practice and an experimental phase","yes","NAP_GER_AA_4blocks_noglides.osexp","/Users/aviadalbert/Documents/Academisch/UoC/Dissertation/Experiment/OpenSesame/NAP-FC/NAP_GER_AA_4blocks_noglides","yes","no","sans","no","20","no","black","no","Weiter","yes","768","legacy","48","9","0","/Users/aviadalbert/Documents/Academisch/UoC/Dissertation/Experiment/OpenSesame/NAP-FC/NAP_GER_AA_4blocks_noglides/subject-26.csv","xpyriment","Jazzy James","3.1.9","yes","yes","59a800d99ad5a1025d81bb03","59a801616c613b0251691de0","no","no","0","j","f","space","NA","u","u","j","734","2006","14037","NA","27642","10338","734","2","legacy","1024","1","44100","-16","experiment","emnal","2","0","0","0","1","English","26","","even","1946105","1931529","NA","NA","1948112","1946101","NA","1763004","1945624","1763004","1763004","1853610","1881256","2090031","2088527","2090766","1898418","1891896","1931528","NA","1810526","1844112","1929870","1891659","1946105","1891900","NA","2090030","2090030","2011526","2011523","2088523","NAP perception","40","54261","49","yes","1024"
"82","yes","82","1100.8","1100.8","white","no","xpyriment","Ich habe die obigen Informationen gelesen und verstanden.","legacy","legacy","0","uniform","1","0","0","undefined","undefined","1","f","2","1","NA","0","1","0","0","0","0","0","0","0","0","59","59","59","0","0","0","NA","0","0","2","0","0","0","2","59","59","59","59","59","Thu Oct 26 13:45:56 2017","Forced-choice identification task with a practice and an experimental phase","yes","NAP_GER_AA_4blocks_noglides.osexp","/Users/aviadalbert/Documents/Academisch/UoC/Dissertation/Experiment/OpenSesame/NAP-FC/NAP_GER_AA_4blocks_noglides","yes","no","sans","no","20","no","black","no","Weiter","yes","768","legacy","49","9","0","/Users/aviadalbert/Documents/Academisch/UoC/Dissertation/Experiment/OpenSesame/NAP-FC/NAP_GER_AA_4blocks_noglides/subject-26.csv","xpyriment","Jazzy James","3.1.9","yes","yes","59a800d99ad5a1025d81bb03","59a801616c613b0251691de0","no","no","0","f","f","space","NA","u","u","f","779","2006","14037","NA","27642","10338","779","2","legacy","1024","1","44100","-16","experiment","zmal","2","0","0","0","1","English","26","","even","1946105","1931529","NA","NA","1948112","1946101","NA","1763004","1945624","1763004","1763004","1853610","1881256","2092537","2091033","2093317","1898418","1891896","1931528","NA","1810526","1844112","1929870","1891659","1946105","1891900","NA","2092536","2092537","2011526","2011523","2091030","NAP perception","41","55040","50","yes","1024"
"82.3529411765","yes","82.3529411765","1094.62745098","1094.62745098","white","no","xpyriment","Ich habe die obigen Informationen gelesen und verstanden.","legacy","legacy","0","uniform","1","0","0","undefined","undefined","1","f","2","1","NA","0","1","0","0","0","0","0","0","0","0","60","60","60","0","0","0","NA","0","0","2","0","0","0","2","60","60","60","60","60","Thu Oct 26 13:45:56 2017","Forced-choice identification task with a practice and an experimental phase","yes","NAP_GER_AA_4blocks_noglides.osexp","/Users/aviadalbert/Documents/Academisch/UoC/Dissertation/Experiment/OpenSesame/NAP-FC/NAP_GER_AA_4blocks_noglides","yes","no","sans","no","20","no","black","no","Weiter","yes","768","legacy","50","9","0","/Users/aviadalbert/Documents/Academisch/UoC/Dissertation/Experiment/OpenSesame/NAP-FC/NAP_GER_AA_4blocks_noglides/subject-26.csv","xpyriment","Jazzy James","3.1.9","yes","yes","59a800d99ad5a1025d81bb03","59a801616c613b0251691de0","no","no","0","f","f","space","NA","u","u","f","786","2006","14037","NA","27642","10338","786","2","legacy","1024","1","44100","-16","experiment","ftal","2","0","0","0","1","English","26","","even","1946105","1931529","NA","NA","1948112","1946101","NA","1763004","1945624","1763004","1763004","1853610","1881256","2095089","2093583","2095876","1898418","1891896","1931528","NA","1810526","1844112","1929870","1891659","1946105","1891900","NA","2095089","2095089","2011526","2011523","2093579","NAP perception","42","55826","51","yes","1024"
"82.6923076923","yes","82.6923076923","1111.55769231","1111.55769231","white","no","xpyriment","Ich habe die obigen Informationen gelesen und verstanden.","legacy","legacy","0","uniform","1","0","0","undefined","undefined","1","f","2","1","NA","0","1","0","0","0","0","0","0","0","0","61","61","61","0","0","0","NA","0","0","2","0","0","0","2","61","61","61","61","61","Thu Oct 26 13:45:56 2017","Forced-choice identification task with a practice and an experimental phase","yes","NAP_GER_AA_4blocks_noglides.osexp","/Users/aviadalbert/Documents/Academisch/UoC/Dissertation/Experiment/OpenSesame/NAP-FC/NAP_GER_AA_4blocks_noglides","yes","no","sans","no","20","no","black","no","Weiter","yes","768","legacy","51","9","0","/Users/aviadalbert/Documents/Academisch/UoC/Dissertation/Experiment/OpenSesame/NAP-FC/NAP_GER_AA_4blocks_noglides/subject-26.csv","xpyriment","Jazzy James","3.1.9","yes","yes","59a800d99ad5a1025d81bb03","59a801616c613b0251691de0","no","no","0","f","f","space","NA","u","u","f","1975","2006","14037","NA","27642","10338","1975","2","legacy","1024","1","44100","-16","experiment","vzal","2","0","0","0","1","English","26","","even","1946105","1931529","NA","NA","1948112","1946101","NA","1763004","1945624","1763004","1763004","1853610","1881256","2097655","2096148","2099631","1898418","1891896","1931528","NA","1810526","1844112","1929870","1891659","1946105","1891900","NA","2097655","2097655","2011526","2011523","2096144","NAP perception","43","57801","52","yes","1024"
"83.0188679245","yes","83.0188679245","1110.90566038","1110.90566038","white","no","xpyriment","Ich habe die obigen Informationen gelesen und verstanden.","legacy","legacy","0","uniform","1","0","0","undefined","undefined","1","j","2","1","NA","0","1","0","0","0","0","0","0","0","0","62","62","62","0","0","0","NA","0","0","2","0","0","0","2","62","62","62","62","62","Thu Oct 26 13:45:56 2017","Forced-choice identification task with a practice and an experimental phase","yes","NAP_GER_AA_4blocks_noglides.osexp","/Users/aviadalbert/Documents/Academisch/UoC/Dissertation/Experiment/OpenSesame/NAP-FC/NAP_GER_AA_4blocks_noglides","yes","no","sans","no","20","no","black","no","Weiter","yes","768","legacy","52","9","0","/Users/aviadalbert/Documents/Academisch/UoC/Dissertation/Experiment/OpenSesame/NAP-FC/NAP_GER_AA_4blocks_noglides/subject-26.csv","xpyriment","Jazzy James","3.1.9","yes","yes","59a800d99ad5a1025d81bb03","59a801616c613b0251691de0","no","no","0","j","f","space","NA","u","u","j","1077","2006","14037","NA","27642","10338","1077","2","legacy","1024","1","44100","-16","experiment","zeval","2","0","0","0","1","English","26","","even","1946105","1931529","NA","NA","1948112","1946101","NA","1763004","1945624","1763004","1763004","1853610","1881256","2101418","2099915","2102496","1898418","1891896","1931528","NA","1810526","1844112","1929870","1891659","1946105","1891900","NA","2101418","2101418","2011526","2011523","2099911","NAP perception","44","58878","53","yes","1024"
"83.3333333333","yes","83.3333333333","1104.48148148","1104.48148148","white","no","xpyriment","Ich habe die obigen Informationen gelesen und verstanden.","legacy","legacy","0","uniform","1","0","0","undefined","undefined","1","f","2","1","NA","0","1","0","0","0","0","0","0","0","0","63","63","63","0","0","0","NA","0","0","2","0","0","0","2","63","63","63","63","63","Thu Oct 26 13:45:56 2017","Forced-choice identification task with a practice and an experimental phase","yes","NAP_GER_AA_4blocks_noglides.osexp","/Users/aviadalbert/Documents/Academisch/UoC/Dissertation/Experiment/OpenSesame/NAP-FC/NAP_GER_AA_4blocks_noglides","yes","no","sans","no","20","no","black","no","Weiter","yes","768","legacy","53","9","0","/Users/aviadalbert/Documents/Academisch/UoC/Dissertation/Experiment/OpenSesame/NAP-FC/NAP_GER_AA_4blocks_noglides/subject-26.csv","xpyriment","Jazzy James","3.1.9","yes","yes","59a800d99ad5a1025d81bb03","59a801616c613b0251691de0","no","no","0","f","f","space","NA","u","u","f","764","2006","14037","NA","27642","10338","764","2","legacy","1024","1","44100","-16","experiment","mlal","2","0","0","0","1","English","26","","even","1946105","1931529","NA","NA","1948112","1946101","NA","1763004","1945624","1763004","1763004","1853610","1881256","2104279","2102776","2105045","1898418","1891896","1931528","NA","1810526","1844112","1929870","1891659","1946105","1891900","NA","2104279","2104279","2011526","2011523","2102772","NAP perception","45","59642","54","yes","1024"
"83.6363636364","yes","83.6363636364","1103.54545455","1103.54545455","white","no","xpyriment","Ich habe die obigen Informationen gelesen und verstanden.","legacy","legacy","0","uniform","1","0","0","undefined","undefined","1","f","2","1","NA","0","1","0","0","0","0","0","0","0","0","64","64","64","0","0","0","NA","0","0","2","0","0","0","2","64","64","64","64","64","Thu Oct 26 13:45:56 2017","Forced-choice identification task with a practice and an experimental phase","yes","NAP_GER_AA_4blocks_noglides.osexp","/Users/aviadalbert/Documents/Academisch/UoC/Dissertation/Experiment/OpenSesame/NAP-FC/NAP_GER_AA_4blocks_noglides","yes","no","sans","no","20","no","black","no","Weiter","yes","768","legacy","54","9","0","/Users/aviadalbert/Documents/Academisch/UoC/Dissertation/Experiment/OpenSesame/NAP-FC/NAP_GER_AA_4blocks_noglides/subject-26.csv","xpyriment","Jazzy James","3.1.9","yes","yes","59a800d99ad5a1025d81bb03","59a801616c613b0251691de0","no","no","0","f","f","space","NA","u","u","f","1053","2006","14037","NA","27642","10338","1053","2","legacy","1024","1","44100","-16","experiment","mtal","2","0","0","0","1","English","26","","even","1946105","1931529","NA","NA","1948112","1946101","NA","1763004","1945624","1763004","1763004","1853610","1881256","2106826","2105319","2107881","1898418","1891896","1931528","NA","1810526","1844112","1929870","1891659","1946105","1891900","NA","2106825","2106825","2011526","2011523","2105315","NAP perception","46","60695","55","yes","1024"
