"acc","accept_status","accuracy","average_response_time","avg_rt","background","bidi","canvas_backend","checkbox_status","clock_backend","color_backend","compensation","coordinates","correct","correct_block_activation","correct_block_exit","correct_instructions_1","correct_instructions_2","correct_keyboard_response","correct_response","count_block_activation","count_block_exit","count_block_info_QA","count_cont_e_block_message","count_e_block_loop","count_e_block_sequence","count_end_of_experiment","count_experiment","count_experimental_loop","count_form_consent","count_info_forms","count_instructions_1","count_instructions_2","count_keyboard_response","count_listen_message","count_logger","count_p_block_loop","count_p_block_sequence","count_p_feedback","count_pause_feedback","count_personal_details_form_1","count_personal_details_form_2","count_post_loop_blank","count_practice_loop","count_pre_e_block_message","count_pre_p_block_message","count_reset_feedback","count_stimulus_image","count_stimulus_sound","count_timeout_message","count_timeout_sound","count_trial_sequence","datetime","description","disable_garbage_collection","experiment_file","experiment_path","expyriment_opengl","font_bold","font_family","font_italic","font_size","font_underline","foreground","form_clicks","form_response","fullscreen","height","keyboard_backend","live_row","live_row_p_block_loop","live_row_practice_loop","logfile","mouse_backend","opensesame_codename","opensesame_version","osf_always_upload_data","osf_always_upload_experiment","osf_datanode_id","osf_id","practice","pygame_doublebuf","repeat_cycle","response","response_block_activation","response_block_exit","response_block_info_QA","response_instructions_1","response_instructions_2","response_keyboard_response","response_time","response_time_block_activation","response_time_block_exit","response_time_block_info_QA","response_time_instructions_1","response_time_instructions_2","response_time_keyboard_response","round_decimals","sampler_backend","sound_buf_size","sound_channels","sound_freq","sound_sample_size","start","stimulus","subject_age","subject_education","subject_gender","subject_german_native","subject_handedness","subject_language_other","subject_nr","subject_other_native_lang","subject_parity","time_block_activation","time_block_exit","time_block_info_QA","time_cont_e_block_message","time_e_block_loop","time_e_block_sequence","time_end_of_experiment","time_experiment","time_experimental_loop","time_form_consent","time_info_forms","time_instructions_1","time_instructions_2","time_keyboard_response","time_listen_message","time_logger","time_p_block_loop","time_p_block_sequence","time_p_feedback","time_pause_feedback","time_personal_details_form_1","time_personal_details_form_2","time_post_loop_blank","time_practice_loop","time_pre_e_block_message","time_pre_p_block_message","time_reset_feedback","time_stimulus_image","time_stimulus_sound","time_timeout_message","time_timeout_sound","time_trial_sequence","title","total_correct","total_response_time","total_responses","uniform_coordinates","width"
"0","yes","0","3000","3000","white","no","xpyriment","Ich habe die obigen Informationen gelesen und verstanden.","legacy","legacy","0","uniform","0","0","NA","undefined","undefined","0","f","0","0","NA","NA","NA","NA","NA","0","0","0","0","0","0","0","0","0","0","0","NA","NA","0","0","0","0","NA","0","0","0","0","0","0","0","Wed Oct  4 17:27:08 2017","Forced-choice identification task with a practice and an experimental phase","yes","NAP_GER_AA_4blocks_noglides.osexp","/Users/aviadalbert/Documents/Academisch/UoC/Dissertation/Experiment/OpenSesame/NAP-FC/NAP_GER_AA_4blocks_noglides","yes","no","sans","no","20","no","black","no","Weiter","yes","768","legacy","0","0","0","/Users/aviadalbert/Documents/Academisch/UoC/Dissertation/Experiment/OpenSesame/NAP-FC/NAP_GER_AA_4blocks_noglides/subject-6.csv","xpyriment","Jazzy James","3.1.9","yes","yes","59a800d99ad5a1025d81bb03","59a801616c613b0251691de0","yes","no","0","None","j","NA","NA","k","l","None","3000","46071","NA","NA","21693","12","3000","2","legacy","1024","1","44100","-16","experiment","flal","4","0","0","0","1","english","6","","even","15718997","NA","NA","NA","NA","NA","NA","13696779","NA","13696782","13696779","15696994","15718691","15766776","15765271","15770779","15765069","15718993","NA","NA","15632641","15674490","NA","15718778","NA","15718997","NA","15766776","15766776","15769779","15769776","15765268","NAP perception","0","3000","1","yes","1024"
"0","yes","0","3000","3000","white","no","xpyriment","Ich habe die obigen Informationen gelesen und verstanden.","legacy","legacy","0","uniform","0","0","NA","undefined","undefined","0","j","0","0","NA","NA","NA","NA","NA","0","0","0","0","0","0","1","1","1","0","0","NA","NA","0","0","0","0","NA","0","0","1","1","1","1","1","Wed Oct  4 17:27:08 2017","Forced-choice identification task with a practice and an experimental phase","yes","NAP_GER_AA_4blocks_noglides.osexp","/Users/aviadalbert/Documents/Academisch/UoC/Dissertation/Experiment/OpenSesame/NAP-FC/NAP_GER_AA_4blocks_noglides","yes","no","sans","no","20","no","black","no","Weiter","yes","768","legacy","1","1","0","/Users/aviadalbert/Documents/Academisch/UoC/Dissertation/Experiment/OpenSesame/NAP-FC/NAP_GER_AA_4blocks_noglides/subject-6.csv","xpyriment","Jazzy James","3.1.9","yes","yes","59a800d99ad5a1025d81bb03","59a801616c613b0251691de0","yes","no","0","None","j","NA","NA","k","l","None","3000","46071","NA","NA","21693","12","3000","2","legacy","1024","1","44100","-16","experiment","lepal","4","0","0","0","1","english","6","","even","15718997","NA","NA","NA","NA","NA","NA","13696779","NA","13696782","13696779","15696994","15718691","15772558","15771051","15776562","15765069","15718993","NA","NA","15632641","15674490","NA","15718778","NA","15718997","NA","15772557","15772558","15775562","15775558","15771047","NAP perception","0","6000","2","yes","1024"
"33.3333333333","yes","33.3333333333","2560.66666667","2560.66666667","white","no","xpyriment","Ich habe die obigen Informationen gelesen und verstanden.","legacy","legacy","0","uniform","1","0","NA","undefined","undefined","1","j","0","0","NA","NA","NA","NA","NA","0","0","0","0","0","0","2","2","2","0","0","NA","NA","0","0","0","0","NA","0","0","2","2","2","2","2","Wed Oct  4 17:27:08 2017","Forced-choice identification task with a practice and an experimental phase","yes","NAP_GER_AA_4blocks_noglides.osexp","/Users/aviadalbert/Documents/Academisch/UoC/Dissertation/Experiment/OpenSesame/NAP-FC/NAP_GER_AA_4blocks_noglides","yes","no","sans","no","20","no","black","no","Weiter","yes","768","legacy","2","2","0","/Users/aviadalbert/Documents/Academisch/UoC/Dissertation/Experiment/OpenSesame/NAP-FC/NAP_GER_AA_4blocks_noglides/subject-6.csv","xpyriment","Jazzy James","3.1.9","yes","yes","59a800d99ad5a1025d81bb03","59a801616c613b0251691de0","yes","no","0","j","j","NA","NA","k","l","j","1682","46071","NA","NA","21693","12","1682","2","legacy","1024","1","44100","-16","experiment","emtal","4","0","0","0","1","english","6","","even","15718997","NA","NA","NA","NA","NA","NA","13696779","NA","13696782","13696779","15696994","15718691","15778348","15776841","15780031","15765069","15718993","NA","NA","15632641","15674490","NA","15718778","NA","15718997","NA","15778348","15778348","15775562","15775558","15776837","NAP perception","1","7682","3","yes","1024"
"50","yes","50","2245.25","2245.25","white","no","xpyriment","Ich habe die obigen Informationen gelesen und verstanden.","legacy","legacy","0","uniform","1","0","NA","undefined","undefined","1","f","0","0","NA","NA","NA","NA","NA","0","0","0","0","0","0","3","3","3","0","0","NA","NA","0","0","0","0","NA","0","0","3","3","3","3","3","Wed Oct  4 17:27:08 2017","Forced-choice identification task with a practice and an experimental phase","yes","NAP_GER_AA_4blocks_noglides.osexp","/Users/aviadalbert/Documents/Academisch/UoC/Dissertation/Experiment/OpenSesame/NAP-FC/NAP_GER_AA_4blocks_noglides","yes","no","sans","no","20","no","black","no","Weiter","yes","768","legacy","3","3","0","/Users/aviadalbert/Documents/Academisch/UoC/Dissertation/Experiment/OpenSesame/NAP-FC/NAP_GER_AA_4blocks_noglides/subject-6.csv","xpyriment","Jazzy James","3.1.9","yes","yes","59a800d99ad5a1025d81bb03","59a801616c613b0251691de0","yes","no","0","f","j","NA","NA","k","l","f","1299","46071","NA","NA","21693","12","1299","2","legacy","1024","1","44100","-16","experiment","ʃpal","4","0","0","0","1","english","6","","even","15718997","NA","NA","NA","NA","NA","NA","13696779","NA","13696782","13696779","15696994","15718691","15781816","15780312","15783116","15765069","15718993","NA","NA","15632641","15674490","NA","15718778","NA","15718997","NA","15781815","15781816","15775562","15775558","15780308","NAP perception","2","8981","4","yes","1024"
"60","yes","60","2080.2","2080.2","white","no","xpyriment","Ich habe die obigen Informationen gelesen und verstanden.","legacy","legacy","0","uniform","1","0","NA","undefined","undefined","1","j","0","0","NA","NA","NA","NA","NA","0","0","0","0","0","0","4","4","4","0","0","NA","NA","0","0","0","0","NA","0","0","4","4","4","4","4","Wed Oct  4 17:27:08 2017","Forced-choice identification task with a practice and an experimental phase","yes","NAP_GER_AA_4blocks_noglides.osexp","/Users/aviadalbert/Documents/Academisch/UoC/Dissertation/Experiment/OpenSesame/NAP-FC/NAP_GER_AA_4blocks_noglides","yes","no","sans","no","20","no","black","no","Weiter","yes","768","legacy","4","4","0","/Users/aviadalbert/Documents/Academisch/UoC/Dissertation/Experiment/OpenSesame/NAP-FC/NAP_GER_AA_4blocks_noglides/subject-6.csv","xpyriment","Jazzy James","3.1.9","yes","yes","59a800d99ad5a1025d81bb03","59a801616c613b0251691de0","yes","no","0","j","j","NA","NA","k","l","j","1420","46071","NA","NA","21693","12","1420","2","legacy","1024","1","44100","-16","experiment","nefal","4","0","0","0","1","english","6","","even","15718997","NA","NA","NA","NA","NA","NA","13696779","NA","13696782","13696779","15696994","15718691","15784893","15783388","15786314","15765069","15718993","NA","NA","15632641","15674490","NA","15718778","NA","15718997","NA","15784893","15784893","15775562","15775558","15783384","NAP perception","3","10401","5","yes","1024"
"66.6666666667","yes","66.6666666667","1982.66666667","1982.66666667","white","no","xpyriment","Ich habe die obigen Informationen gelesen und verstanden.","legacy","legacy","0","uniform","1","0","NA","undefined","undefined","1","f","0","0","NA","NA","NA","NA","NA","0","0","0","0","0","0","5","5","5","0","0","NA","NA","0","0","0","0","NA","0","0","5","5","5","5","5","Wed Oct  4 17:27:08 2017","Forced-choice identification task with a practice and an experimental phase","yes","NAP_GER_AA_4blocks_noglides.osexp","/Users/aviadalbert/Documents/Academisch/UoC/Dissertation/Experiment/OpenSesame/NAP-FC/NAP_GER_AA_4blocks_noglides","yes","no","sans","no","20","no","black","no","Weiter","yes","768","legacy","5","5","0","/Users/aviadalbert/Documents/Academisch/UoC/Dissertation/Experiment/OpenSesame/NAP-FC/NAP_GER_AA_4blocks_noglides/subject-6.csv","xpyriment","Jazzy James","3.1.9","yes","yes","59a800d99ad5a1025d81bb03","59a801616c613b0251691de0","yes","no","0","f","j","NA","NA","k","l","f","1495","46071","NA","NA","21693","12","1495","2","legacy","1024","1","44100","-16","experiment","sfal","4","0","0","0","1","english","6","","even","15718997","NA","NA","NA","NA","NA","NA","13696779","NA","13696782","13696779","15696994","15718691","15788091","15786584","15789587","15765069","15718993","NA","NA","15632641","15674490","NA","15718778","NA","15718997","NA","15788090","15788090","15775562","15775558","15786580","NAP perception","4","11896","6","yes","1024"
"57.1428571429","yes","57.1428571429","1950.42857143","1950.42857143","white","no","xpyriment","Ich habe die obigen Informationen gelesen und verstanden.","legacy","legacy","0","uniform","0","0","NA","undefined","undefined","0","f","0","0","NA","NA","NA","NA","NA","0","0","0","0","0","0","6","6","6","0","0","NA","NA","0","0","0","0","NA","0","0","6","6","6","6","6","Wed Oct  4 17:27:08 2017","Forced-choice identification task with a practice and an experimental phase","yes","NAP_GER_AA_4blocks_noglides.osexp","/Users/aviadalbert/Documents/Academisch/UoC/Dissertation/Experiment/OpenSesame/NAP-FC/NAP_GER_AA_4blocks_noglides","yes","no","sans","no","20","no","black","no","Weiter","yes","768","legacy","6","6","0","/Users/aviadalbert/Documents/Academisch/UoC/Dissertation/Experiment/OpenSesame/NAP-FC/NAP_GER_AA_4blocks_noglides/subject-6.csv","xpyriment","Jazzy James","3.1.9","yes","yes","59a800d99ad5a1025d81bb03","59a801616c613b0251691de0","yes","no","0","j","j","NA","NA","k","l","j","1757","46071","NA","NA","21693","12","1757","2","legacy","1024","1","44100","-16","experiment","zmal","4","0","0","0","1","english","6","","even","15718997","NA","NA","NA","NA","NA","NA","13696779","NA","13696782","13696779","15696994","15718691","15791377","15789870","15793136","15765069","15718993","NA","NA","15632641","15674490","NA","15718778","NA","15718997","NA","15791377","15791377","15775562","15775558","15789866","NAP perception","4","13653","7","yes","1024"
"62.5","yes","62.5","1867.875","1867.875","white","no","xpyriment","Ich habe die obigen Informationen gelesen und verstanden.","legacy","legacy","0","uniform","1","0","NA","undefined","undefined","1","j","0","0","NA","NA","NA","NA","NA","0","0","0","0","0","0","7","7","7","0","0","NA","NA","0","0","0","0","NA","0","0","7","7","7","7","7","Wed Oct  4 17:27:08 2017","Forced-choice identification task with a practice and an experimental phase","yes","NAP_GER_AA_4blocks_noglides.osexp","/Users/aviadalbert/Documents/Academisch/UoC/Dissertation/Experiment/OpenSesame/NAP-FC/NAP_GER_AA_4blocks_noglides","yes","no","sans","no","20","no","black","no","Weiter","yes","768","legacy","7","7","0","/Users/aviadalbert/Documents/Academisch/UoC/Dissertation/Experiment/OpenSesame/NAP-FC/NAP_GER_AA_4blocks_noglides/subject-6.csv","xpyriment","Jazzy James","3.1.9","yes","yes","59a800d99ad5a1025d81bb03","59a801616c613b0251691de0","yes","no","0","j","j","NA","NA","k","l","j","1290","46071","NA","NA","21693","12","1290","2","legacy","1024","1","44100","-16","experiment","mesal","4","0","0","0","1","english","6","","even","15718997","NA","NA","NA","NA","NA","NA","13696779","NA","13696782","13696779","15696994","15718691","15794913","15793409","15796204","15765069","15718993","NA","NA","15632641","15674490","NA","15718778","NA","15718997","NA","15794913","15794913","15775562","15775558","15793406","NAP perception","5","14943","8","yes","1024"
"66.6666666667","yes","66.6666666667","1917.55555556","1917.55555556","white","no","xpyriment","Ich habe die obigen Informationen gelesen und verstanden.","legacy","legacy","0","uniform","1","0","NA","undefined","undefined","1","j","0","0","NA","NA","NA","NA","NA","0","0","0","0","0","0","8","8","8","0","0","NA","NA","0","0","0","0","NA","0","0","8","8","8","8","8","Wed Oct  4 17:27:08 2017","Forced-choice identification task with a practice and an experimental phase","yes","NAP_GER_AA_4blocks_noglides.osexp","/Users/aviadalbert/Documents/Academisch/UoC/Dissertation/Experiment/OpenSesame/NAP-FC/NAP_GER_AA_4blocks_noglides","yes","no","sans","no","20","no","black","no","Weiter","yes","768","legacy","8","8","0","/Users/aviadalbert/Documents/Academisch/UoC/Dissertation/Experiment/OpenSesame/NAP-FC/NAP_GER_AA_4blocks_noglides/subject-6.csv","xpyriment","Jazzy James","3.1.9","yes","yes","59a800d99ad5a1025d81bb03","59a801616c613b0251691de0","yes","no","0","j","j","NA","NA","k","l","j","2315","46071","NA","NA","21693","12","2315","2","legacy","1024","1","44100","-16","experiment","enval","4","0","0","0","1","english","6","","even","15718997","NA","NA","NA","NA","NA","NA","13696779","NA","13696782","13696779","15696994","15718691","15797991","15796487","15800307","15765069","15718993","NA","NA","15632641","15674490","NA","15718778","NA","15718997","NA","15797991","15797991","15775562","15775558","15796483","NAP perception","6","17258","9","yes","1024"
"70","yes","70","1879.1","1879.1","white","no","xpyriment","Ich habe die obigen Informationen gelesen und verstanden.","legacy","legacy","0","uniform","1","0","NA","undefined","undefined","1","f","0","0","NA","NA","NA","NA","NA","0","0","0","0","0","0","9","9","9","0","0","NA","NA","0","0","0","0","NA","0","0","9","9","9","9","9","Wed Oct  4 17:27:08 2017","Forced-choice identification task with a practice and an experimental phase","yes","NAP_GER_AA_4blocks_noglides.osexp","/Users/aviadalbert/Documents/Academisch/UoC/Dissertation/Experiment/OpenSesame/NAP-FC/NAP_GER_AA_4blocks_noglides","yes","no","sans","no","20","no","black","no","Weiter","yes","768","legacy","9","9","0","/Users/aviadalbert/Documents/Academisch/UoC/Dissertation/Experiment/OpenSesame/NAP-FC/NAP_GER_AA_4blocks_noglides/subject-6.csv","xpyriment","Jazzy James","3.1.9","yes","yes","59a800d99ad5a1025d81bb03","59a801616c613b0251691de0","yes","no","0","f","j","NA","NA","k","l","f","1533","46071","NA","NA","21693","12","1533","2","legacy","1024","1","44100","-16","experiment","vlal","4","0","0","0","1","english","6","","even","15718997","NA","NA","NA","NA","NA","NA","13696779","NA","13696782","13696779","15696994","15718691","15802096","15800593","15803630","15765069","15718993","NA","NA","15632641","15674490","NA","15718778","NA","15718997","NA","15802096","15802096","15775562","15775558","15800589","NAP perception","7","18791","10","yes","1024"
"100","yes","100","2154","2154","white","no","xpyriment","Ich habe die obigen Informationen gelesen und verstanden.","legacy","legacy","0","uniform","1","0","0","undefined","undefined","1","j","2","1","NA","0","1","0","0","0","0","0","0","0","0","10","10","10","0","0","0","NA","0","0","2","0","0","0","2","10","10","10","10","10","Wed Oct  4 17:27:08 2017","Forced-choice identification task with a practice and an experimental phase","yes","NAP_GER_AA_4blocks_noglides.osexp","/Users/aviadalbert/Documents/Academisch/UoC/Dissertation/Experiment/OpenSesame/NAP-FC/NAP_GER_AA_4blocks_noglides","yes","no","sans","no","20","no","black","no","Weiter","yes","768","legacy","0","9","0","/Users/aviadalbert/Documents/Academisch/UoC/Dissertation/Experiment/OpenSesame/NAP-FC/NAP_GER_AA_4blocks_noglides/subject-6.csv","xpyriment","Jazzy James","3.1.9","yes","yes","59a800d99ad5a1025d81bb03","59a801616c613b0251691de0","no","no","0","j","j","space","NA","k","l","j","2154","2559","27367","NA","21693","12","2154","2","legacy","1024","1","44100","-16","experiment","emtal","4","0","0","0","1","english","6","","even","15833262","15805354","NA","NA","15835822","15833258","NA","13696779","15832777","13696782","13696779","15696994","15718691","15837539","15836033","15839694","15765069","15718993","15805354","NA","15632641","15674490","15803694","15718778","15833262","15718997","NA","15837539","15837539","15775562","15775558","15836030","NAP perception","1","2154","1","yes","1024"
"100","yes","100","1525","1525","white","no","xpyriment","Ich habe die obigen Informationen gelesen und verstanden.","legacy","legacy","0","uniform","1","0","0","undefined","undefined","1","j","2","1","NA","0","1","0","0","0","0","0","0","0","0","11","11","11","0","0","0","NA","0","0","2","0","0","0","2","11","11","11","11","11","Wed Oct  4 17:27:08 2017","Forced-choice identification task with a practice and an experimental phase","yes","NAP_GER_AA_4blocks_noglides.osexp","/Users/aviadalbert/Documents/Academisch/UoC/Dissertation/Experiment/OpenSesame/NAP-FC/NAP_GER_AA_4blocks_noglides","yes","no","sans","no","20","no","black","no","Weiter","yes","768","legacy","1","9","0","/Users/aviadalbert/Documents/Academisch/UoC/Dissertation/Experiment/OpenSesame/NAP-FC/NAP_GER_AA_4blocks_noglides/subject-6.csv","xpyriment","Jazzy James","3.1.9","yes","yes","59a800d99ad5a1025d81bb03","59a801616c613b0251691de0","no","no","0","j","j","space","NA","k","l","j","896","2559","27367","NA","21693","12","896","2","legacy","1024","1","44100","-16","experiment","lefal","4","0","0","0","1","english","6","","even","15833262","15805354","NA","NA","15835822","15833258","NA","13696779","15832777","13696782","13696779","15696994","15718691","15841480","15839976","15842377","15765069","15718993","15805354","NA","15632641","15674490","15803694","15718778","15833262","15718997","NA","15841480","15841480","15775562","15775558","15839972","NAP perception","2","3050","2","yes","1024"
"100","yes","100","1578","1578","white","no","xpyriment","Ich habe die obigen Informationen gelesen und verstanden.","legacy","legacy","0","uniform","1","0","0","undefined","undefined","1","j","2","1","NA","0","1","0","0","0","0","0","0","0","0","12","12","12","0","0","0","NA","0","0","2","0","0","0","2","12","12","12","12","12","Wed Oct  4 17:27:08 2017","Forced-choice identification task with a practice and an experimental phase","yes","NAP_GER_AA_4blocks_noglides.osexp","/Users/aviadalbert/Documents/Academisch/UoC/Dissertation/Experiment/OpenSesame/NAP-FC/NAP_GER_AA_4blocks_noglides","yes","no","sans","no","20","no","black","no","Weiter","yes","768","legacy","2","9","0","/Users/aviadalbert/Documents/Academisch/UoC/Dissertation/Experiment/OpenSesame/NAP-FC/NAP_GER_AA_4blocks_noglides/subject-6.csv","xpyriment","Jazzy James","3.1.9","yes","yes","59a800d99ad5a1025d81bb03","59a801616c613b0251691de0","no","no","0","j","j","space","NA","k","l","j","1684","2559","27367","NA","21693","12","1684","2","legacy","1024","1","44100","-16","experiment","eʃpal","4","0","0","0","1","english","6","","even","15833262","15805354","NA","NA","15835822","15833258","NA","13696779","15832777","13696782","13696779","15696994","15718691","15844157","15842653","15845842","15765069","15718993","15805354","NA","15632641","15674490","15803694","15718778","15833262","15718997","NA","15844157","15844157","15775562","15775558","15842649","NAP perception","3","4734","3","yes","1024"
"100","yes","100","1465.75","1465.75","white","no","xpyriment","Ich habe die obigen Informationen gelesen und verstanden.","legacy","legacy","0","uniform","1","0","0","undefined","undefined","1","j","2","1","NA","0","1","0","0","0","0","0","0","0","0","13","13","13","0","0","0","NA","0","0","2","0","0","0","2","13","13","13","13","13","Wed Oct  4 17:27:08 2017","Forced-choice identification task with a practice and an experimental phase","yes","NAP_GER_AA_4blocks_noglides.osexp","/Users/aviadalbert/Documents/Academisch/UoC/Dissertation/Experiment/OpenSesame/NAP-FC/NAP_GER_AA_4blocks_noglides","yes","no","sans","no","20","no","black","no","Weiter","yes","768","legacy","3","9","0","/Users/aviadalbert/Documents/Academisch/UoC/Dissertation/Experiment/OpenSesame/NAP-FC/NAP_GER_AA_4blocks_noglides/subject-6.csv","xpyriment","Jazzy James","3.1.9","yes","yes","59a800d99ad5a1025d81bb03","59a801616c613b0251691de0","no","no","0","j","j","space","NA","k","l","j","1129","2559","27367","NA","21693","12","1129","2","legacy","1024","1","44100","-16","experiment","elkal","4","0","0","0","1","english","6","","even","15833262","15805354","NA","NA","15835822","15833258","NA","13696779","15832777","13696782","13696779","15696994","15718691","15847611","15846108","15848742","15765069","15718993","15805354","NA","15632641","15674490","15803694","15718778","15833262","15718997","NA","15847611","15847611","15775562","15775558","15846104","NAP perception","4","5863","4","yes","1024"
"100","yes","100","1433.6","1433.6","white","no","xpyriment","Ich habe die obigen Informationen gelesen und verstanden.","legacy","legacy","0","uniform","1","0","0","undefined","undefined","1","j","2","1","NA","0","1","0","0","0","0","0","0","0","0","14","14","14","0","0","0","NA","0","0","2","0","0","0","2","14","14","14","14","14","Wed Oct  4 17:27:08 2017","Forced-choice identification task with a practice and an experimental phase","yes","NAP_GER_AA_4blocks_noglides.osexp","/Users/aviadalbert/Documents/Academisch/UoC/Dissertation/Experiment/OpenSesame/NAP-FC/NAP_GER_AA_4blocks_noglides","yes","no","sans","no","20","no","black","no","Weiter","yes","768","legacy","4","9","0","/Users/aviadalbert/Documents/Academisch/UoC/Dissertation/Experiment/OpenSesame/NAP-FC/NAP_GER_AA_4blocks_noglides/subject-6.csv","xpyriment","Jazzy James","3.1.9","yes","yes","59a800d99ad5a1025d81bb03","59a801616c613b0251691de0","no","no","0","j","j","space","NA","k","l","j","1305","2559","27367","NA","21693","12","1305","2","legacy","1024","1","44100","-16","experiment","mesal","4","0","0","0","1","english","6","","even","15833262","15805354","NA","NA","15835822","15833258","NA","13696779","15832777","13696782","13696779","15696994","15718691","15850532","15849027","15851838","15765069","15718993","15805354","NA","15632641","15674490","15803694","15718778","15833262","15718997","NA","15850532","15850532","15775562","15775558","15849023","NAP perception","5","7168","5","yes","1024"
"83.3333333333","yes","83.3333333333","1538.66666667","1538.66666667","white","no","xpyriment","Ich habe die obigen Informationen gelesen und verstanden.","legacy","legacy","0","uniform","0","0","0","undefined","undefined","0","f","2","1","NA","0","1","0","0","0","0","0","0","0","0","15","15","15","0","0","0","NA","0","0","2","0","0","0","2","15","15","15","15","15","Wed Oct  4 17:27:08 2017","Forced-choice identification task with a practice and an experimental phase","yes","NAP_GER_AA_4blocks_noglides.osexp","/Users/aviadalbert/Documents/Academisch/UoC/Dissertation/Experiment/OpenSesame/NAP-FC/NAP_GER_AA_4blocks_noglides","yes","no","sans","no","20","no","black","no","Weiter","yes","768","legacy","5","9","0","/Users/aviadalbert/Documents/Academisch/UoC/Dissertation/Experiment/OpenSesame/NAP-FC/NAP_GER_AA_4blocks_noglides/subject-6.csv","xpyriment","Jazzy James","3.1.9","yes","yes","59a800d99ad5a1025d81bb03","59a801616c613b0251691de0","no","no","0","j","j","space","NA","k","l","j","2064","2559","27367","NA","21693","12","2064","2","legacy","1024","1","44100","-16","experiment","vnal","4","0","0","0","1","english","6","","even","15833262","15805354","NA","NA","15835822","15833258","NA","13696779","15832777","13696782","13696779","15696994","15718691","15853628","15852123","15855693","15765069","15718993","15805354","NA","15632641","15674490","15803694","15718778","15833262","15718997","NA","15853628","15853628","15775562","15775558","15852118","NAP perception","5","9232","6","yes","1024"
"85.7142857143","yes","85.7142857143","1491.14285714","1491.14285714","white","no","xpyriment","Ich habe die obigen Informationen gelesen und verstanden.","legacy","legacy","0","uniform","1","0","0","undefined","undefined","1","j","2","1","NA","0","1","0","0","0","0","0","0","0","0","16","16","16","0","0","0","NA","0","0","2","0","0","0","2","16","16","16","16","16","Wed Oct  4 17:27:08 2017","Forced-choice identification task with a practice and an experimental phase","yes","NAP_GER_AA_4blocks_noglides.osexp","/Users/aviadalbert/Documents/Academisch/UoC/Dissertation/Experiment/OpenSesame/NAP-FC/NAP_GER_AA_4blocks_noglides","yes","no","sans","no","20","no","black","no","Weiter","yes","768","legacy","6","9","0","/Users/aviadalbert/Documents/Academisch/UoC/Dissertation/Experiment/OpenSesame/NAP-FC/NAP_GER_AA_4blocks_noglides/subject-6.csv","xpyriment","Jazzy James","3.1.9","yes","yes","59a800d99ad5a1025d81bb03","59a801616c613b0251691de0","no","no","0","j","j","space","NA","k","l","j","1206","2559","27367","NA","21693","12","1206","2","legacy","1024","1","44100","-16","experiment","nefal","4","0","0","0","1","english","6","","even","15833262","15805354","NA","NA","15835822","15833258","NA","13696779","15832777","13696782","13696779","15696994","15718691","15857464","15855959","15858672","15765069","15718993","15805354","NA","15632641","15674490","15803694","15718778","15833262","15718997","NA","15857463","15857463","15775562","15775558","15855955","NAP perception","6","10438","7","yes","1024"
"87.5","yes","87.5","1430.75","1430.75","white","no","xpyriment","Ich habe die obigen Informationen gelesen und verstanden.","legacy","legacy","0","uniform","1","0","0","undefined","undefined","1","f","2","1","NA","0","1","0","0","0","0","0","0","0","0","17","17","17","0","0","0","NA","0","0","2","0","0","0","2","17","17","17","17","17","Wed Oct  4 17:27:08 2017","Forced-choice identification task with a practice and an experimental phase","yes","NAP_GER_AA_4blocks_noglides.osexp","/Users/aviadalbert/Documents/Academisch/UoC/Dissertation/Experiment/OpenSesame/NAP-FC/NAP_GER_AA_4blocks_noglides","yes","no","sans","no","20","no","black","no","Weiter","yes","768","legacy","7","9","0","/Users/aviadalbert/Documents/Academisch/UoC/Dissertation/Experiment/OpenSesame/NAP-FC/NAP_GER_AA_4blocks_noglides/subject-6.csv","xpyriment","Jazzy James","3.1.9","yes","yes","59a800d99ad5a1025d81bb03","59a801616c613b0251691de0","no","no","0","f","j","space","NA","k","l","f","1008","2559","27367","NA","21693","12","1008","2","legacy","1024","1","44100","-16","experiment","vnal","4","0","0","0","1","english","6","","even","15833262","15805354","NA","NA","15835822","15833258","NA","13696779","15832777","13696782","13696779","15696994","15718691","15860446","15858940","15861455","15765069","15718993","15805354","NA","15632641","15674490","15803694","15718778","15833262","15718997","NA","15860446","15860446","15775562","15775558","15858936","NAP perception","7","11446","8","yes","1024"
"88.8888888889","yes","88.8888888889","1362.33333333","1362.33333333","white","no","xpyriment","Ich habe die obigen Informationen gelesen und verstanden.","legacy","legacy","0","uniform","1","0","0","undefined","undefined","1","j","2","1","NA","0","1","0","0","0","0","0","0","0","0","18","18","18","0","0","0","NA","0","0","2","0","0","0","2","18","18","18","18","18","Wed Oct  4 17:27:08 2017","Forced-choice identification task with a practice and an experimental phase","yes","NAP_GER_AA_4blocks_noglides.osexp","/Users/aviadalbert/Documents/Academisch/UoC/Dissertation/Experiment/OpenSesame/NAP-FC/NAP_GER_AA_4blocks_noglides","yes","no","sans","no","20","no","black","no","Weiter","yes","768","legacy","8","9","0","/Users/aviadalbert/Documents/Academisch/UoC/Dissertation/Experiment/OpenSesame/NAP-FC/NAP_GER_AA_4blocks_noglides/subject-6.csv","xpyriment","Jazzy James","3.1.9","yes","yes","59a800d99ad5a1025d81bb03","59a801616c613b0251691de0","no","no","0","j","j","space","NA","k","l","j","815","2559","27367","NA","21693","12","815","2","legacy","1024","1","44100","-16","experiment","leval","4","0","0","0","1","english","6","","even","15833262","15805354","NA","NA","15835822","15833258","NA","13696779","15832777","13696782","13696779","15696994","15718691","15863224","15861720","15864040","15765069","15718993","15805354","NA","15632641","15674490","15803694","15718778","15833262","15718997","NA","15863223","15863224","15775562","15775558","15861716","NAP perception","8","12261","9","yes","1024"
"90","yes","90","1447","1447","white","no","xpyriment","Ich habe die obigen Informationen gelesen und verstanden.","legacy","legacy","0","uniform","1","0","0","undefined","undefined","1","f","2","1","NA","0","1","0","0","0","0","0","0","0","0","19","19","19","0","0","0","NA","0","0","2","0","0","0","2","19","19","19","19","19","Wed Oct  4 17:27:08 2017","Forced-choice identification task with a practice and an experimental phase","yes","NAP_GER_AA_4blocks_noglides.osexp","/Users/aviadalbert/Documents/Academisch/UoC/Dissertation/Experiment/OpenSesame/NAP-FC/NAP_GER_AA_4blocks_noglides","yes","no","sans","no","20","no","black","no","Weiter","yes","768","legacy","9","9","0","/Users/aviadalbert/Documents/Academisch/UoC/Dissertation/Experiment/OpenSesame/NAP-FC/NAP_GER_AA_4blocks_noglides/subject-6.csv","xpyriment","Jazzy James","3.1.9","yes","yes","59a800d99ad5a1025d81bb03","59a801616c613b0251691de0","no","no","0","f","j","space","NA","k","l","f","2209","2559","27367","NA","21693","12","2209","2","legacy","1024","1","44100","-16","experiment","ʃpal","4","0","0","0","1","english","6","","even","15833262","15805354","NA","NA","15835822","15833258","NA","13696779","15832777","13696782","13696779","15696994","15718691","15865835","15864329","15868046","15765069","15718993","15805354","NA","15632641","15674490","15803694","15718778","15833262","15718997","NA","15865834","15865834","15775562","15775558","15864325","NAP perception","9","14470","10","yes","1024"
"90.9090909091","yes","90.9090909091","1422.90909091","1422.90909091","white","no","xpyriment","Ich habe die obigen Informationen gelesen und verstanden.","legacy","legacy","0","uniform","1","0","0","undefined","undefined","1","f","2","1","NA","0","1","0","0","0","0","0","0","0","0","20","20","20","0","0","0","NA","0","0","2","0","0","0","2","20","20","20","20","20","Wed Oct  4 17:27:08 2017","Forced-choice identification task with a practice and an experimental phase","yes","NAP_GER_AA_4blocks_noglides.osexp","/Users/aviadalbert/Documents/Academisch/UoC/Dissertation/Experiment/OpenSesame/NAP-FC/NAP_GER_AA_4blocks_noglides","yes","no","sans","no","20","no","black","no","Weiter","yes","768","legacy","10","9","0","/Users/aviadalbert/Documents/Academisch/UoC/Dissertation/Experiment/OpenSesame/NAP-FC/NAP_GER_AA_4blocks_noglides/subject-6.csv","xpyriment","Jazzy James","3.1.9","yes","yes","59a800d99ad5a1025d81bb03","59a801616c613b0251691de0","no","no","0","f","j","space","NA","k","l","f","1182","2559","27367","NA","21693","12","1182","2","legacy","1024","1","44100","-16","experiment","sfal","4","0","0","0","1","english","6","","even","15833262","15805354","NA","NA","15835822","15833258","NA","13696779","15832777","13696782","13696779","15696994","15718691","15869823","15868320","15871006","15765069","15718993","15805354","NA","15632641","15674490","15803694","15718778","15833262","15718997","NA","15869823","15869823","15775562","15775558","15868316","NAP perception","10","15652","11","yes","1024"
"91.6666666667","yes","91.6666666667","1404.08333333","1404.08333333","white","no","xpyriment","Ich habe die obigen Informationen gelesen und verstanden.","legacy","legacy","0","uniform","1","0","0","undefined","undefined","1","f","2","1","NA","0","1","0","0","0","0","0","0","0","0","21","21","21","0","0","0","NA","0","0","2","0","0","0","2","21","21","21","21","21","Wed Oct  4 17:27:08 2017","Forced-choice identification task with a practice and an experimental phase","yes","NAP_GER_AA_4blocks_noglides.osexp","/Users/aviadalbert/Documents/Academisch/UoC/Dissertation/Experiment/OpenSesame/NAP-FC/NAP_GER_AA_4blocks_noglides","yes","no","sans","no","20","no","black","no","Weiter","yes","768","legacy","11","9","0","/Users/aviadalbert/Documents/Academisch/UoC/Dissertation/Experiment/OpenSesame/NAP-FC/NAP_GER_AA_4blocks_noglides/subject-6.csv","xpyriment","Jazzy James","3.1.9","yes","yes","59a800d99ad5a1025d81bb03","59a801616c613b0251691de0","no","no","0","f","j","space","NA","k","l","f","1197","2559","27367","NA","21693","12","1197","2","legacy","1024","1","44100","-16","experiment","smal","4","0","0","0","1","english","6","","even","15833262","15805354","NA","NA","15835822","15833258","NA","13696779","15832777","13696782","13696779","15696994","15718691","15872800","15871297","15873998","15765069","15718993","15805354","NA","15632641","15674490","15803694","15718778","15833262","15718997","NA","15872800","15872800","15775562","15775558","15871293","NAP perception","11","16849","12","yes","1024"
"92.3076923077","yes","92.3076923077","1385.46153846","1385.46153846","white","no","xpyriment","Ich habe die obigen Informationen gelesen und verstanden.","legacy","legacy","0","uniform","1","0","0","undefined","undefined","1","f","2","1","NA","0","1","0","0","0","0","0","0","0","0","22","22","22","0","0","0","NA","0","0","2","0","0","0","2","22","22","22","22","22","Wed Oct  4 17:27:08 2017","Forced-choice identification task with a practice and an experimental phase","yes","NAP_GER_AA_4blocks_noglides.osexp","/Users/aviadalbert/Documents/Academisch/UoC/Dissertation/Experiment/OpenSesame/NAP-FC/NAP_GER_AA_4blocks_noglides","yes","no","sans","no","20","no","black","no","Weiter","yes","768","legacy","12","9","0","/Users/aviadalbert/Documents/Academisch/UoC/Dissertation/Experiment/OpenSesame/NAP-FC/NAP_GER_AA_4blocks_noglides/subject-6.csv","xpyriment","Jazzy James","3.1.9","yes","yes","59a800d99ad5a1025d81bb03","59a801616c613b0251691de0","no","no","0","f","j","space","NA","k","l","f","1162","2559","27367","NA","21693","12","1162","2","legacy","1024","1","44100","-16","experiment","fnal","4","0","0","0","1","english","6","","even","15833262","15805354","NA","NA","15835822","15833258","NA","13696779","15832777","13696782","13696779","15696994","15718691","15875776","15874273","15876939","15765069","15718993","15805354","NA","15632641","15674490","15803694","15718778","15833262","15718997","NA","15875776","15875776","15775562","15775558","15874269","NAP perception","12","18011","13","yes","1024"
"92.8571428571","yes","92.8571428571","1352.5","1352.5","white","no","xpyriment","Ich habe die obigen Informationen gelesen und verstanden.","legacy","legacy","0","uniform","1","0","0","undefined","undefined","1","f","2","1","NA","0","1","0","0","0","0","0","0","0","0","23","23","23","0","0","0","NA","0","0","2","0","0","0","2","23","23","23","23","23","Wed Oct  4 17:27:08 2017","Forced-choice identification task with a practice and an experimental phase","yes","NAP_GER_AA_4blocks_noglides.osexp","/Users/aviadalbert/Documents/Academisch/UoC/Dissertation/Experiment/OpenSesame/NAP-FC/NAP_GER_AA_4blocks_noglides","yes","no","sans","no","20","no","black","no","Weiter","yes","768","legacy","13","9","0","/Users/aviadalbert/Documents/Academisch/UoC/Dissertation/Experiment/OpenSesame/NAP-FC/NAP_GER_AA_4blocks_noglides/subject-6.csv","xpyriment","Jazzy James","3.1.9","yes","yes","59a800d99ad5a1025d81bb03","59a801616c613b0251691de0","no","no","0","f","j","space","NA","k","l","f","924","2559","27367","NA","21693","12","924","2","legacy","1024","1","44100","-16","experiment","mzal","4","0","0","0","1","english","6","","even","15833262","15805354","NA","NA","15835822","15833258","NA","13696779","15832777","13696782","13696779","15696994","15718691","15878725","15877221","15879650","15765069","15718993","15805354","NA","15632641","15674490","15803694","15718778","15833262","15718997","NA","15878724","15878724","15775562","15775558","15877217","NAP perception","13","18935","14","yes","1024"
"86.6666666667","yes","86.6666666667","1335.46666667","1335.46666667","white","no","xpyriment","Ich habe die obigen Informationen gelesen und verstanden.","legacy","legacy","0","uniform","0","0","0","undefined","undefined","0","f","2","1","NA","0","1","0","0","0","0","0","0","0","0","24","24","24","0","0","0","NA","0","0","2","0","0","0","2","24","24","24","24","24","Wed Oct  4 17:27:08 2017","Forced-choice identification task with a practice and an experimental phase","yes","NAP_GER_AA_4blocks_noglides.osexp","/Users/aviadalbert/Documents/Academisch/UoC/Dissertation/Experiment/OpenSesame/NAP-FC/NAP_GER_AA_4blocks_noglides","yes","no","sans","no","20","no","black","no","Weiter","yes","768","legacy","14","9","0","/Users/aviadalbert/Documents/Academisch/UoC/Dissertation/Experiment/OpenSesame/NAP-FC/NAP_GER_AA_4blocks_noglides/subject-6.csv","xpyriment","Jazzy James","3.1.9","yes","yes","59a800d99ad5a1025d81bb03","59a801616c613b0251691de0","no","no","0","j","j","space","NA","k","l","j","1097","2559","27367","NA","21693","12","1097","2","legacy","1024","1","44100","-16","experiment","mtal","4","0","0","0","1","english","6","","even","15833262","15805354","NA","NA","15835822","15833258","NA","13696779","15832777","13696782","13696779","15696994","15718691","15881429","15879925","15882527","15765069","15718993","15805354","NA","15632641","15674490","15803694","15718778","15833262","15718997","NA","15881429","15881429","15775562","15775558","15879921","NAP perception","13","20032","15","yes","1024"
"87.5","yes","87.5","1310.375","1310.375","white","no","xpyriment","Ich habe die obigen Informationen gelesen und verstanden.","legacy","legacy","0","uniform","1","0","0","undefined","undefined","1","j","2","1","NA","0","1","0","0","0","0","0","0","0","0","25","25","25","0","0","0","NA","0","0","2","0","0","0","2","25","25","25","25","25","Wed Oct  4 17:27:08 2017","Forced-choice identification task with a practice and an experimental phase","yes","NAP_GER_AA_4blocks_noglides.osexp","/Users/aviadalbert/Documents/Academisch/UoC/Dissertation/Experiment/OpenSesame/NAP-FC/NAP_GER_AA_4blocks_noglides","yes","no","sans","no","20","no","black","no","Weiter","yes","768","legacy","15","9","0","/Users/aviadalbert/Documents/Academisch/UoC/Dissertation/Experiment/OpenSesame/NAP-FC/NAP_GER_AA_4blocks_noglides/subject-6.csv","xpyriment","Jazzy James","3.1.9","yes","yes","59a800d99ad5a1025d81bb03","59a801616c613b0251691de0","no","no","0","j","j","space","NA","k","l","j","934","2559","27367","NA","21693","12","934","2","legacy","1024","1","44100","-16","experiment","sefal","4","0","0","0","1","english","6","","even","15833262","15805354","NA","NA","15835822","15833258","NA","13696779","15832777","13696782","13696779","15696994","15718691","15884307","15882804","15885242","15765069","15718993","15805354","NA","15632641","15674490","15803694","15718778","15833262","15718997","NA","15884307","15884307","15775562","15775558","15882800","NAP perception","14","20966","16","yes","1024"
"88.2352941176","yes","88.2352941176","1287","1287","white","no","xpyriment","Ich habe die obigen Informationen gelesen und verstanden.","legacy","legacy","0","uniform","1","0","0","undefined","undefined","1","f","2","1","NA","0","1","0","0","0","0","0","0","0","0","26","26","26","0","0","0","NA","0","0","2","0","0","0","2","26","26","26","26","26","Wed Oct  4 17:27:08 2017","Forced-choice identification task with a practice and an experimental phase","yes","NAP_GER_AA_4blocks_noglides.osexp","/Users/aviadalbert/Documents/Academisch/UoC/Dissertation/Experiment/OpenSesame/NAP-FC/NAP_GER_AA_4blocks_noglides","yes","no","sans","no","20","no","black","no","Weiter","yes","768","legacy","16","9","0","/Users/aviadalbert/Documents/Academisch/UoC/Dissertation/Experiment/OpenSesame/NAP-FC/NAP_GER_AA_4blocks_noglides/subject-6.csv","xpyriment","Jazzy James","3.1.9","yes","yes","59a800d99ad5a1025d81bb03","59a801616c613b0251691de0","no","no","0","f","j","space","NA","k","l","f","913","2559","27367","NA","21693","12","913","2","legacy","1024","1","44100","-16","experiment","ʃfal","4","0","0","0","1","english","6","","even","15833262","15805354","NA","NA","15835822","15833258","NA","13696779","15832777","13696782","13696779","15696994","15718691","15887036","15885532","15887950","15765069","15718993","15805354","NA","15632641","15674490","15803694","15718778","15833262","15718997","NA","15887036","15887036","15775562","15775558","15885528","NAP perception","15","21879","17","yes","1024"
"88.8888888889","yes","88.8888888889","1311.72222222","1311.72222222","white","no","xpyriment","Ich habe die obigen Informationen gelesen und verstanden.","legacy","legacy","0","uniform","1","0","0","undefined","undefined","1","j","2","1","NA","0","1","0","0","0","0","0","0","0","0","27","27","27","0","0","0","NA","0","0","2","0","0","0","2","27","27","27","27","27","Wed Oct  4 17:27:08 2017","Forced-choice identification task with a practice and an experimental phase","yes","NAP_GER_AA_4blocks_noglides.osexp","/Users/aviadalbert/Documents/Academisch/UoC/Dissertation/Experiment/OpenSesame/NAP-FC/NAP_GER_AA_4blocks_noglides","yes","no","sans","no","20","no","black","no","Weiter","yes","768","legacy","17","9","0","/Users/aviadalbert/Documents/Academisch/UoC/Dissertation/Experiment/OpenSesame/NAP-FC/NAP_GER_AA_4blocks_noglides/subject-6.csv","xpyriment","Jazzy James","3.1.9","yes","yes","59a800d99ad5a1025d81bb03","59a801616c613b0251691de0","no","no","0","j","j","space","NA","k","l","j","1732","2559","27367","NA","21693","12","1732","2","legacy","1024","1","44100","-16","experiment","eʃfal","4","0","0","0","1","english","6","","even","15833262","15805354","NA","NA","15835822","15833258","NA","13696779","15832777","13696782","13696779","15696994","15718691","15889731","15888228","15891465","15765069","15718993","15805354","NA","15632641","15674490","15803694","15718778","15833262","15718997","NA","15889731","15889731","15775562","15775558","15888224","NAP perception","16","23611","18","yes","1024"
"84.2105263158","yes","84.2105263158","1297.05263158","1297.05263158","white","no","xpyriment","Ich habe die obigen Informationen gelesen und verstanden.","legacy","legacy","0","uniform","0","0","0","undefined","undefined","0","f","2","1","NA","0","1","0","0","0","0","0","0","0","0","28","28","28","0","0","0","NA","0","0","2","0","0","0","2","28","28","28","28","28","Wed Oct  4 17:27:08 2017","Forced-choice identification task with a practice and an experimental phase","yes","NAP_GER_AA_4blocks_noglides.osexp","/Users/aviadalbert/Documents/Academisch/UoC/Dissertation/Experiment/OpenSesame/NAP-FC/NAP_GER_AA_4blocks_noglides","yes","no","sans","no","20","no","black","no","Weiter","yes","768","legacy","18","9","0","/Users/aviadalbert/Documents/Academisch/UoC/Dissertation/Experiment/OpenSesame/NAP-FC/NAP_GER_AA_4blocks_noglides/subject-6.csv","xpyriment","Jazzy James","3.1.9","yes","yes","59a800d99ad5a1025d81bb03","59a801616c613b0251691de0","no","no","0","j","j","space","NA","k","l","j","1033","2559","27367","NA","21693","12","1033","2","legacy","1024","1","44100","-16","experiment","lval","4","0","0","0","1","english","6","","even","15833262","15805354","NA","NA","15835822","15833258","NA","13696779","15832777","13696782","13696779","15696994","15718691","15893258","15891752","15894293","15765069","15718993","15805354","NA","15632641","15674490","15803694","15718778","15833262","15718997","NA","15893258","15893258","15775562","15775558","15891748","NAP perception","16","24644","19","yes","1024"
"80","yes","80","1274.5","1274.5","white","no","xpyriment","Ich habe die obigen Informationen gelesen und verstanden.","legacy","legacy","0","uniform","0","0","0","undefined","undefined","0","j","2","1","NA","0","1","0","0","0","0","0","0","0","0","29","29","29","0","0","0","NA","0","0","2","0","0","0","2","29","29","29","29","29","Wed Oct  4 17:27:08 2017","Forced-choice identification task with a practice and an experimental phase","yes","NAP_GER_AA_4blocks_noglides.osexp","/Users/aviadalbert/Documents/Academisch/UoC/Dissertation/Experiment/OpenSesame/NAP-FC/NAP_GER_AA_4blocks_noglides","yes","no","sans","no","20","no","black","no","Weiter","yes","768","legacy","19","9","0","/Users/aviadalbert/Documents/Academisch/UoC/Dissertation/Experiment/OpenSesame/NAP-FC/NAP_GER_AA_4blocks_noglides/subject-6.csv","xpyriment","Jazzy James","3.1.9","yes","yes","59a800d99ad5a1025d81bb03","59a801616c613b0251691de0","no","no","0","f","j","space","NA","k","l","f","846","2559","27367","NA","21693","12","846","2","legacy","1024","1","44100","-16","experiment","metal","4","0","0","0","1","english","6","","even","15833262","15805354","NA","NA","15835822","15833258","NA","13696779","15832777","13696782","13696779","15696994","15718691","15896101","15894595","15896949","15765069","15718993","15805354","NA","15632641","15674490","15803694","15718778","15833262","15718997","NA","15896100","15896100","15775562","15775558","15894591","NAP perception","16","25490","20","yes","1024"
"80.9523809524","yes","80.9523809524","1262.23809524","1262.23809524","white","no","xpyriment","Ich habe die obigen Informationen gelesen und verstanden.","legacy","legacy","0","uniform","1","0","0","undefined","undefined","1","j","2","1","NA","0","1","0","0","0","0","0","0","0","0","30","30","30","0","0","0","NA","0","0","2","0","0","0","2","30","30","30","30","30","Wed Oct  4 17:27:08 2017","Forced-choice identification task with a practice and an experimental phase","yes","NAP_GER_AA_4blocks_noglides.osexp","/Users/aviadalbert/Documents/Academisch/UoC/Dissertation/Experiment/OpenSesame/NAP-FC/NAP_GER_AA_4blocks_noglides","yes","no","sans","no","20","no","black","no","Weiter","yes","768","legacy","20","9","0","/Users/aviadalbert/Documents/Academisch/UoC/Dissertation/Experiment/OpenSesame/NAP-FC/NAP_GER_AA_4blocks_noglides/subject-6.csv","xpyriment","Jazzy James","3.1.9","yes","yes","59a800d99ad5a1025d81bb03","59a801616c613b0251691de0","no","no","0","j","j","space","NA","k","l","j","1017","2559","27367","NA","21693","12","1017","2","legacy","1024","1","44100","-16","experiment","enval","4","0","0","0","1","english","6","","even","15833262","15805354","NA","NA","15835822","15833258","NA","13696779","15832777","13696782","13696779","15696994","15718691","15898735","15897228","15899753","15765069","15718993","15805354","NA","15632641","15674490","15803694","15718778","15833262","15718997","NA","15898734","15898734","15775562","15775558","15897224","NAP perception","17","26507","21","yes","1024"
"81.8181818182","yes","81.8181818182","1259.63636364","1259.63636364","white","no","xpyriment","Ich habe die obigen Informationen gelesen und verstanden.","legacy","legacy","0","uniform","1","0","0","undefined","undefined","1","f","2","1","NA","0","1","0","0","0","0","0","0","0","0","31","31","31","0","0","0","NA","0","0","2","0","0","0","2","31","31","31","31","31","Wed Oct  4 17:27:08 2017","Forced-choice identification task with a practice and an experimental phase","yes","NAP_GER_AA_4blocks_noglides.osexp","/Users/aviadalbert/Documents/Academisch/UoC/Dissertation/Experiment/OpenSesame/NAP-FC/NAP_GER_AA_4blocks_noglides","yes","no","sans","no","20","no","black","no","Weiter","yes","768","legacy","21","9","0","/Users/aviadalbert/Documents/Academisch/UoC/Dissertation/Experiment/OpenSesame/NAP-FC/NAP_GER_AA_4blocks_noglides/subject-6.csv","xpyriment","Jazzy James","3.1.9","yes","yes","59a800d99ad5a1025d81bb03","59a801616c613b0251691de0","no","no","0","f","j","space","NA","k","l","f","1205","2559","27367","NA","21693","12","1205","2","legacy","1024","1","44100","-16","experiment","spal","4","0","0","0","1","english","6","","even","15833262","15805354","NA","NA","15835822","15833258","NA","13696779","15832777","13696782","13696779","15696994","15718691","15901547","15900042","15902753","15765069","15718993","15805354","NA","15632641","15674490","15803694","15718778","15833262","15718997","NA","15901547","15901547","15775562","15775558","15900038","NAP perception","18","27712","22","yes","1024"
"82.6086956522","yes","82.6086956522","1242.04347826","1242.04347826","white","no","xpyriment","Ich habe die obigen Informationen gelesen und verstanden.","legacy","legacy","0","uniform","1","0","0","undefined","undefined","1","j","2","1","NA","0","1","0","0","0","0","0","0","0","0","32","32","32","0","0","0","NA","0","0","2","0","0","0","2","32","32","32","32","32","Wed Oct  4 17:27:08 2017","Forced-choice identification task with a practice and an experimental phase","yes","NAP_GER_AA_4blocks_noglides.osexp","/Users/aviadalbert/Documents/Academisch/UoC/Dissertation/Experiment/OpenSesame/NAP-FC/NAP_GER_AA_4blocks_noglides","yes","no","sans","no","20","no","black","no","Weiter","yes","768","legacy","22","9","0","/Users/aviadalbert/Documents/Academisch/UoC/Dissertation/Experiment/OpenSesame/NAP-FC/NAP_GER_AA_4blocks_noglides/subject-6.csv","xpyriment","Jazzy James","3.1.9","yes","yes","59a800d99ad5a1025d81bb03","59a801616c613b0251691de0","no","no","0","j","j","space","NA","k","l","j","855","2559","27367","NA","21693","12","855","2","legacy","1024","1","44100","-16","experiment","melal","4","0","0","0","1","english","6","","even","15833262","15805354","NA","NA","15835822","15833258","NA","13696779","15832777","13696782","13696779","15696994","15718691","15904544","15903036","15905401","15765069","15718993","15805354","NA","15632641","15674490","15803694","15718778","15833262","15718997","NA","15904543","15904543","15775562","15775558","15903032","NAP perception","19","28567","23","yes","1024"
"83.3333333333","yes","83.3333333333","1229.75","1229.75","white","no","xpyriment","Ich habe die obigen Informationen gelesen und verstanden.","legacy","legacy","0","uniform","1","0","0","undefined","undefined","1","f","2","1","NA","0","1","0","0","0","0","0","0","0","0","33","33","33","0","0","0","NA","0","0","2","0","0","0","2","33","33","33","33","33","Wed Oct  4 17:27:08 2017","Forced-choice identification task with a practice and an experimental phase","yes","NAP_GER_AA_4blocks_noglides.osexp","/Users/aviadalbert/Documents/Academisch/UoC/Dissertation/Experiment/OpenSesame/NAP-FC/NAP_GER_AA_4blocks_noglides","yes","no","sans","no","20","no","black","no","Weiter","yes","768","legacy","23","9","0","/Users/aviadalbert/Documents/Academisch/UoC/Dissertation/Experiment/OpenSesame/NAP-FC/NAP_GER_AA_4blocks_noglides/subject-6.csv","xpyriment","Jazzy James","3.1.9","yes","yes","59a800d99ad5a1025d81bb03","59a801616c613b0251691de0","no","no","0","f","j","space","NA","k","l","f","947","2559","27367","NA","21693","12","947","2","legacy","1024","1","44100","-16","experiment","zval","4","0","0","0","1","english","6","","even","15833262","15805354","NA","NA","15835822","15833258","NA","13696779","15832777","13696782","13696779","15696994","15718691","15907201","15905696","15908149","15765069","15718993","15805354","NA","15632641","15674490","15803694","15718778","15833262","15718997","NA","15907200","15907201","15775562","15775558","15905692","NAP perception","20","29514","24","yes","1024"
"84","yes","84","1216.72","1216.72","white","no","xpyriment","Ich habe die obigen Informationen gelesen und verstanden.","legacy","legacy","0","uniform","1","0","0","undefined","undefined","1","j","2","1","NA","0","1","0","0","0","0","0","0","0","0","34","34","34","0","0","0","NA","0","0","2","0","0","0","2","34","34","34","34","34","Wed Oct  4 17:27:08 2017","Forced-choice identification task with a practice and an experimental phase","yes","NAP_GER_AA_4blocks_noglides.osexp","/Users/aviadalbert/Documents/Academisch/UoC/Dissertation/Experiment/OpenSesame/NAP-FC/NAP_GER_AA_4blocks_noglides","yes","no","sans","no","20","no","black","no","Weiter","yes","768","legacy","24","9","0","/Users/aviadalbert/Documents/Academisch/UoC/Dissertation/Experiment/OpenSesame/NAP-FC/NAP_GER_AA_4blocks_noglides/subject-6.csv","xpyriment","Jazzy James","3.1.9","yes","yes","59a800d99ad5a1025d81bb03","59a801616c613b0251691de0","no","no","0","j","j","space","NA","k","l","j","904","2559","27367","NA","21693","12","904","2","legacy","1024","1","44100","-16","experiment","nepal","4","0","0","0","1","english","6","","even","15833262","15805354","NA","NA","15835822","15833258","NA","13696779","15832777","13696782","13696779","15696994","15718691","15909943","15908439","15910848","15765069","15718993","15805354","NA","15632641","15674490","15803694","15718778","15833262","15718997","NA","15909943","15909943","15775562","15775558","15908435","NAP perception","21","30418","25","yes","1024"
"84.6153846154","yes","84.6153846154","1203.76923077","1203.76923077","white","no","xpyriment","Ich habe die obigen Informationen gelesen und verstanden.","legacy","legacy","0","uniform","1","0","0","undefined","undefined","1","j","2","1","NA","0","1","0","0","0","0","0","0","0","0","35","35","35","0","0","0","NA","0","0","2","0","0","0","2","35","35","35","35","35","Wed Oct  4 17:27:08 2017","Forced-choice identification task with a practice and an experimental phase","yes","NAP_GER_AA_4blocks_noglides.osexp","/Users/aviadalbert/Documents/Academisch/UoC/Dissertation/Experiment/OpenSesame/NAP-FC/NAP_GER_AA_4blocks_noglides","yes","no","sans","no","20","no","black","no","Weiter","yes","768","legacy","25","9","0","/Users/aviadalbert/Documents/Academisch/UoC/Dissertation/Experiment/OpenSesame/NAP-FC/NAP_GER_AA_4blocks_noglides/subject-6.csv","xpyriment","Jazzy James","3.1.9","yes","yes","59a800d99ad5a1025d81bb03","59a801616c613b0251691de0","no","no","0","j","j","space","NA","k","l","j","880","2559","27367","NA","21693","12","880","2","legacy","1024","1","44100","-16","experiment","enmal","4","0","0","0","1","english","6","","even","15833262","15805354","NA","NA","15835822","15833258","NA","13696779","15832777","13696782","13696779","15696994","15718691","15912635","15911131","15913516","15765069","15718993","15805354","NA","15632641","15674490","15803694","15718778","15833262","15718997","NA","15912634","15912635","15775562","15775558","15911127","NAP perception","22","31298","26","yes","1024"
"85.1851851852","yes","85.1851851852","1206.37037037","1206.37037037","white","no","xpyriment","Ich habe die obigen Informationen gelesen und verstanden.","legacy","legacy","0","uniform","1","0","0","undefined","undefined","1","f","2","1","NA","0","1","0","0","0","0","0","0","0","0","36","36","36","0","0","0","NA","0","0","2","0","0","0","2","36","36","36","36","36","Wed Oct  4 17:27:08 2017","Forced-choice identification task with a practice and an experimental phase","yes","NAP_GER_AA_4blocks_noglides.osexp","/Users/aviadalbert/Documents/Academisch/UoC/Dissertation/Experiment/OpenSesame/NAP-FC/NAP_GER_AA_4blocks_noglides","yes","no","sans","no","20","no","black","no","Weiter","yes","768","legacy","26","9","0","/Users/aviadalbert/Documents/Academisch/UoC/Dissertation/Experiment/OpenSesame/NAP-FC/NAP_GER_AA_4blocks_noglides/subject-6.csv","xpyriment","Jazzy James","3.1.9","yes","yes","59a800d99ad5a1025d81bb03","59a801616c613b0251691de0","no","no","0","f","j","space","NA","k","l","f","1274","2559","27367","NA","21693","12","1274","2","legacy","1024","1","44100","-16","experiment","vzal","4","0","0","0","1","english","6","","even","15833262","15805354","NA","NA","15835822","15833258","NA","13696779","15832777","13696782","13696779","15696994","15718691","15915300","15913795","15916575","15765069","15718993","15805354","NA","15632641","15674490","15803694","15718778","15833262","15718997","NA","15915300","15915300","15775562","15775558","15913791","NAP perception","23","32572","27","yes","1024"
"85.7142857143","yes","85.7142857143","1220.25","1220.25","white","no","xpyriment","Ich habe die obigen Informationen gelesen und verstanden.","legacy","legacy","0","uniform","1","0","0","undefined","undefined","1","f","2","1","NA","0","1","0","0","0","0","0","0","0","0","37","37","37","0","0","0","NA","0","0","2","0","0","0","2","37","37","37","37","37","Wed Oct  4 17:27:08 2017","Forced-choice identification task with a practice and an experimental phase","yes","NAP_GER_AA_4blocks_noglides.osexp","/Users/aviadalbert/Documents/Academisch/UoC/Dissertation/Experiment/OpenSesame/NAP-FC/NAP_GER_AA_4blocks_noglides","yes","no","sans","no","20","no","black","no","Weiter","yes","768","legacy","27","9","0","/Users/aviadalbert/Documents/Academisch/UoC/Dissertation/Experiment/OpenSesame/NAP-FC/NAP_GER_AA_4blocks_noglides/subject-6.csv","xpyriment","Jazzy James","3.1.9","yes","yes","59a800d99ad5a1025d81bb03","59a801616c613b0251691de0","no","no","0","f","j","space","NA","k","l","f","1595","2559","27367","NA","21693","12","1595","2","legacy","1024","1","44100","-16","experiment","lkal","4","0","0","0","1","english","6","","even","15833262","15805354","NA","NA","15835822","15833258","NA","13696779","15832777","13696782","13696779","15696994","15718691","15918362","15916855","15919959","15765069","15718993","15805354","NA","15632641","15674490","15803694","15718778","15833262","15718997","NA","15918362","15918362","15775562","15775558","15916851","NAP perception","24","34167","28","yes","1024"
"86.2068965517","yes","86.2068965517","1200.37931034","1200.37931034","white","no","xpyriment","Ich habe die obigen Informationen gelesen und verstanden.","legacy","legacy","0","uniform","1","0","0","undefined","undefined","1","j","2","1","NA","0","1","0","0","0","0","0","0","0","0","38","38","38","0","0","0","NA","0","0","2","0","0","0","2","38","38","38","38","38","Wed Oct  4 17:27:08 2017","Forced-choice identification task with a practice and an experimental phase","yes","NAP_GER_AA_4blocks_noglides.osexp","/Users/aviadalbert/Documents/Academisch/UoC/Dissertation/Experiment/OpenSesame/NAP-FC/NAP_GER_AA_4blocks_noglides","yes","no","sans","no","20","no","black","no","Weiter","yes","768","legacy","28","9","0","/Users/aviadalbert/Documents/Academisch/UoC/Dissertation/Experiment/OpenSesame/NAP-FC/NAP_GER_AA_4blocks_noglides/subject-6.csv","xpyriment","Jazzy James","3.1.9","yes","yes","59a800d99ad5a1025d81bb03","59a801616c613b0251691de0","no","no","0","j","j","space","NA","k","l","j","644","2559","27367","NA","21693","12","644","2","legacy","1024","1","44100","-16","experiment","elfal","4","0","0","0","1","english","6","","even","15833262","15805354","NA","NA","15835822","15833258","NA","13696779","15832777","13696782","13696779","15696994","15718691","15921740","15920236","15922385","15765069","15718993","15805354","NA","15632641","15674490","15803694","15718778","15833262","15718997","NA","15921740","15921740","15775562","15775558","15920232","NAP perception","25","34811","29","yes","1024"
"86.6666666667","yes","86.6666666667","1190.3","1190.3","white","no","xpyriment","Ich habe die obigen Informationen gelesen und verstanden.","legacy","legacy","0","uniform","1","0","0","undefined","undefined","1","f","2","1","NA","0","1","0","0","0","0","0","0","0","0","39","39","39","0","0","0","NA","0","0","2","0","0","0","2","39","39","39","39","39","Wed Oct  4 17:27:08 2017","Forced-choice identification task with a practice and an experimental phase","yes","NAP_GER_AA_4blocks_noglides.osexp","/Users/aviadalbert/Documents/Academisch/UoC/Dissertation/Experiment/OpenSesame/NAP-FC/NAP_GER_AA_4blocks_noglides","yes","no","sans","no","20","no","black","no","Weiter","yes","768","legacy","29","9","0","/Users/aviadalbert/Documents/Academisch/UoC/Dissertation/Experiment/OpenSesame/NAP-FC/NAP_GER_AA_4blocks_noglides/subject-6.csv","xpyriment","Jazzy James","3.1.9","yes","yes","59a800d99ad5a1025d81bb03","59a801616c613b0251691de0","no","no","0","f","j","space","NA","k","l","f","898","2559","27367","NA","21693","12","898","2","legacy","1024","1","44100","-16","experiment","mlal","4","0","0","0","1","english","6","","even","15833262","15805354","NA","NA","15835822","15833258","NA","13696779","15832777","13696782","13696779","15696994","15718691","15924153","15922650","15925052","15765069","15718993","15805354","NA","15632641","15674490","15803694","15718778","15833262","15718997","NA","15924153","15924153","15775562","15775558","15922646","NAP perception","26","35709","30","yes","1024"
"87.0967741935","yes","87.0967741935","1178.93548387","1178.93548387","white","no","xpyriment","Ich habe die obigen Informationen gelesen und verstanden.","legacy","legacy","0","uniform","1","0","0","undefined","undefined","1","j","2","1","NA","0","1","0","0","0","0","0","0","0","0","40","40","40","0","0","0","NA","0","0","2","0","0","0","2","40","40","40","40","40","Wed Oct  4 17:27:08 2017","Forced-choice identification task with a practice and an experimental phase","yes","NAP_GER_AA_4blocks_noglides.osexp","/Users/aviadalbert/Documents/Academisch/UoC/Dissertation/Experiment/OpenSesame/NAP-FC/NAP_GER_AA_4blocks_noglides","yes","no","sans","no","20","no","black","no","Weiter","yes","768","legacy","30","9","0","/Users/aviadalbert/Documents/Academisch/UoC/Dissertation/Experiment/OpenSesame/NAP-FC/NAP_GER_AA_4blocks_noglides/subject-6.csv","xpyriment","Jazzy James","3.1.9","yes","yes","59a800d99ad5a1025d81bb03","59a801616c613b0251691de0","no","no","0","j","j","space","NA","k","l","j","838","2559","27367","NA","21693","12","838","2","legacy","1024","1","44100","-16","experiment","lekal","4","0","0","0","1","english","6","","even","15833262","15805354","NA","NA","15835822","15833258","NA","13696779","15832777","13696782","13696779","15696994","15718691","15926838","15925335","15927679","15765069","15718993","15805354","NA","15632641","15674490","15803694","15718778","15833262","15718997","NA","15926838","15926838","15775562","15775558","15925331","NAP perception","27","36547","31","yes","1024"
"87.5","yes","87.5","1175.5625","1175.5625","white","no","xpyriment","Ich habe die obigen Informationen gelesen und verstanden.","legacy","legacy","0","uniform","1","0","0","undefined","undefined","1","j","2","1","NA","0","1","0","0","0","0","0","0","0","0","41","41","41","0","0","0","NA","0","0","2","0","0","0","2","41","41","41","41","41","Wed Oct  4 17:27:08 2017","Forced-choice identification task with a practice and an experimental phase","yes","NAP_GER_AA_4blocks_noglides.osexp","/Users/aviadalbert/Documents/Academisch/UoC/Dissertation/Experiment/OpenSesame/NAP-FC/NAP_GER_AA_4blocks_noglides","yes","no","sans","no","20","no","black","no","Weiter","yes","768","legacy","31","9","0","/Users/aviadalbert/Documents/Academisch/UoC/Dissertation/Experiment/OpenSesame/NAP-FC/NAP_GER_AA_4blocks_noglides/subject-6.csv","xpyriment","Jazzy James","3.1.9","yes","yes","59a800d99ad5a1025d81bb03","59a801616c613b0251691de0","no","no","0","j","j","space","NA","k","l","j","1071","2559","27367","NA","21693","12","1071","2","legacy","1024","1","44100","-16","experiment","evzal","4","0","0","0","1","english","6","","even","15833262","15805354","NA","NA","15835822","15833258","NA","13696779","15832777","13696782","13696779","15696994","15718691","15929459","15927952","15930532","15765069","15718993","15805354","NA","15632641","15674490","15803694","15718778","15833262","15718997","NA","15929458","15929458","15775562","15775558","15927948","NAP perception","28","37618","32","yes","1024"
"87.8787878788","yes","87.8787878788","1166.48484848","1166.48484848","white","no","xpyriment","Ich habe die obigen Informationen gelesen und verstanden.","legacy","legacy","0","uniform","1","0","0","undefined","undefined","1","f","2","1","NA","0","1","0","0","0","0","0","0","0","0","42","42","42","0","0","0","NA","0","0","2","0","0","0","2","42","42","42","42","42","Wed Oct  4 17:27:08 2017","Forced-choice identification task with a practice and an experimental phase","yes","NAP_GER_AA_4blocks_noglides.osexp","/Users/aviadalbert/Documents/Academisch/UoC/Dissertation/Experiment/OpenSesame/NAP-FC/NAP_GER_AA_4blocks_noglides","yes","no","sans","no","20","no","black","no","Weiter","yes","768","legacy","32","9","0","/Users/aviadalbert/Documents/Academisch/UoC/Dissertation/Experiment/OpenSesame/NAP-FC/NAP_GER_AA_4blocks_noglides/subject-6.csv","xpyriment","Jazzy James","3.1.9","yes","yes","59a800d99ad5a1025d81bb03","59a801616c613b0251691de0","no","no","0","f","j","space","NA","k","l","f","876","2559","27367","NA","21693","12","876","2","legacy","1024","1","44100","-16","experiment","fsal","4","0","0","0","1","english","6","","even","15833262","15805354","NA","NA","15835822","15833258","NA","13696779","15832777","13696782","13696779","15696994","15718691","15932316","15930812","15933194","15765069","15718993","15805354","NA","15632641","15674490","15803694","15718778","15833262","15718997","NA","15932316","15932316","15775562","15775558","15930808","NAP perception","29","38494","33","yes","1024"
"88.2352941176","yes","88.2352941176","1159.85294118","1159.85294118","white","no","xpyriment","Ich habe die obigen Informationen gelesen und verstanden.","legacy","legacy","0","uniform","1","0","0","undefined","undefined","1","f","2","1","NA","0","1","0","0","0","0","0","0","0","0","43","43","43","0","0","0","NA","0","0","2","0","0","0","2","43","43","43","43","43","Wed Oct  4 17:27:08 2017","Forced-choice identification task with a practice and an experimental phase","yes","NAP_GER_AA_4blocks_noglides.osexp","/Users/aviadalbert/Documents/Academisch/UoC/Dissertation/Experiment/OpenSesame/NAP-FC/NAP_GER_AA_4blocks_noglides","yes","no","sans","no","20","no","black","no","Weiter","yes","768","legacy","33","9","0","/Users/aviadalbert/Documents/Academisch/UoC/Dissertation/Experiment/OpenSesame/NAP-FC/NAP_GER_AA_4blocks_noglides/subject-6.csv","xpyriment","Jazzy James","3.1.9","yes","yes","59a800d99ad5a1025d81bb03","59a801616c613b0251691de0","no","no","0","f","j","space","NA","k","l","f","941","2559","27367","NA","21693","12","941","2","legacy","1024","1","44100","-16","experiment","msal","4","0","0","0","1","english","6","","even","15833262","15805354","NA","NA","15835822","15833258","NA","13696779","15832777","13696782","13696779","15696994","15718691","15934985","15933480","15935927","15765069","15718993","15805354","NA","15632641","15674490","15803694","15718778","15833262","15718997","NA","15934985","15934985","15775562","15775558","15933476","NAP perception","30","39435","34","yes","1024"
"88.5714285714","yes","88.5714285714","1185.54285714","1185.54285714","white","no","xpyriment","Ich habe die obigen Informationen gelesen und verstanden.","legacy","legacy","0","uniform","1","0","0","undefined","undefined","1","j","2","1","NA","0","1","0","0","0","0","0","0","0","0","44","44","44","0","0","0","NA","0","0","2","0","0","0","2","44","44","44","44","44","Wed Oct  4 17:27:08 2017","Forced-choice identification task with a practice and an experimental phase","yes","NAP_GER_AA_4blocks_noglides.osexp","/Users/aviadalbert/Documents/Academisch/UoC/Dissertation/Experiment/OpenSesame/NAP-FC/NAP_GER_AA_4blocks_noglides","yes","no","sans","no","20","no","black","no","Weiter","yes","768","legacy","34","9","0","/Users/aviadalbert/Documents/Academisch/UoC/Dissertation/Experiment/OpenSesame/NAP-FC/NAP_GER_AA_4blocks_noglides/subject-6.csv","xpyriment","Jazzy James","3.1.9","yes","yes","59a800d99ad5a1025d81bb03","59a801616c613b0251691de0","no","no","0","j","j","space","NA","k","l","j","2059","2559","27367","NA","21693","12","2059","2","legacy","1024","1","44100","-16","experiment","esmal","4","0","0","0","1","english","6","","even","15833262","15805354","NA","NA","15835822","15833258","NA","13696779","15832777","13696782","13696779","15696994","15718691","15937713","15936205","15939774","15765069","15718993","15805354","NA","15632641","15674490","15803694","15718778","15833262","15718997","NA","15937713","15937713","15775562","15775558","15936201","NAP perception","31","41494","35","yes","1024"
"88.8888888889","yes","88.8888888889","1180.44444444","1180.44444444","white","no","xpyriment","Ich habe die obigen Informationen gelesen und verstanden.","legacy","legacy","0","uniform","1","0","0","undefined","undefined","1","f","2","1","NA","0","1","0","0","0","0","0","0","0","0","45","45","45","0","0","0","NA","0","0","2","0","0","0","2","45","45","45","45","45","Wed Oct  4 17:27:08 2017","Forced-choice identification task with a practice and an experimental phase","yes","NAP_GER_AA_4blocks_noglides.osexp","/Users/aviadalbert/Documents/Academisch/UoC/Dissertation/Experiment/OpenSesame/NAP-FC/NAP_GER_AA_4blocks_noglides","yes","no","sans","no","20","no","black","no","Weiter","yes","768","legacy","35","9","0","/Users/aviadalbert/Documents/Academisch/UoC/Dissertation/Experiment/OpenSesame/NAP-FC/NAP_GER_AA_4blocks_noglides/subject-6.csv","xpyriment","Jazzy James","3.1.9","yes","yes","59a800d99ad5a1025d81bb03","59a801616c613b0251691de0","no","no","0","f","j","space","NA","k","l","f","1002","2559","27367","NA","21693","12","1002","2","legacy","1024","1","44100","-16","experiment","zval","4","0","0","0","1","english","6","","even","15833262","15805354","NA","NA","15835822","15833258","NA","13696779","15832777","13696782","13696779","15696994","15718691","15941567","15940063","15942570","15765069","15718993","15805354","NA","15632641","15674490","15803694","15718778","15833262","15718997","NA","15941567","15941567","15775562","15775558","15940059","NAP perception","32","42496","36","yes","1024"
"89.1891891892","yes","89.1891891892","1167","1167","white","no","xpyriment","Ich habe die obigen Informationen gelesen und verstanden.","legacy","legacy","0","uniform","1","0","0","undefined","undefined","1","j","2","1","NA","0","1","0","0","0","0","0","0","0","0","46","46","46","0","0","0","NA","0","0","2","0","0","0","2","46","46","46","46","46","Wed Oct  4 17:27:08 2017","Forced-choice identification task with a practice and an experimental phase","yes","NAP_GER_AA_4blocks_noglides.osexp","/Users/aviadalbert/Documents/Academisch/UoC/Dissertation/Experiment/OpenSesame/NAP-FC/NAP_GER_AA_4blocks_noglides","yes","no","sans","no","20","no","black","no","Weiter","yes","768","legacy","36","9","0","/Users/aviadalbert/Documents/Academisch/UoC/Dissertation/Experiment/OpenSesame/NAP-FC/NAP_GER_AA_4blocks_noglides/subject-6.csv","xpyriment","Jazzy James","3.1.9","yes","yes","59a800d99ad5a1025d81bb03","59a801616c613b0251691de0","no","no","0","j","j","space","NA","k","l","j","683","2559","27367","NA","21693","12","683","2","legacy","1024","1","44100","-16","experiment","lemal","4","0","0","0","1","english","6","","even","15833262","15805354","NA","NA","15835822","15833258","NA","13696779","15832777","13696782","13696779","15696994","15718691","15944366","15942862","15945050","15765069","15718993","15805354","NA","15632641","15674490","15803694","15718778","15833262","15718997","NA","15944365","15944366","15775562","15775558","15942857","NAP perception","33","43179","37","yes","1024"
"86.8421052632","yes","86.8421052632","1172.63157895","1172.63157895","white","no","xpyriment","Ich habe die obigen Informationen gelesen und verstanden.","legacy","legacy","0","uniform","0","0","0","undefined","undefined","0","f","2","1","NA","0","1","0","0","0","0","0","0","0","0","47","47","47","0","0","0","NA","0","0","2","0","0","0","2","47","47","47","47","47","Wed Oct  4 17:27:08 2017","Forced-choice identification task with a practice and an experimental phase","yes","NAP_GER_AA_4blocks_noglides.osexp","/Users/aviadalbert/Documents/Academisch/UoC/Dissertation/Experiment/OpenSesame/NAP-FC/NAP_GER_AA_4blocks_noglides","yes","no","sans","no","20","no","black","no","Weiter","yes","768","legacy","37","9","0","/Users/aviadalbert/Documents/Academisch/UoC/Dissertation/Experiment/OpenSesame/NAP-FC/NAP_GER_AA_4blocks_noglides/subject-6.csv","xpyriment","Jazzy James","3.1.9","yes","yes","59a800d99ad5a1025d81bb03","59a801616c613b0251691de0","no","no","0","j","j","space","NA","k","l","j","1381","2559","27367","NA","21693","12","1381","2","legacy","1024","1","44100","-16","experiment","nval","4","0","0","0","1","english","6","","even","15833262","15805354","NA","NA","15835822","15833258","NA","13696779","15832777","13696782","13696779","15696994","15718691","15946828","15945325","15948210","15765069","15718993","15805354","NA","15632641","15674490","15803694","15718778","15833262","15718997","NA","15946828","15946828","15775562","15775558","15945321","NAP perception","33","44560","38","yes","1024"
"87.1794871795","yes","87.1794871795","1167.15384615","1167.15384615","white","no","xpyriment","Ich habe die obigen Informationen gelesen und verstanden.","legacy","legacy","0","uniform","1","0","0","undefined","undefined","1","f","2","1","NA","0","1","0","0","0","0","0","0","0","0","48","48","48","0","0","0","NA","0","0","2","0","0","0","2","48","48","48","48","48","Wed Oct  4 17:27:08 2017","Forced-choice identification task with a practice and an experimental phase","yes","NAP_GER_AA_4blocks_noglides.osexp","/Users/aviadalbert/Documents/Academisch/UoC/Dissertation/Experiment/OpenSesame/NAP-FC/NAP_GER_AA_4blocks_noglides","yes","no","sans","no","20","no","black","no","Weiter","yes","768","legacy","38","9","0","/Users/aviadalbert/Documents/Academisch/UoC/Dissertation/Experiment/OpenSesame/NAP-FC/NAP_GER_AA_4blocks_noglides/subject-6.csv","xpyriment","Jazzy James","3.1.9","yes","yes","59a800d99ad5a1025d81bb03","59a801616c613b0251691de0","no","no","0","f","j","space","NA","k","l","f","959","2559","27367","NA","21693","12","959","2","legacy","1024","1","44100","-16","experiment","ʃmal","4","0","0","0","1","english","6","","even","15833262","15805354","NA","NA","15835822","15833258","NA","13696779","15832777","13696782","13696779","15696994","15718691","15949997","15948493","15950957","15765069","15718993","15805354","NA","15632641","15674490","15803694","15718778","15833262","15718997","NA","15949997","15949997","15775562","15775558","15948489","NAP perception","34","45519","39","yes","1024"
"87.5","yes","87.5","1178.625","1178.625","white","no","xpyriment","Ich habe die obigen Informationen gelesen und verstanden.","legacy","legacy","0","uniform","1","0","0","undefined","undefined","1","f","2","1","NA","0","1","0","0","0","0","0","0","0","0","49","49","49","0","0","0","NA","0","0","2","0","0","0","2","49","49","49","49","49","Wed Oct  4 17:27:08 2017","Forced-choice identification task with a practice and an experimental phase","yes","NAP_GER_AA_4blocks_noglides.osexp","/Users/aviadalbert/Documents/Academisch/UoC/Dissertation/Experiment/OpenSesame/NAP-FC/NAP_GER_AA_4blocks_noglides","yes","no","sans","no","20","no","black","no","Weiter","yes","768","legacy","39","9","0","/Users/aviadalbert/Documents/Academisch/UoC/Dissertation/Experiment/OpenSesame/NAP-FC/NAP_GER_AA_4blocks_noglides/subject-6.csv","xpyriment","Jazzy James","3.1.9","yes","yes","59a800d99ad5a1025d81bb03","59a801616c613b0251691de0","no","no","0","f","j","space","NA","k","l","f","1626","2559","27367","NA","21693","12","1626","2","legacy","1024","1","44100","-16","experiment","mnal","4","0","0","0","1","english","6","","even","15833262","15805354","NA","NA","15835822","15833258","NA","13696779","15832777","13696782","13696779","15696994","15718691","15952737","15951231","15954364","15765069","15718993","15805354","NA","15632641","15674490","15803694","15718778","15833262","15718997","NA","15952737","15952737","15775562","15775558","15951227","NAP perception","35","47145","40","yes","1024"
"87.8048780488","yes","87.8048780488","1167.58536585","1167.58536585","white","no","xpyriment","Ich habe die obigen Informationen gelesen und verstanden.","legacy","legacy","0","uniform","1","0","0","undefined","undefined","1","j","2","1","NA","0","1","0","0","0","0","0","0","0","0","50","50","50","0","0","0","NA","0","0","2","0","0","0","2","50","50","50","50","50","Wed Oct  4 17:27:08 2017","Forced-choice identification task with a practice and an experimental phase","yes","NAP_GER_AA_4blocks_noglides.osexp","/Users/aviadalbert/Documents/Academisch/UoC/Dissertation/Experiment/OpenSesame/NAP-FC/NAP_GER_AA_4blocks_noglides","yes","no","sans","no","20","no","black","no","Weiter","yes","768","legacy","40","9","0","/Users/aviadalbert/Documents/Academisch/UoC/Dissertation/Experiment/OpenSesame/NAP-FC/NAP_GER_AA_4blocks_noglides/subject-6.csv","xpyriment","Jazzy James","3.1.9","yes","yes","59a800d99ad5a1025d81bb03","59a801616c613b0251691de0","no","no","0","j","j","space","NA","k","l","j","726","2559","27367","NA","21693","12","726","2","legacy","1024","1","44100","-16","experiment","sepal","4","0","0","0","1","english","6","","even","15833262","15805354","NA","NA","15835822","15833258","NA","13696779","15832777","13696782","13696779","15696994","15718691","15956150","15954647","15956878","15765069","15718993","15805354","NA","15632641","15674490","15803694","15718778","15833262","15718997","NA","15956150","15956150","15775562","15775558","15954643","NAP perception","36","47871","41","yes","1024"
"88.0952380952","yes","88.0952380952","1167.35714286","1167.35714286","white","no","xpyriment","Ich habe die obigen Informationen gelesen und verstanden.","legacy","legacy","0","uniform","1","0","0","undefined","undefined","1","j","2","1","NA","0","1","0","0","0","0","0","0","0","0","51","51","51","0","0","0","NA","0","0","2","0","0","0","2","51","51","51","51","51","Wed Oct  4 17:27:08 2017","Forced-choice identification task with a practice and an experimental phase","yes","NAP_GER_AA_4blocks_noglides.osexp","/Users/aviadalbert/Documents/Academisch/UoC/Dissertation/Experiment/OpenSesame/NAP-FC/NAP_GER_AA_4blocks_noglides","yes","no","sans","no","20","no","black","no","Weiter","yes","768","legacy","41","9","0","/Users/aviadalbert/Documents/Academisch/UoC/Dissertation/Experiment/OpenSesame/NAP-FC/NAP_GER_AA_4blocks_noglides/subject-6.csv","xpyriment","Jazzy James","3.1.9","yes","yes","59a800d99ad5a1025d81bb03","59a801616c613b0251691de0","no","no","0","j","j","space","NA","k","l","j","1158","2559","27367","NA","21693","12","1158","2","legacy","1024","1","44100","-16","experiment","fenal","4","0","0","0","1","english","6","","even","15833262","15805354","NA","NA","15835822","15833258","NA","13696779","15832777","13696782","13696779","15696994","15718691","15958670","15957167","15959830","15765069","15718993","15805354","NA","15632641","15674490","15803694","15718778","15833262","15718997","NA","15958670","15958670","15775562","15775558","15957163","NAP perception","37","49029","42","yes","1024"
"88.3720930233","yes","88.3720930233","1158.39534884","1158.39534884","white","no","xpyriment","Ich habe die obigen Informationen gelesen und verstanden.","legacy","legacy","0","uniform","1","0","0","undefined","undefined","1","j","2","1","NA","0","1","0","0","0","0","0","0","0","0","52","52","52","0","0","0","NA","0","0","2","0","0","0","2","52","52","52","52","52","Wed Oct  4 17:27:08 2017","Forced-choice identification task with a practice and an experimental phase","yes","NAP_GER_AA_4blocks_noglides.osexp","/Users/aviadalbert/Documents/Academisch/UoC/Dissertation/Experiment/OpenSesame/NAP-FC/NAP_GER_AA_4blocks_noglides","yes","no","sans","no","20","no","black","no","Weiter","yes","768","legacy","42","9","0","/Users/aviadalbert/Documents/Academisch/UoC/Dissertation/Experiment/OpenSesame/NAP-FC/NAP_GER_AA_4blocks_noglides/subject-6.csv","xpyriment","Jazzy James","3.1.9","yes","yes","59a800d99ad5a1025d81bb03","59a801616c613b0251691de0","no","no","0","j","j","space","NA","k","l","j","782","2559","27367","NA","21693","12","782","2","legacy","1024","1","44100","-16","experiment","elmal","4","0","0","0","1","english","6","","even","15833262","15805354","NA","NA","15835822","15833258","NA","13696779","15832777","13696782","13696779","15696994","15718691","15961619","15960116","15962403","15765069","15718993","15805354","NA","15632641","15674490","15803694","15718778","15833262","15718997","NA","15961619","15961619","15775562","15775558","15960111","NAP perception","38","49811","43","yes","1024"
"88.6363636364","yes","88.6363636364","1153.47727273","1153.47727273","white","no","xpyriment","Ich habe die obigen Informationen gelesen und verstanden.","legacy","legacy","0","uniform","1","0","0","undefined","undefined","1","f","2","1","NA","0","1","0","0","0","0","0","0","0","0","53","53","53","0","0","0","NA","0","0","2","0","0","0","2","53","53","53","53","53","Wed Oct  4 17:27:08 2017","Forced-choice identification task with a practice and an experimental phase","yes","NAP_GER_AA_4blocks_noglides.osexp","/Users/aviadalbert/Documents/Academisch/UoC/Dissertation/Experiment/OpenSesame/NAP-FC/NAP_GER_AA_4blocks_noglides","yes","no","sans","no","20","no","black","no","Weiter","yes","768","legacy","43","9","0","/Users/aviadalbert/Documents/Academisch/UoC/Dissertation/Experiment/OpenSesame/NAP-FC/NAP_GER_AA_4blocks_noglides/subject-6.csv","xpyriment","Jazzy James","3.1.9","yes","yes","59a800d99ad5a1025d81bb03","59a801616c613b0251691de0","no","no","0","f","j","space","NA","k","l","f","942","2559","27367","NA","21693","12","942","2","legacy","1024","1","44100","-16","experiment","ʃfal","4","0","0","0","1","english","6","","even","15833262","15805354","NA","NA","15835822","15833258","NA","13696779","15832777","13696782","13696779","15696994","15718691","15964189","15962685","15965133","15765069","15718993","15805354","NA","15632641","15674490","15803694","15718778","15833262","15718997","NA","15964189","15964189","15775562","15775558","15962681","NAP perception","39","50753","44","yes","1024"
"88.8888888889","yes","88.8888888889","1142.93333333","1142.93333333","white","no","xpyriment","Ich habe die obigen Informationen gelesen und verstanden.","legacy","legacy","0","uniform","1","0","0","undefined","undefined","1","j","2","1","NA","0","1","0","0","0","0","0","0","0","0","54","54","54","0","0","0","NA","0","0","2","0","0","0","2","54","54","54","54","54","Wed Oct  4 17:27:08 2017","Forced-choice identification task with a practice and an experimental phase","yes","NAP_GER_AA_4blocks_noglides.osexp","/Users/aviadalbert/Documents/Academisch/UoC/Dissertation/Experiment/OpenSesame/NAP-FC/NAP_GER_AA_4blocks_noglides","yes","no","sans","no","20","no","black","no","Weiter","yes","768","legacy","44","9","0","/Users/aviadalbert/Documents/Academisch/UoC/Dissertation/Experiment/OpenSesame/NAP-FC/NAP_GER_AA_4blocks_noglides/subject-6.csv","xpyriment","Jazzy James","3.1.9","yes","yes","59a800d99ad5a1025d81bb03","59a801616c613b0251691de0","no","no","0","j","j","space","NA","k","l","j","679","2559","27367","NA","21693","12","679","2","legacy","1024","1","44100","-16","experiment","eʃmal","4","0","0","0","1","english","6","","even","15833262","15805354","NA","NA","15835822","15833258","NA","13696779","15832777","13696782","13696779","15696994","15718691","15966902","15965398","15967583","15765069","15718993","15805354","NA","15632641","15674490","15803694","15718778","15833262","15718997","NA","15966901","15966901","15775562","15775558","15965394","NAP perception","40","51432","45","yes","1024"
"89.1304347826","yes","89.1304347826","1152.73913043","1152.73913043","white","no","xpyriment","Ich habe die obigen Informationen gelesen und verstanden.","legacy","legacy","0","uniform","1","0","0","undefined","undefined","1","f","2","1","NA","0","1","0","0","0","0","0","0","0","0","55","55","55","0","0","0","NA","0","0","2","0","0","0","2","55","55","55","55","55","Wed Oct  4 17:27:08 2017","Forced-choice identification task with a practice and an experimental phase","yes","NAP_GER_AA_4blocks_noglides.osexp","/Users/aviadalbert/Documents/Academisch/UoC/Dissertation/Experiment/OpenSesame/NAP-FC/NAP_GER_AA_4blocks_noglides","yes","no","sans","no","20","no","black","no","Weiter","yes","768","legacy","45","9","0","/Users/aviadalbert/Documents/Academisch/UoC/Dissertation/Experiment/OpenSesame/NAP-FC/NAP_GER_AA_4blocks_noglides/subject-6.csv","xpyriment","Jazzy James","3.1.9","yes","yes","59a800d99ad5a1025d81bb03","59a801616c613b0251691de0","no","no","0","f","j","space","NA","k","l","f","1594","2559","27367","NA","21693","12","1594","2","legacy","1024","1","44100","-16","experiment","npal","4","0","0","0","1","english","6","","even","15833262","15805354","NA","NA","15835822","15833258","NA","13696779","15832777","13696782","13696779","15696994","15718691","15969356","15967852","15970953","15765069","15718993","15805354","NA","15632641","15674490","15803694","15718778","15833262","15718997","NA","15969356","15969356","15775562","15775558","15967848","NAP perception","41","53026","46","yes","1024"
"87.2340425532","yes","87.2340425532","1143.42553191","1143.42553191","white","no","xpyriment","Ich habe die obigen Informationen gelesen und verstanden.","legacy","legacy","0","uniform","0","0","0","undefined","undefined","0","f","2","1","NA","0","1","0","0","0","0","0","0","0","0","56","56","56","0","0","0","NA","0","0","2","0","0","0","2","56","56","56","56","56","Wed Oct  4 17:27:08 2017","Forced-choice identification task with a practice and an experimental phase","yes","NAP_GER_AA_4blocks_noglides.osexp","/Users/aviadalbert/Documents/Academisch/UoC/Dissertation/Experiment/OpenSesame/NAP-FC/NAP_GER_AA_4blocks_noglides","yes","no","sans","no","20","no","black","no","Weiter","yes","768","legacy","46","9","0","/Users/aviadalbert/Documents/Academisch/UoC/Dissertation/Experiment/OpenSesame/NAP-FC/NAP_GER_AA_4blocks_noglides/subject-6.csv","xpyriment","Jazzy James","3.1.9","yes","yes","59a800d99ad5a1025d81bb03","59a801616c613b0251691de0","no","no","0","j","j","space","NA","k","l","j","715","2559","27367","NA","21693","12","715","2","legacy","1024","1","44100","-16","experiment","lmal","4","0","0","0","1","english","6","","even","15833262","15805354","NA","NA","15835822","15833258","NA","13696779","15832777","13696782","13696779","15696994","15718691","15972742","15971237","15973459","15765069","15718993","15805354","NA","15632641","15674490","15803694","15718778","15833262","15718997","NA","15972741","15972741","15775562","15775558","15971233","NAP perception","41","53741","47","yes","1024"
"85.4166666667","yes","85.4166666667","1157.75","1157.75","white","no","xpyriment","Ich habe die obigen Informationen gelesen und verstanden.","legacy","legacy","0","uniform","0","0","0","undefined","undefined","0","f","2","1","NA","0","1","0","0","0","0","0","0","0","0","57","57","57","0","0","0","NA","0","0","2","0","0","0","2","57","57","57","57","57","Wed Oct  4 17:27:08 2017","Forced-choice identification task with a practice and an experimental phase","yes","NAP_GER_AA_4blocks_noglides.osexp","/Users/aviadalbert/Documents/Academisch/UoC/Dissertation/Experiment/OpenSesame/NAP-FC/NAP_GER_AA_4blocks_noglides","yes","no","sans","no","20","no","black","no","Weiter","yes","768","legacy","47","9","0","/Users/aviadalbert/Documents/Academisch/UoC/Dissertation/Experiment/OpenSesame/NAP-FC/NAP_GER_AA_4blocks_noglides/subject-6.csv","xpyriment","Jazzy James","3.1.9","yes","yes","59a800d99ad5a1025d81bb03","59a801616c613b0251691de0","no","no","0","j","j","space","NA","k","l","j","1831","2559","27367","NA","21693","12","1831","2","legacy","1024","1","44100","-16","experiment","npal","4","0","0","0","1","english","6","","even","15833262","15805354","NA","NA","15835822","15833258","NA","13696779","15832777","13696782","13696779","15696994","15718691","15975240","15973735","15977073","15765069","15718993","15805354","NA","15632641","15674490","15803694","15718778","15833262","15718997","NA","15975240","15975240","15775562","15775558","15973731","NAP perception","41","55572","48","yes","1024"
"85.7142857143","yes","85.7142857143","1150.16326531","1150.16326531","white","no","xpyriment","Ich habe die obigen Informationen gelesen und verstanden.","legacy","legacy","0","uniform","1","0","0","undefined","undefined","1","j","2","1","NA","0","1","0","0","0","0","0","0","0","0","58","58","58","0","0","0","NA","0","0","2","0","0","0","2","58","58","58","58","58","Wed Oct  4 17:27:08 2017","Forced-choice identification task with a practice and an experimental phase","yes","NAP_GER_AA_4blocks_noglides.osexp","/Users/aviadalbert/Documents/Academisch/UoC/Dissertation/Experiment/OpenSesame/NAP-FC/NAP_GER_AA_4blocks_noglides","yes","no","sans","no","20","no","black","no","Weiter","yes","768","legacy","48","9","0","/Users/aviadalbert/Documents/Academisch/UoC/Dissertation/Experiment/OpenSesame/NAP-FC/NAP_GER_AA_4blocks_noglides/subject-6.csv","xpyriment","Jazzy James","3.1.9","yes","yes","59a800d99ad5a1025d81bb03","59a801616c613b0251691de0","no","no","0","j","j","space","NA","k","l","j","786","2559","27367","NA","21693","12","786","2","legacy","1024","1","44100","-16","experiment","zeval","4","0","0","0","1","english","6","","even","15833262","15805354","NA","NA","15835822","15833258","NA","13696779","15832777","13696782","13696779","15696994","15718691","15978860","15977353","15979648","15765069","15718993","15805354","NA","15632641","15674490","15803694","15718778","15833262","15718997","NA","15978859","15978859","15775562","15775558","15977349","NAP perception","42","56358","49","yes","1024"
"84","yes","84","1147.26","1147.26","white","no","xpyriment","Ich habe die obigen Informationen gelesen und verstanden.","legacy","legacy","0","uniform","0","0","0","undefined","undefined","0","f","2","1","NA","0","1","0","0","0","0","0","0","0","0","59","59","59","0","0","0","NA","0","0","2","0","0","0","2","59","59","59","59","59","Wed Oct  4 17:27:08 2017","Forced-choice identification task with a practice and an experimental phase","yes","NAP_GER_AA_4blocks_noglides.osexp","/Users/aviadalbert/Documents/Academisch/UoC/Dissertation/Experiment/OpenSesame/NAP-FC/NAP_GER_AA_4blocks_noglides","yes","no","sans","no","20","no","black","no","Weiter","yes","768","legacy","49","9","0","/Users/aviadalbert/Documents/Academisch/UoC/Dissertation/Experiment/OpenSesame/NAP-FC/NAP_GER_AA_4blocks_noglides/subject-6.csv","xpyriment","Jazzy James","3.1.9","yes","yes","59a800d99ad5a1025d81bb03","59a801616c613b0251691de0","no","no","0","j","j","space","NA","k","l","j","1005","2559","27367","NA","21693","12","1005","2","legacy","1024","1","44100","-16","experiment","nfal","4","0","0","0","1","english","6","","even","15833262","15805354","NA","NA","15835822","15833258","NA","13696779","15832777","13696782","13696779","15696994","15718691","15981439","15979936","15982446","15765069","15718993","15805354","NA","15632641","15674490","15803694","15718778","15833262","15718997","NA","15981439","15981439","15775562","15775558","15979932","NAP perception","42","57363","50","yes","1024"
"84.3137254902","yes","84.3137254902","1149.15686275","1149.15686275","white","no","xpyriment","Ich habe die obigen Informationen gelesen und verstanden.","legacy","legacy","0","uniform","1","0","0","undefined","undefined","1","f","2","1","NA","0","1","0","0","0","0","0","0","0","0","60","60","60","0","0","0","NA","0","0","2","0","0","0","2","60","60","60","60","60","Wed Oct  4 17:27:08 2017","Forced-choice identification task with a practice and an experimental phase","yes","NAP_GER_AA_4blocks_noglides.osexp","/Users/aviadalbert/Documents/Academisch/UoC/Dissertation/Experiment/OpenSesame/NAP-FC/NAP_GER_AA_4blocks_noglides","yes","no","sans","no","20","no","black","no","Weiter","yes","768","legacy","50","9","0","/Users/aviadalbert/Documents/Academisch/UoC/Dissertation/Experiment/OpenSesame/NAP-FC/NAP_GER_AA_4blocks_noglides/subject-6.csv","xpyriment","Jazzy James","3.1.9","yes","yes","59a800d99ad5a1025d81bb03","59a801616c613b0251691de0","no","no","0","f","j","space","NA","k","l","f","1244","2559","27367","NA","21693","12","1244","2","legacy","1024","1","44100","-16","experiment","fsal","4","0","0","0","1","english","6","","even","15833262","15805354","NA","NA","15835822","15833258","NA","13696779","15832777","13696782","13696779","15696994","15718691","15984234","15982731","15985480","15765069","15718993","15805354","NA","15632641","15674490","15803694","15718778","15833262","15718997","NA","15984234","15984234","15775562","15775558","15982727","NAP perception","43","58607","51","yes","1024"
"84.6153846154","yes","84.6153846154","1139.61538462","1139.61538462","white","no","xpyriment","Ich habe die obigen Informationen gelesen und verstanden.","legacy","legacy","0","uniform","1","0","0","undefined","undefined","1","j","2","1","NA","0","1","0","0","0","0","0","0","0","0","61","61","61","0","0","0","NA","0","0","2","0","0","0","2","61","61","61","61","61","Wed Oct  4 17:27:08 2017","Forced-choice identification task with a practice and an experimental phase","yes","NAP_GER_AA_4blocks_noglides.osexp","/Users/aviadalbert/Documents/Academisch/UoC/Dissertation/Experiment/OpenSesame/NAP-FC/NAP_GER_AA_4blocks_noglides","yes","no","sans","no","20","no","black","no","Weiter","yes","768","legacy","51","9","0","/Users/aviadalbert/Documents/Academisch/UoC/Dissertation/Experiment/OpenSesame/NAP-FC/NAP_GER_AA_4blocks_noglides/subject-6.csv","xpyriment","Jazzy James","3.1.9","yes","yes","59a800d99ad5a1025d81bb03","59a801616c613b0251691de0","no","no","0","j","j","space","NA","k","l","j","653","2559","27367","NA","21693","12","653","2","legacy","1024","1","44100","-16","experiment","elpal","4","0","0","0","1","english","6","","even","15833262","15805354","NA","NA","15835822","15833258","NA","13696779","15832777","13696782","13696779","15696994","15718691","15987257","15985752","15987912","15765069","15718993","15805354","NA","15632641","15674490","15803694","15718778","15833262","15718997","NA","15987257","15987257","15775562","15775558","15985748","NAP perception","44","59260","52","yes","1024"
"84.9056603774","yes","84.9056603774","1132.28301887","1132.28301887","white","no","xpyriment","Ich habe die obigen Informationen gelesen und verstanden.","legacy","legacy","0","uniform","1","0","0","undefined","undefined","1","j","2","1","NA","0","1","0","0","0","0","0","0","0","0","62","62","62","0","0","0","NA","0","0","2","0","0","0","2","62","62","62","62","62","Wed Oct  4 17:27:08 2017","Forced-choice identification task with a practice and an experimental phase","yes","NAP_GER_AA_4blocks_noglides.osexp","/Users/aviadalbert/Documents/Academisch/UoC/Dissertation/Experiment/OpenSesame/NAP-FC/NAP_GER_AA_4blocks_noglides","yes","no","sans","no","20","no","black","no","Weiter","yes","768","legacy","52","9","0","/Users/aviadalbert/Documents/Academisch/UoC/Dissertation/Experiment/OpenSesame/NAP-FC/NAP_GER_AA_4blocks_noglides/subject-6.csv","xpyriment","Jazzy James","3.1.9","yes","yes","59a800d99ad5a1025d81bb03","59a801616c613b0251691de0","no","no","0","j","j","space","NA","k","l","j","751","2559","27367","NA","21693","12","751","2","legacy","1024","1","44100","-16","experiment","espal","4","0","0","0","1","english","6","","even","15833262","15805354","NA","NA","15835822","15833258","NA","13696779","15832777","13696782","13696779","15696994","15718691","15989688","15988183","15990441","15765069","15718993","15805354","NA","15632641","15674490","15803694","15718778","15833262","15718997","NA","15989688","15989688","15775562","15775558","15988179","NAP perception","45","60011","53","yes","1024"
"85.1851851852","yes","85.1851851852","1131.72222222","1131.72222222","white","no","xpyriment","Ich habe die obigen Informationen gelesen und verstanden.","legacy","legacy","0","uniform","1","0","0","undefined","undefined","1","f","2","1","NA","0","1","0","0","0","0","0","0","0","0","63","63","63","0","0","0","NA","0","0","2","0","0","0","2","63","63","63","63","63","Wed Oct  4 17:27:08 2017","Forced-choice identification task with a practice and an experimental phase","yes","NAP_GER_AA_4blocks_noglides.osexp","/Users/aviadalbert/Documents/Academisch/UoC/Dissertation/Experiment/OpenSesame/NAP-FC/NAP_GER_AA_4blocks_noglides","yes","no","sans","no","20","no","black","no","Weiter","yes","768","legacy","53","9","0","/Users/aviadalbert/Documents/Academisch/UoC/Dissertation/Experiment/OpenSesame/NAP-FC/NAP_GER_AA_4blocks_noglides/subject-6.csv","xpyriment","Jazzy James","3.1.9","yes","yes","59a800d99ad5a1025d81bb03","59a801616c613b0251691de0","no","no","0","f","j","space","NA","k","l","f","1102","2559","27367","NA","21693","12","1102","2","legacy","1024","1","44100","-16","experiment","fnal","4","0","0","0","1","english","6","","even","15833262","15805354","NA","NA","15835822","15833258","NA","13696779","15832777","13696782","13696779","15696994","15718691","15992214","15990711","15993318","15765069","15718993","15805354","NA","15632641","15674490","15803694","15718778","15833262","15718997","NA","15992214","15992214","15775562","15775558","15990707","NAP perception","46","61113","54","yes","1024"
