"acc","accept_status","accuracy","average_response_time","avg_rt","background","bidi","canvas_backend","checkbox_status","clock_backend","color_backend","compensation","coordinates","correct","correct_block_activation","correct_block_exit","correct_instructions_1","correct_instructions_2","correct_keyboard_response","correct_response","count_block_activation","count_block_exit","count_block_info_QA","count_cont_e_block_message","count_e_block_loop","count_e_block_sequence","count_end_of_experiment","count_experiment","count_experimental_loop","count_form_consent","count_info_forms","count_instructions_1","count_instructions_2","count_keyboard_response","count_listen_message","count_logger","count_p_block_loop","count_p_block_sequence","count_p_feedback","count_pause_feedback","count_personal_details_form_1","count_personal_details_form_2","count_post_loop_blank","count_practice_loop","count_pre_e_block_message","count_pre_p_block_message","count_reset_feedback","count_stimulus_image","count_stimulus_sound","count_timeout_message","count_timeout_sound","count_trial_sequence","datetime","description","disable_garbage_collection","experiment_file","experiment_path","expyriment_opengl","font_bold","font_family","font_italic","font_size","font_underline","foreground","form_clicks","form_response","fullscreen","height","keyboard_backend","live_row","live_row_p_block_loop","live_row_practice_loop","logfile","mouse_backend","opensesame_codename","opensesame_version","osf_always_upload_data","osf_always_upload_experiment","osf_datanode_id","osf_id","practice","pygame_doublebuf","repeat_cycle","response","response_block_activation","response_block_exit","response_block_info_QA","response_instructions_1","response_instructions_2","response_keyboard_response","response_time","response_time_block_activation","response_time_block_exit","response_time_block_info_QA","response_time_instructions_1","response_time_instructions_2","response_time_keyboard_response","round_decimals","sampler_backend","sound_buf_size","sound_channels","sound_freq","sound_sample_size","start","stimulus","subject_age","subject_education","subject_gender","subject_german_native","subject_handedness","subject_language_other","subject_nr","subject_other_native_lang","subject_parity","time_block_activation","time_block_exit","time_block_info_QA","time_cont_e_block_message","time_e_block_loop","time_e_block_sequence","time_end_of_experiment","time_experiment","time_experimental_loop","time_form_consent","time_info_forms","time_instructions_1","time_instructions_2","time_keyboard_response","time_listen_message","time_logger","time_p_block_loop","time_p_block_sequence","time_p_feedback","time_pause_feedback","time_personal_details_form_1","time_personal_details_form_2","time_post_loop_blank","time_practice_loop","time_pre_e_block_message","time_pre_p_block_message","time_reset_feedback","time_stimulus_image","time_stimulus_sound","time_timeout_message","time_timeout_sound","time_trial_sequence","title","total_correct","total_response_time","total_responses","uniform_coordinates","width"
"100","yes","100","2365","2365","white","no","xpyriment","Ich habe die obigen Informationen gelesen und verstanden.","legacy","legacy","0","uniform","1","0","NA","undefined","undefined","1","f","0","0","NA","NA","NA","NA","NA","0","0","0","0","0","0","0","0","0","0","0","NA","NA","0","0","0","0","NA","0","0","0","0","0","0","0","Wed Oct 25 10:46:49 2017","Forced-choice identification task with a practice and an experimental phase","yes","NAP_GER_AA_4blocks_noglides.osexp","/Users/aviadalbert/Documents/Academisch/UoC/Dissertation/Experiment/OpenSesame/NAP-FC/NAP_GER_AA_4blocks_noglides","yes","no","sans","no","20","no","black","no","Weiter","yes","768","legacy","0","0","0","/Users/aviadalbert/Documents/Academisch/UoC/Dissertation/Experiment/OpenSesame/NAP-FC/NAP_GER_AA_4blocks_noglides/subject-14.csv","xpyriment","Jazzy James","3.1.9","yes","yes","59a800d99ad5a1025d81bb03","59a801616c613b0251691de0","yes","no","0","f","f","NA","NA","space","space","f","2365","9698","NA","NA","14095","35584","2365","2","legacy","1024","1","44100","-16","experiment","flal","2","0","1","0","1","English, French, Dutch","14","","even","4259270","NA","NA","NA","NA","NA","NA","3342999","NA","3343000","3342999","4209285","4223385","4270671","4269166","4273037","4268969","4259266","NA","NA","4148111","4196156","NA","4259034","NA","4259270","NA","4270671","4270671","NA","NA","4269163","NAP perception","1","2365","1","yes","1024"
"100","yes","100","1970","1970","white","no","xpyriment","Ich habe die obigen Informationen gelesen und verstanden.","legacy","legacy","0","uniform","1","0","NA","undefined","undefined","1","j","0","0","NA","NA","NA","NA","NA","0","0","0","0","0","0","1","1","1","0","0","NA","NA","0","0","0","0","NA","0","0","1","1","1","1","1","Wed Oct 25 10:46:49 2017","Forced-choice identification task with a practice and an experimental phase","yes","NAP_GER_AA_4blocks_noglides.osexp","/Users/aviadalbert/Documents/Academisch/UoC/Dissertation/Experiment/OpenSesame/NAP-FC/NAP_GER_AA_4blocks_noglides","yes","no","sans","no","20","no","black","no","Weiter","yes","768","legacy","1","1","0","/Users/aviadalbert/Documents/Academisch/UoC/Dissertation/Experiment/OpenSesame/NAP-FC/NAP_GER_AA_4blocks_noglides/subject-14.csv","xpyriment","Jazzy James","3.1.9","yes","yes","59a800d99ad5a1025d81bb03","59a801616c613b0251691de0","yes","no","0","j","f","NA","NA","space","space","j","1575","9698","NA","NA","14095","35584","1575","2","legacy","1024","1","44100","-16","experiment","lepal","2","0","1","0","1","English, French, Dutch","14","","even","4259270","NA","NA","NA","NA","NA","NA","3342999","NA","3343000","3342999","4209285","4223385","4274808","4273303","4276384","4268969","4259266","NA","NA","4148111","4196156","NA","4259034","NA","4259270","NA","4274808","4274808","NA","NA","4273299","NAP perception","2","3940","2","yes","1024"
"100","yes","100","1816.33333333","1816.33333333","white","no","xpyriment","Ich habe die obigen Informationen gelesen und verstanden.","legacy","legacy","0","uniform","1","0","NA","undefined","undefined","1","j","0","0","NA","NA","NA","NA","NA","0","0","0","0","0","0","2","2","2","0","0","NA","NA","0","0","0","0","NA","0","0","2","2","2","2","2","Wed Oct 25 10:46:49 2017","Forced-choice identification task with a practice and an experimental phase","yes","NAP_GER_AA_4blocks_noglides.osexp","/Users/aviadalbert/Documents/Academisch/UoC/Dissertation/Experiment/OpenSesame/NAP-FC/NAP_GER_AA_4blocks_noglides","yes","no","sans","no","20","no","black","no","Weiter","yes","768","legacy","2","2","0","/Users/aviadalbert/Documents/Academisch/UoC/Dissertation/Experiment/OpenSesame/NAP-FC/NAP_GER_AA_4blocks_noglides/subject-14.csv","xpyriment","Jazzy James","3.1.9","yes","yes","59a800d99ad5a1025d81bb03","59a801616c613b0251691de0","yes","no","0","j","f","NA","NA","space","space","j","1509","9698","NA","NA","14095","35584","1509","2","legacy","1024","1","44100","-16","experiment","emtal","2","0","1","0","1","English, French, Dutch","14","","even","4259270","NA","NA","NA","NA","NA","NA","3342999","NA","3343000","3342999","4209285","4223385","4278173","4276670","4279683","4268969","4259266","NA","NA","4148111","4196156","NA","4259034","NA","4259270","NA","4278173","4278173","NA","NA","4276666","NAP perception","3","5449","3","yes","1024"
"100","yes","100","1848.5","1848.5","white","no","xpyriment","Ich habe die obigen Informationen gelesen und verstanden.","legacy","legacy","0","uniform","1","0","NA","undefined","undefined","1","f","0","0","NA","NA","NA","NA","NA","0","0","0","0","0","0","3","3","3","0","0","NA","NA","0","0","0","0","NA","0","0","3","3","3","3","3","Wed Oct 25 10:46:49 2017","Forced-choice identification task with a practice and an experimental phase","yes","NAP_GER_AA_4blocks_noglides.osexp","/Users/aviadalbert/Documents/Academisch/UoC/Dissertation/Experiment/OpenSesame/NAP-FC/NAP_GER_AA_4blocks_noglides","yes","no","sans","no","20","no","black","no","Weiter","yes","768","legacy","3","3","0","/Users/aviadalbert/Documents/Academisch/UoC/Dissertation/Experiment/OpenSesame/NAP-FC/NAP_GER_AA_4blocks_noglides/subject-14.csv","xpyriment","Jazzy James","3.1.9","yes","yes","59a800d99ad5a1025d81bb03","59a801616c613b0251691de0","yes","no","0","f","f","NA","NA","space","space","f","1945","9698","NA","NA","14095","35584","1945","2","legacy","1024","1","44100","-16","experiment","ʃpal","2","0","1","0","1","English, French, Dutch","14","","even","4259270","NA","NA","NA","NA","NA","NA","3342999","NA","3343000","3342999","4209285","4223385","4281459","4279952","4283405","4268969","4259266","NA","NA","4148111","4196156","NA","4259034","NA","4259270","NA","4281458","4281458","NA","NA","4279949","NAP perception","4","7394","4","yes","1024"
"100","yes","100","1798.6","1798.6","white","no","xpyriment","Ich habe die obigen Informationen gelesen und verstanden.","legacy","legacy","0","uniform","1","0","NA","undefined","undefined","1","j","0","0","NA","NA","NA","NA","NA","0","0","0","0","0","0","4","4","4","0","0","NA","NA","0","0","0","0","NA","0","0","4","4","4","4","4","Wed Oct 25 10:46:49 2017","Forced-choice identification task with a practice and an experimental phase","yes","NAP_GER_AA_4blocks_noglides.osexp","/Users/aviadalbert/Documents/Academisch/UoC/Dissertation/Experiment/OpenSesame/NAP-FC/NAP_GER_AA_4blocks_noglides","yes","no","sans","no","20","no","black","no","Weiter","yes","768","legacy","4","4","0","/Users/aviadalbert/Documents/Academisch/UoC/Dissertation/Experiment/OpenSesame/NAP-FC/NAP_GER_AA_4blocks_noglides/subject-14.csv","xpyriment","Jazzy James","3.1.9","yes","yes","59a800d99ad5a1025d81bb03","59a801616c613b0251691de0","yes","no","0","j","f","NA","NA","space","space","j","1599","9698","NA","NA","14095","35584","1599","2","legacy","1024","1","44100","-16","experiment","nefal","2","0","1","0","1","English, French, Dutch","14","","even","4259270","NA","NA","NA","NA","NA","NA","3342999","NA","3343000","3342999","4209285","4223385","4285193","4283689","4286793","4268969","4259266","NA","NA","4148111","4196156","NA","4259034","NA","4259270","NA","4285193","4285193","NA","NA","4283685","NAP perception","5","8993","5","yes","1024"
"100","yes","100","1820.16666667","1820.16666667","white","no","xpyriment","Ich habe die obigen Informationen gelesen und verstanden.","legacy","legacy","0","uniform","1","0","NA","undefined","undefined","1","f","0","0","NA","NA","NA","NA","NA","0","0","0","0","0","0","5","5","5","0","0","NA","NA","0","0","0","0","NA","0","0","5","5","5","5","5","Wed Oct 25 10:46:49 2017","Forced-choice identification task with a practice and an experimental phase","yes","NAP_GER_AA_4blocks_noglides.osexp","/Users/aviadalbert/Documents/Academisch/UoC/Dissertation/Experiment/OpenSesame/NAP-FC/NAP_GER_AA_4blocks_noglides","yes","no","sans","no","20","no","black","no","Weiter","yes","768","legacy","5","5","0","/Users/aviadalbert/Documents/Academisch/UoC/Dissertation/Experiment/OpenSesame/NAP-FC/NAP_GER_AA_4blocks_noglides/subject-14.csv","xpyriment","Jazzy James","3.1.9","yes","yes","59a800d99ad5a1025d81bb03","59a801616c613b0251691de0","yes","no","0","f","f","NA","NA","space","space","f","1928","9698","NA","NA","14095","35584","1928","2","legacy","1024","1","44100","-16","experiment","sfal","2","0","1","0","1","English, French, Dutch","14","","even","4259270","NA","NA","NA","NA","NA","NA","3342999","NA","3343000","3342999","4209285","4223385","4288572","4287064","4290501","4268969","4259266","NA","NA","4148111","4196156","NA","4259034","NA","4259270","NA","4288572","4288572","NA","NA","4287060","NAP perception","6","10921","6","yes","1024"
"85.7142857143","yes","85.7142857143","1971","1971","white","no","xpyriment","Ich habe die obigen Informationen gelesen und verstanden.","legacy","legacy","0","uniform","0","0","NA","undefined","undefined","0","f","0","0","NA","NA","NA","NA","NA","0","0","0","0","0","0","6","6","6","0","0","NA","NA","0","0","0","0","NA","0","0","6","6","6","6","6","Wed Oct 25 10:46:49 2017","Forced-choice identification task with a practice and an experimental phase","yes","NAP_GER_AA_4blocks_noglides.osexp","/Users/aviadalbert/Documents/Academisch/UoC/Dissertation/Experiment/OpenSesame/NAP-FC/NAP_GER_AA_4blocks_noglides","yes","no","sans","no","20","no","black","no","Weiter","yes","768","legacy","6","6","0","/Users/aviadalbert/Documents/Academisch/UoC/Dissertation/Experiment/OpenSesame/NAP-FC/NAP_GER_AA_4blocks_noglides/subject-14.csv","xpyriment","Jazzy James","3.1.9","yes","yes","59a800d99ad5a1025d81bb03","59a801616c613b0251691de0","yes","no","0","j","f","NA","NA","space","space","j","2876","9698","NA","NA","14095","35584","2876","2","legacy","1024","1","44100","-16","experiment","zmal","2","0","1","0","1","English, French, Dutch","14","","even","4259270","NA","NA","NA","NA","NA","NA","3342999","NA","3343000","3342999","4209285","4223385","4292279","4290776","4295156","4268969","4259266","NA","NA","4148111","4196156","NA","4259034","NA","4259270","NA","4292279","4292279","NA","NA","4290772","NAP perception","6","13797","7","yes","1024"
"87.5","yes","87.5","1860.875","1860.875","white","no","xpyriment","Ich habe die obigen Informationen gelesen und verstanden.","legacy","legacy","0","uniform","1","0","NA","undefined","undefined","1","j","0","0","NA","NA","NA","NA","NA","0","0","0","0","0","0","7","7","7","0","0","NA","NA","0","0","0","0","NA","0","0","7","7","7","7","7","Wed Oct 25 10:46:49 2017","Forced-choice identification task with a practice and an experimental phase","yes","NAP_GER_AA_4blocks_noglides.osexp","/Users/aviadalbert/Documents/Academisch/UoC/Dissertation/Experiment/OpenSesame/NAP-FC/NAP_GER_AA_4blocks_noglides","yes","no","sans","no","20","no","black","no","Weiter","yes","768","legacy","7","7","0","/Users/aviadalbert/Documents/Academisch/UoC/Dissertation/Experiment/OpenSesame/NAP-FC/NAP_GER_AA_4blocks_noglides/subject-14.csv","xpyriment","Jazzy James","3.1.9","yes","yes","59a800d99ad5a1025d81bb03","59a801616c613b0251691de0","yes","no","0","j","f","NA","NA","space","space","j","1090","9698","NA","NA","14095","35584","1090","2","legacy","1024","1","44100","-16","experiment","mesal","2","0","1","0","1","English, French, Dutch","14","","even","4259270","NA","NA","NA","NA","NA","NA","3342999","NA","3343000","3342999","4209285","4223385","4296914","4295410","4298005","4268969","4259266","NA","NA","4148111","4196156","NA","4259034","NA","4259270","NA","4296914","4296914","NA","NA","4295406","NAP perception","7","14887","8","yes","1024"
"88.8888888889","yes","88.8888888889","1853.11111111","1853.11111111","white","no","xpyriment","Ich habe die obigen Informationen gelesen und verstanden.","legacy","legacy","0","uniform","1","0","NA","undefined","undefined","1","j","0","0","NA","NA","NA","NA","NA","0","0","0","0","0","0","8","8","8","0","0","NA","NA","0","0","0","0","NA","0","0","8","8","8","8","8","Wed Oct 25 10:46:49 2017","Forced-choice identification task with a practice and an experimental phase","yes","NAP_GER_AA_4blocks_noglides.osexp","/Users/aviadalbert/Documents/Academisch/UoC/Dissertation/Experiment/OpenSesame/NAP-FC/NAP_GER_AA_4blocks_noglides","yes","no","sans","no","20","no","black","no","Weiter","yes","768","legacy","8","8","0","/Users/aviadalbert/Documents/Academisch/UoC/Dissertation/Experiment/OpenSesame/NAP-FC/NAP_GER_AA_4blocks_noglides/subject-14.csv","xpyriment","Jazzy James","3.1.9","yes","yes","59a800d99ad5a1025d81bb03","59a801616c613b0251691de0","yes","no","0","j","f","NA","NA","space","space","j","1791","9698","NA","NA","14095","35584","1791","2","legacy","1024","1","44100","-16","experiment","enval","2","0","1","0","1","English, French, Dutch","14","","even","4259270","NA","NA","NA","NA","NA","NA","3342999","NA","3343000","3342999","4209285","4223385","4299781","4298278","4301573","4268969","4259266","NA","NA","4148111","4196156","NA","4259034","NA","4259270","NA","4299781","4299781","NA","NA","4298274","NAP perception","8","16678","9","yes","1024"
"90","yes","90","1807.1","1807.1","white","no","xpyriment","Ich habe die obigen Informationen gelesen und verstanden.","legacy","legacy","0","uniform","1","0","NA","undefined","undefined","1","f","0","0","NA","NA","NA","NA","NA","0","0","0","0","0","0","9","9","9","0","0","NA","NA","0","0","0","0","NA","0","0","9","9","9","9","9","Wed Oct 25 10:46:49 2017","Forced-choice identification task with a practice and an experimental phase","yes","NAP_GER_AA_4blocks_noglides.osexp","/Users/aviadalbert/Documents/Academisch/UoC/Dissertation/Experiment/OpenSesame/NAP-FC/NAP_GER_AA_4blocks_noglides","yes","no","sans","no","20","no","black","no","Weiter","yes","768","legacy","9","9","0","/Users/aviadalbert/Documents/Academisch/UoC/Dissertation/Experiment/OpenSesame/NAP-FC/NAP_GER_AA_4blocks_noglides/subject-14.csv","xpyriment","Jazzy James","3.1.9","yes","yes","59a800d99ad5a1025d81bb03","59a801616c613b0251691de0","yes","no","0","f","f","NA","NA","space","space","f","1393","9698","NA","NA","14095","35584","1393","2","legacy","1024","1","44100","-16","experiment","vlal","2","0","1","0","1","English, French, Dutch","14","","even","4259270","NA","NA","NA","NA","NA","NA","3342999","NA","3343000","3342999","4209285","4223385","4303334","4301830","4304728","4268969","4259266","NA","NA","4148111","4196156","NA","4259034","NA","4259270","NA","4303334","4303334","NA","NA","4301827","NAP perception","9","18071","10","yes","1024"
"0","yes","0","2005","2005","white","no","xpyriment","Ich habe die obigen Informationen gelesen und verstanden.","legacy","legacy","0","uniform","0","0","0","undefined","undefined","0","f","2","1","NA","0","1","0","0","0","0","0","0","0","0","10","10","10","0","0","0","NA","0","0","2","0","0","0","2","10","10","10","10","10","Wed Oct 25 10:46:49 2017","Forced-choice identification task with a practice and an experimental phase","yes","NAP_GER_AA_4blocks_noglides.osexp","/Users/aviadalbert/Documents/Academisch/UoC/Dissertation/Experiment/OpenSesame/NAP-FC/NAP_GER_AA_4blocks_noglides","yes","no","sans","no","20","no","black","no","Weiter","yes","768","legacy","0","9","0","/Users/aviadalbert/Documents/Academisch/UoC/Dissertation/Experiment/OpenSesame/NAP-FC/NAP_GER_AA_4blocks_noglides/subject-14.csv","xpyriment","Jazzy James","3.1.9","yes","yes","59a800d99ad5a1025d81bb03","59a801616c613b0251691de0","no","no","0","j","f","space","NA","space","space","j","2005","2875","20590","NA","14095","35584","2005","2","legacy","1024","1","44100","-16","experiment","zmal","2","0","1","0","1","English, French, Dutch","14","","even","4327555","4306438","NA","NA","4330431","4327551","NA","3342999","4327087","3343000","3342999","4209285","4223385","4332134","4330631","4334141","4268969","4259266","4306438","NA","4148111","4196156","4304789","4259034","4327555","4259270","NA","4332134","4332134","NA","NA","4330627","NAP perception","0","2005","1","yes","1024"
"50","yes","50","1563.5","1563.5","white","no","xpyriment","Ich habe die obigen Informationen gelesen und verstanden.","legacy","legacy","0","uniform","1","0","0","undefined","undefined","1","j","2","1","NA","0","1","0","0","0","0","0","0","0","0","11","11","11","0","0","0","NA","0","0","2","0","0","0","2","11","11","11","11","11","Wed Oct 25 10:46:49 2017","Forced-choice identification task with a practice and an experimental phase","yes","NAP_GER_AA_4blocks_noglides.osexp","/Users/aviadalbert/Documents/Academisch/UoC/Dissertation/Experiment/OpenSesame/NAP-FC/NAP_GER_AA_4blocks_noglides","yes","no","sans","no","20","no","black","no","Weiter","yes","768","legacy","1","9","0","/Users/aviadalbert/Documents/Academisch/UoC/Dissertation/Experiment/OpenSesame/NAP-FC/NAP_GER_AA_4blocks_noglides/subject-14.csv","xpyriment","Jazzy James","3.1.9","yes","yes","59a800d99ad5a1025d81bb03","59a801616c613b0251691de0","no","no","0","j","f","space","NA","space","space","j","1122","2875","20590","NA","14095","35584","1122","2","legacy","1024","1","44100","-16","experiment","enpal","2","0","1","0","1","English, French, Dutch","14","","even","4327555","4306438","NA","NA","4330431","4327551","NA","3342999","4327087","3343000","3342999","4209285","4223385","4335931","4334426","4337054","4268969","4259266","4306438","NA","4148111","4196156","4304789","4259034","4327555","4259270","NA","4335931","4335931","NA","NA","4334422","NAP perception","1","3127","2","yes","1024"
"66.6666666667","yes","66.6666666667","1735.66666667","1735.66666667","white","no","xpyriment","Ich habe die obigen Informationen gelesen und verstanden.","legacy","legacy","0","uniform","1","0","0","undefined","undefined","1","j","2","1","NA","0","1","0","0","0","0","0","0","0","0","12","12","12","0","0","0","NA","0","0","2","0","0","0","2","12","12","12","12","12","Wed Oct 25 10:46:49 2017","Forced-choice identification task with a practice and an experimental phase","yes","NAP_GER_AA_4blocks_noglides.osexp","/Users/aviadalbert/Documents/Academisch/UoC/Dissertation/Experiment/OpenSesame/NAP-FC/NAP_GER_AA_4blocks_noglides","yes","no","sans","no","20","no","black","no","Weiter","yes","768","legacy","2","9","0","/Users/aviadalbert/Documents/Academisch/UoC/Dissertation/Experiment/OpenSesame/NAP-FC/NAP_GER_AA_4blocks_noglides/subject-14.csv","xpyriment","Jazzy James","3.1.9","yes","yes","59a800d99ad5a1025d81bb03","59a801616c613b0251691de0","no","no","0","j","f","space","NA","space","space","j","2080","2875","20590","NA","14095","35584","2080","2","legacy","1024","1","44100","-16","experiment","fesal","2","0","1","0","1","English, French, Dutch","14","","even","4327555","4306438","NA","NA","4330431","4327551","NA","3342999","4327087","3343000","3342999","4209285","4223385","4338841","4337336","4340923","4268969","4259266","4306438","NA","4148111","4196156","4304789","4259034","4327555","4259270","NA","4338840","4338840","NA","NA","4337333","NAP perception","2","5207","3","yes","1024"
"75","yes","75","1717.25","1717.25","white","no","xpyriment","Ich habe die obigen Informationen gelesen und verstanden.","legacy","legacy","0","uniform","1","0","0","undefined","undefined","1","j","2","1","NA","0","1","0","0","0","0","0","0","0","0","13","13","13","0","0","0","NA","0","0","2","0","0","0","2","13","13","13","13","13","Wed Oct 25 10:46:49 2017","Forced-choice identification task with a practice and an experimental phase","yes","NAP_GER_AA_4blocks_noglides.osexp","/Users/aviadalbert/Documents/Academisch/UoC/Dissertation/Experiment/OpenSesame/NAP-FC/NAP_GER_AA_4blocks_noglides","yes","no","sans","no","20","no","black","no","Weiter","yes","768","legacy","3","9","0","/Users/aviadalbert/Documents/Academisch/UoC/Dissertation/Experiment/OpenSesame/NAP-FC/NAP_GER_AA_4blocks_noglides/subject-14.csv","xpyriment","Jazzy James","3.1.9","yes","yes","59a800d99ad5a1025d81bb03","59a801616c613b0251691de0","no","no","0","j","f","space","NA","space","space","j","1662","2875","20590","NA","14095","35584","1662","2","legacy","1024","1","44100","-16","experiment","espal","2","0","1","0","1","English, French, Dutch","14","","even","4327555","4306438","NA","NA","4330431","4327551","NA","3342999","4327087","3343000","3342999","4209285","4223385","4342704","4341198","4344367","4268969","4259266","4306438","NA","4148111","4196156","4304789","4259034","4327555","4259270","NA","4342703","4342704","NA","NA","4341194","NAP perception","3","6869","4","yes","1024"
"80","yes","80","1756.8","1756.8","white","no","xpyriment","Ich habe die obigen Informationen gelesen und verstanden.","legacy","legacy","0","uniform","1","0","0","undefined","undefined","1","j","2","1","NA","0","1","0","0","0","0","0","0","0","0","14","14","14","0","0","0","NA","0","0","2","0","0","0","2","14","14","14","14","14","Wed Oct 25 10:46:49 2017","Forced-choice identification task with a practice and an experimental phase","yes","NAP_GER_AA_4blocks_noglides.osexp","/Users/aviadalbert/Documents/Academisch/UoC/Dissertation/Experiment/OpenSesame/NAP-FC/NAP_GER_AA_4blocks_noglides","yes","no","sans","no","20","no","black","no","Weiter","yes","768","legacy","4","9","0","/Users/aviadalbert/Documents/Academisch/UoC/Dissertation/Experiment/OpenSesame/NAP-FC/NAP_GER_AA_4blocks_noglides/subject-14.csv","xpyriment","Jazzy James","3.1.9","yes","yes","59a800d99ad5a1025d81bb03","59a801616c613b0251691de0","no","no","0","j","f","space","NA","space","space","j","1915","2875","20590","NA","14095","35584","1915","2","legacy","1024","1","44100","-16","experiment","menal","2","0","1","0","1","English, French, Dutch","14","","even","4327555","4306438","NA","NA","4330431","4327551","NA","3342999","4327087","3343000","3342999","4209285","4223385","4346153","4344650","4348070","4268969","4259266","4306438","NA","4148111","4196156","4304789","4259034","4327555","4259270","NA","4346153","4346153","NA","NA","4344646","NAP perception","4","8784","5","yes","1024"
"66.6666666667","yes","66.6666666667","1718","1718","white","no","xpyriment","Ich habe die obigen Informationen gelesen und verstanden.","legacy","legacy","0","uniform","0","0","0","undefined","undefined","0","f","2","1","NA","0","1","0","0","0","0","0","0","0","0","15","15","15","0","0","0","NA","0","0","2","0","0","0","2","15","15","15","15","15","Wed Oct 25 10:46:49 2017","Forced-choice identification task with a practice and an experimental phase","yes","NAP_GER_AA_4blocks_noglides.osexp","/Users/aviadalbert/Documents/Academisch/UoC/Dissertation/Experiment/OpenSesame/NAP-FC/NAP_GER_AA_4blocks_noglides","yes","no","sans","no","20","no","black","no","Weiter","yes","768","legacy","5","9","0","/Users/aviadalbert/Documents/Academisch/UoC/Dissertation/Experiment/OpenSesame/NAP-FC/NAP_GER_AA_4blocks_noglides/subject-14.csv","xpyriment","Jazzy James","3.1.9","yes","yes","59a800d99ad5a1025d81bb03","59a801616c613b0251691de0","no","no","0","j","f","space","NA","space","space","j","1524","2875","20590","NA","14095","35584","1524","2","legacy","1024","1","44100","-16","experiment","lfal","2","0","1","0","1","English, French, Dutch","14","","even","4327555","4306438","NA","NA","4330431","4327551","NA","3342999","4327087","3343000","3342999","4209285","4223385","4349835","4348330","4351360","4268969","4259266","4306438","NA","4148111","4196156","4304789","4259034","4327555","4259270","NA","4349834","4349834","NA","NA","4348326","NAP perception","4","10308","6","yes","1024"
"71.4285714286","yes","71.4285714286","1785.28571429","1785.28571429","white","no","xpyriment","Ich habe die obigen Informationen gelesen und verstanden.","legacy","legacy","0","uniform","1","0","0","undefined","undefined","1","j","2","1","NA","0","1","0","0","0","0","0","0","0","0","16","16","16","0","0","0","NA","0","0","2","0","0","0","2","16","16","16","16","16","Wed Oct 25 10:46:49 2017","Forced-choice identification task with a practice and an experimental phase","yes","NAP_GER_AA_4blocks_noglides.osexp","/Users/aviadalbert/Documents/Academisch/UoC/Dissertation/Experiment/OpenSesame/NAP-FC/NAP_GER_AA_4blocks_noglides","yes","no","sans","no","20","no","black","no","Weiter","yes","768","legacy","6","9","0","/Users/aviadalbert/Documents/Academisch/UoC/Dissertation/Experiment/OpenSesame/NAP-FC/NAP_GER_AA_4blocks_noglides/subject-14.csv","xpyriment","Jazzy James","3.1.9","yes","yes","59a800d99ad5a1025d81bb03","59a801616c613b0251691de0","no","no","0","j","f","space","NA","space","space","j","2189","2875","20590","NA","14095","35584","2189","2","legacy","1024","1","44100","-16","experiment","eʃpal","2","0","1","0","1","English, French, Dutch","14","","even","4327555","4306438","NA","NA","4330431","4327551","NA","3342999","4327087","3343000","3342999","4209285","4223385","4353128","4351625","4355318","4268969","4259266","4306438","NA","4148111","4196156","4304789","4259034","4327555","4259270","NA","4353128","4353128","NA","NA","4351621","NAP perception","5","12497","7","yes","1024"
"75","yes","75","1743","1743","white","no","xpyriment","Ich habe die obigen Informationen gelesen und verstanden.","legacy","legacy","0","uniform","1","0","0","undefined","undefined","1","j","2","1","NA","0","1","0","0","0","0","0","0","0","0","17","17","17","0","0","0","NA","0","0","2","0","0","0","2","17","17","17","17","17","Wed Oct 25 10:46:49 2017","Forced-choice identification task with a practice and an experimental phase","yes","NAP_GER_AA_4blocks_noglides.osexp","/Users/aviadalbert/Documents/Academisch/UoC/Dissertation/Experiment/OpenSesame/NAP-FC/NAP_GER_AA_4blocks_noglides","yes","no","sans","no","20","no","black","no","Weiter","yes","768","legacy","7","9","0","/Users/aviadalbert/Documents/Academisch/UoC/Dissertation/Experiment/OpenSesame/NAP-FC/NAP_GER_AA_4blocks_noglides/subject-14.csv","xpyriment","Jazzy James","3.1.9","yes","yes","59a800d99ad5a1025d81bb03","59a801616c613b0251691de0","no","no","0","j","f","space","NA","space","space","j","1447","2875","20590","NA","14095","35584","1447","2","legacy","1024","1","44100","-16","experiment","eʃmal","2","0","1","0","1","English, French, Dutch","14","","even","4327555","4306438","NA","NA","4330431","4327551","NA","3342999","4327087","3343000","3342999","4209285","4223385","4357109","4355603","4358557","4268969","4259266","4306438","NA","4148111","4196156","4304789","4259034","4327555","4259270","NA","4357108","4357109","NA","NA","4355599","NAP perception","6","13944","8","yes","1024"
"66.6666666667","yes","66.6666666667","1882.66666667","1882.66666667","white","no","xpyriment","Ich habe die obigen Informationen gelesen und verstanden.","legacy","legacy","0","uniform","0","0","0","undefined","undefined","0","f","2","1","NA","0","1","0","0","0","0","0","0","0","0","18","18","18","0","0","0","NA","0","0","2","0","0","0","2","18","18","18","18","18","Wed Oct 25 10:46:49 2017","Forced-choice identification task with a practice and an experimental phase","yes","NAP_GER_AA_4blocks_noglides.osexp","/Users/aviadalbert/Documents/Academisch/UoC/Dissertation/Experiment/OpenSesame/NAP-FC/NAP_GER_AA_4blocks_noglides","yes","no","sans","no","20","no","black","no","Weiter","yes","768","legacy","8","9","0","/Users/aviadalbert/Documents/Academisch/UoC/Dissertation/Experiment/OpenSesame/NAP-FC/NAP_GER_AA_4blocks_noglides/subject-14.csv","xpyriment","Jazzy James","3.1.9","yes","yes","59a800d99ad5a1025d81bb03","59a801616c613b0251691de0","no","no","0","None","f","space","NA","space","space","None","3000","2875","20590","NA","14095","35584","3000","2","legacy","1024","1","44100","-16","experiment","npal","2","0","1","0","1","English, French, Dutch","14","","even","4327555","4306438","NA","NA","4330431","4327551","NA","3342999","4327087","3343000","3342999","4209285","4223385","4360332","4358827","4364335","4268969","4259266","4306438","NA","4148111","4196156","4304789","4259034","4327555","4259270","NA","4360332","4360332","4363335","4363332","4358823","NAP perception","6","16944","9","yes","1024"
"70","yes","70","1834.5","1834.5","white","no","xpyriment","Ich habe die obigen Informationen gelesen und verstanden.","legacy","legacy","0","uniform","1","0","0","undefined","undefined","1","f","2","1","NA","0","1","0","0","0","0","0","0","0","0","19","19","19","0","0","0","NA","0","0","2","0","0","0","2","19","19","19","19","19","Wed Oct 25 10:46:49 2017","Forced-choice identification task with a practice and an experimental phase","yes","NAP_GER_AA_4blocks_noglides.osexp","/Users/aviadalbert/Documents/Academisch/UoC/Dissertation/Experiment/OpenSesame/NAP-FC/NAP_GER_AA_4blocks_noglides","yes","no","sans","no","20","no","black","no","Weiter","yes","768","legacy","9","9","0","/Users/aviadalbert/Documents/Academisch/UoC/Dissertation/Experiment/OpenSesame/NAP-FC/NAP_GER_AA_4blocks_noglides/subject-14.csv","xpyriment","Jazzy James","3.1.9","yes","yes","59a800d99ad5a1025d81bb03","59a801616c613b0251691de0","no","no","0","f","f","space","NA","space","space","f","1401","2875","20590","NA","14095","35584","1401","2","legacy","1024","1","44100","-16","experiment","zval","2","0","1","0","1","English, French, Dutch","14","","even","4327555","4306438","NA","NA","4330431","4327551","NA","3342999","4327087","3343000","3342999","4209285","4223385","4366106","4364602","4367509","4268969","4259266","4306438","NA","4148111","4196156","4304789","4259034","4327555","4259270","NA","4366106","4366106","4363335","4363332","4364598","NAP perception","7","18345","10","yes","1024"
"72.7272727273","yes","72.7272727273","1759","1759","white","no","xpyriment","Ich habe die obigen Informationen gelesen und verstanden.","legacy","legacy","0","uniform","1","0","0","undefined","undefined","1","j","2","1","NA","0","1","0","0","0","0","0","0","0","0","20","20","20","0","0","0","NA","0","0","2","0","0","0","2","20","20","20","20","20","Wed Oct 25 10:46:49 2017","Forced-choice identification task with a practice and an experimental phase","yes","NAP_GER_AA_4blocks_noglides.osexp","/Users/aviadalbert/Documents/Academisch/UoC/Dissertation/Experiment/OpenSesame/NAP-FC/NAP_GER_AA_4blocks_noglides","yes","no","sans","no","20","no","black","no","Weiter","yes","768","legacy","10","9","0","/Users/aviadalbert/Documents/Academisch/UoC/Dissertation/Experiment/OpenSesame/NAP-FC/NAP_GER_AA_4blocks_noglides/subject-14.csv","xpyriment","Jazzy James","3.1.9","yes","yes","59a800d99ad5a1025d81bb03","59a801616c613b0251691de0","no","no","0","j","f","space","NA","space","space","j","1004","2875","20590","NA","14095","35584","1004","2","legacy","1024","1","44100","-16","experiment","lefal","2","0","1","0","1","English, French, Dutch","14","","even","4327555","4306438","NA","NA","4330431","4327551","NA","3342999","4327087","3343000","3342999","4209285","4223385","4369284","4367779","4370290","4268969","4259266","4306438","NA","4148111","4196156","4304789","4259034","4327555","4259270","NA","4369284","4369284","4363335","4363332","4367775","NAP perception","8","19349","11","yes","1024"
"75","yes","75","1692","1692","white","no","xpyriment","Ich habe die obigen Informationen gelesen und verstanden.","legacy","legacy","0","uniform","1","0","0","undefined","undefined","1","j","2","1","NA","0","1","0","0","0","0","0","0","0","0","21","21","21","0","0","0","NA","0","0","2","0","0","0","2","21","21","21","21","21","Wed Oct 25 10:46:49 2017","Forced-choice identification task with a practice and an experimental phase","yes","NAP_GER_AA_4blocks_noglides.osexp","/Users/aviadalbert/Documents/Academisch/UoC/Dissertation/Experiment/OpenSesame/NAP-FC/NAP_GER_AA_4blocks_noglides","yes","no","sans","no","20","no","black","no","Weiter","yes","768","legacy","11","9","0","/Users/aviadalbert/Documents/Academisch/UoC/Dissertation/Experiment/OpenSesame/NAP-FC/NAP_GER_AA_4blocks_noglides/subject-14.csv","xpyriment","Jazzy James","3.1.9","yes","yes","59a800d99ad5a1025d81bb03","59a801616c613b0251691de0","no","no","0","j","f","space","NA","space","space","j","955","2875","20590","NA","14095","35584","955","2","legacy","1024","1","44100","-16","experiment","esfal","2","0","1","0","1","English, French, Dutch","14","","even","4327555","4306438","NA","NA","4330431","4327551","NA","3342999","4327087","3343000","3342999","4209285","4223385","4372064","4370560","4373020","4268969","4259266","4306438","NA","4148111","4196156","4304789","4259034","4327555","4259270","NA","4372063","4372064","4363335","4363332","4370556","NAP perception","9","20304","12","yes","1024"
"76.9230769231","yes","76.9230769231","1630.53846154","1630.53846154","white","no","xpyriment","Ich habe die obigen Informationen gelesen und verstanden.","legacy","legacy","0","uniform","1","0","0","undefined","undefined","1","f","2","1","NA","0","1","0","0","0","0","0","0","0","0","22","22","22","0","0","0","NA","0","0","2","0","0","0","2","22","22","22","22","22","Wed Oct 25 10:46:49 2017","Forced-choice identification task with a practice and an experimental phase","yes","NAP_GER_AA_4blocks_noglides.osexp","/Users/aviadalbert/Documents/Academisch/UoC/Dissertation/Experiment/OpenSesame/NAP-FC/NAP_GER_AA_4blocks_noglides","yes","no","sans","no","20","no","black","no","Weiter","yes","768","legacy","12","9","0","/Users/aviadalbert/Documents/Academisch/UoC/Dissertation/Experiment/OpenSesame/NAP-FC/NAP_GER_AA_4blocks_noglides/subject-14.csv","xpyriment","Jazzy James","3.1.9","yes","yes","59a800d99ad5a1025d81bb03","59a801616c613b0251691de0","no","no","0","f","f","space","NA","space","space","f","893","2875","20590","NA","14095","35584","893","2","legacy","1024","1","44100","-16","experiment","ʃfal","2","0","1","0","1","English, French, Dutch","14","","even","4327555","4306438","NA","NA","4330431","4327551","NA","3342999","4327087","3343000","3342999","4209285","4223385","4374803","4373300","4375697","4268969","4259266","4306438","NA","4148111","4196156","4304789","4259034","4327555","4259270","NA","4374803","4374803","4363335","4363332","4373296","NAP perception","10","21197","13","yes","1024"
"78.5714285714","yes","78.5714285714","1593.78571429","1593.78571429","white","no","xpyriment","Ich habe die obigen Informationen gelesen und verstanden.","legacy","legacy","0","uniform","1","0","0","undefined","undefined","1","j","2","1","NA","0","1","0","0","0","0","0","0","0","0","23","23","23","0","0","0","NA","0","0","2","0","0","0","2","23","23","23","23","23","Wed Oct 25 10:46:49 2017","Forced-choice identification task with a practice and an experimental phase","yes","NAP_GER_AA_4blocks_noglides.osexp","/Users/aviadalbert/Documents/Academisch/UoC/Dissertation/Experiment/OpenSesame/NAP-FC/NAP_GER_AA_4blocks_noglides","yes","no","sans","no","20","no","black","no","Weiter","yes","768","legacy","13","9","0","/Users/aviadalbert/Documents/Academisch/UoC/Dissertation/Experiment/OpenSesame/NAP-FC/NAP_GER_AA_4blocks_noglides/subject-14.csv","xpyriment","Jazzy James","3.1.9","yes","yes","59a800d99ad5a1025d81bb03","59a801616c613b0251691de0","no","no","0","j","f","space","NA","space","space","j","1116","2875","20590","NA","14095","35584","1116","2","legacy","1024","1","44100","-16","experiment","ʃemal","2","0","1","0","1","English, French, Dutch","14","","even","4327555","4306438","NA","NA","4330431","4327551","NA","3342999","4327087","3343000","3342999","4209285","4223385","4377474","4375970","4378591","4268969","4259266","4306438","NA","4148111","4196156","4304789","4259034","4327555","4259270","NA","4377474","4377474","4363335","4363332","4375966","NAP perception","11","22313","14","yes","1024"
"80","yes","80","1555.53333333","1555.53333333","white","no","xpyriment","Ich habe die obigen Informationen gelesen und verstanden.","legacy","legacy","0","uniform","1","0","0","undefined","undefined","1","j","2","1","NA","0","1","0","0","0","0","0","0","0","0","24","24","24","0","0","0","NA","0","0","2","0","0","0","2","24","24","24","24","24","Wed Oct 25 10:46:49 2017","Forced-choice identification task with a practice and an experimental phase","yes","NAP_GER_AA_4blocks_noglides.osexp","/Users/aviadalbert/Documents/Academisch/UoC/Dissertation/Experiment/OpenSesame/NAP-FC/NAP_GER_AA_4blocks_noglides","yes","no","sans","no","20","no","black","no","Weiter","yes","768","legacy","14","9","0","/Users/aviadalbert/Documents/Academisch/UoC/Dissertation/Experiment/OpenSesame/NAP-FC/NAP_GER_AA_4blocks_noglides/subject-14.csv","xpyriment","Jazzy James","3.1.9","yes","yes","59a800d99ad5a1025d81bb03","59a801616c613b0251691de0","no","no","0","j","f","space","NA","space","space","j","1020","2875","20590","NA","14095","35584","1020","2","legacy","1024","1","44100","-16","experiment","emzal","2","0","1","0","1","English, French, Dutch","14","","even","4327555","4306438","NA","NA","4330431","4327551","NA","3342999","4327087","3343000","3342999","4209285","4223385","4380372","4378868","4381393","4268969","4259266","4306438","NA","4148111","4196156","4304789","4259034","4327555","4259270","NA","4380371","4380371","4363335","4363332","4378864","NAP perception","12","23333","15","yes","1024"
"81.25","yes","81.25","1517.625","1517.625","white","no","xpyriment","Ich habe die obigen Informationen gelesen und verstanden.","legacy","legacy","0","uniform","1","0","0","undefined","undefined","1","f","2","1","NA","0","1","0","0","0","0","0","0","0","0","25","25","25","0","0","0","NA","0","0","2","0","0","0","2","25","25","25","25","25","Wed Oct 25 10:46:49 2017","Forced-choice identification task with a practice and an experimental phase","yes","NAP_GER_AA_4blocks_noglides.osexp","/Users/aviadalbert/Documents/Academisch/UoC/Dissertation/Experiment/OpenSesame/NAP-FC/NAP_GER_AA_4blocks_noglides","yes","no","sans","no","20","no","black","no","Weiter","yes","768","legacy","15","9","0","/Users/aviadalbert/Documents/Academisch/UoC/Dissertation/Experiment/OpenSesame/NAP-FC/NAP_GER_AA_4blocks_noglides/subject-14.csv","xpyriment","Jazzy James","3.1.9","yes","yes","59a800d99ad5a1025d81bb03","59a801616c613b0251691de0","no","no","0","f","f","space","NA","space","space","f","949","2875","20590","NA","14095","35584","949","2","legacy","1024","1","44100","-16","experiment","fnal","2","0","1","0","1","English, French, Dutch","14","","even","4327555","4306438","NA","NA","4330431","4327551","NA","3342999","4327087","3343000","3342999","4209285","4223385","4383167","4381663","4384117","4268969","4259266","4306438","NA","4148111","4196156","4304789","4259034","4327555","4259270","NA","4383166","4383167","4363335","4363332","4381659","NAP perception","13","24282","16","yes","1024"
"82.3529411765","yes","82.3529411765","1488.64705882","1488.64705882","white","no","xpyriment","Ich habe die obigen Informationen gelesen und verstanden.","legacy","legacy","0","uniform","1","0","0","undefined","undefined","1","f","2","1","NA","0","1","0","0","0","0","0","0","0","0","26","26","26","0","0","0","NA","0","0","2","0","0","0","2","26","26","26","26","26","Wed Oct 25 10:46:49 2017","Forced-choice identification task with a practice and an experimental phase","yes","NAP_GER_AA_4blocks_noglides.osexp","/Users/aviadalbert/Documents/Academisch/UoC/Dissertation/Experiment/OpenSesame/NAP-FC/NAP_GER_AA_4blocks_noglides","yes","no","sans","no","20","no","black","no","Weiter","yes","768","legacy","16","9","0","/Users/aviadalbert/Documents/Academisch/UoC/Dissertation/Experiment/OpenSesame/NAP-FC/NAP_GER_AA_4blocks_noglides/subject-14.csv","xpyriment","Jazzy James","3.1.9","yes","yes","59a800d99ad5a1025d81bb03","59a801616c613b0251691de0","no","no","0","f","f","space","NA","space","space","f","1025","2875","20590","NA","14095","35584","1025","2","legacy","1024","1","44100","-16","experiment","fnal","2","0","1","0","1","English, French, Dutch","14","","even","4327555","4306438","NA","NA","4330431","4327551","NA","3342999","4327087","3343000","3342999","4209285","4223385","4385892","4384388","4386918","4268969","4259266","4306438","NA","4148111","4196156","4304789","4259034","4327555","4259270","NA","4385892","4385892","4363335","4363332","4384384","NAP perception","14","25307","17","yes","1024"
"83.3333333333","yes","83.3333333333","1466.83333333","1466.83333333","white","no","xpyriment","Ich habe die obigen Informationen gelesen und verstanden.","legacy","legacy","0","uniform","1","0","0","undefined","undefined","1","j","2","1","NA","0","1","0","0","0","0","0","0","0","0","27","27","27","0","0","0","NA","0","0","2","0","0","0","2","27","27","27","27","27","Wed Oct 25 10:46:49 2017","Forced-choice identification task with a practice and an experimental phase","yes","NAP_GER_AA_4blocks_noglides.osexp","/Users/aviadalbert/Documents/Academisch/UoC/Dissertation/Experiment/OpenSesame/NAP-FC/NAP_GER_AA_4blocks_noglides","yes","no","sans","no","20","no","black","no","Weiter","yes","768","legacy","17","9","0","/Users/aviadalbert/Documents/Academisch/UoC/Dissertation/Experiment/OpenSesame/NAP-FC/NAP_GER_AA_4blocks_noglides/subject-14.csv","xpyriment","Jazzy James","3.1.9","yes","yes","59a800d99ad5a1025d81bb03","59a801616c613b0251691de0","no","no","0","j","f","space","NA","space","space","j","1096","2875","20590","NA","14095","35584","1096","2","legacy","1024","1","44100","-16","experiment","enfal","2","0","1","0","1","English, French, Dutch","14","","even","4327555","4306438","NA","NA","4330431","4327551","NA","3342999","4327087","3343000","3342999","4209285","4223385","4388692","4387189","4389789","4268969","4259266","4306438","NA","4148111","4196156","4304789","4259034","4327555","4259270","NA","4388692","4388692","4363335","4363332","4387185","NAP perception","15","26403","18","yes","1024"
"84.2105263158","yes","84.2105263158","1455.63157895","1455.63157895","white","no","xpyriment","Ich habe die obigen Informationen gelesen und verstanden.","legacy","legacy","0","uniform","1","0","0","undefined","undefined","1","j","2","1","NA","0","1","0","0","0","0","0","0","0","0","28","28","28","0","0","0","NA","0","0","2","0","0","0","2","28","28","28","28","28","Wed Oct 25 10:46:49 2017","Forced-choice identification task with a practice and an experimental phase","yes","NAP_GER_AA_4blocks_noglides.osexp","/Users/aviadalbert/Documents/Academisch/UoC/Dissertation/Experiment/OpenSesame/NAP-FC/NAP_GER_AA_4blocks_noglides","yes","no","sans","no","20","no","black","no","Weiter","yes","768","legacy","18","9","0","/Users/aviadalbert/Documents/Academisch/UoC/Dissertation/Experiment/OpenSesame/NAP-FC/NAP_GER_AA_4blocks_noglides/subject-14.csv","xpyriment","Jazzy James","3.1.9","yes","yes","59a800d99ad5a1025d81bb03","59a801616c613b0251691de0","no","no","0","j","f","space","NA","space","space","j","1254","2875","20590","NA","14095","35584","1254","2","legacy","1024","1","44100","-16","experiment","vezal","2","0","1","0","1","English, French, Dutch","14","","even","4327555","4306438","NA","NA","4330431","4327551","NA","3342999","4327087","3343000","3342999","4209285","4223385","4391558","4390054","4392813","4268969","4259266","4306438","NA","4148111","4196156","4304789","4259034","4327555","4259270","NA","4391557","4391557","4363335","4363332","4390050","NAP perception","16","27657","19","yes","1024"
"85","yes","85","1432.65","1432.65","white","no","xpyriment","Ich habe die obigen Informationen gelesen und verstanden.","legacy","legacy","0","uniform","1","0","0","undefined","undefined","1","f","2","1","NA","0","1","0","0","0","0","0","0","0","0","29","29","29","0","0","0","NA","0","0","2","0","0","0","2","29","29","29","29","29","Wed Oct 25 10:46:49 2017","Forced-choice identification task with a practice and an experimental phase","yes","NAP_GER_AA_4blocks_noglides.osexp","/Users/aviadalbert/Documents/Academisch/UoC/Dissertation/Experiment/OpenSesame/NAP-FC/NAP_GER_AA_4blocks_noglides","yes","no","sans","no","20","no","black","no","Weiter","yes","768","legacy","19","9","0","/Users/aviadalbert/Documents/Academisch/UoC/Dissertation/Experiment/OpenSesame/NAP-FC/NAP_GER_AA_4blocks_noglides/subject-14.csv","xpyriment","Jazzy James","3.1.9","yes","yes","59a800d99ad5a1025d81bb03","59a801616c613b0251691de0","no","no","0","f","f","space","NA","space","space","f","996","2875","20590","NA","14095","35584","996","2","legacy","1024","1","44100","-16","experiment","mlal","2","0","1","0","1","English, French, Dutch","14","","even","4327555","4306438","NA","NA","4330431","4327551","NA","3342999","4327087","3343000","3342999","4209285","4223385","4394593","4393088","4395590","4268969","4259266","4306438","NA","4148111","4196156","4304789","4259034","4327555","4259270","NA","4394593","4394593","4363335","4363332","4393084","NAP perception","17","28653","20","yes","1024"
"85.7142857143","yes","85.7142857143","1403.42857143","1403.42857143","white","no","xpyriment","Ich habe die obigen Informationen gelesen und verstanden.","legacy","legacy","0","uniform","1","0","0","undefined","undefined","1","f","2","1","NA","0","1","0","0","0","0","0","0","0","0","30","30","30","0","0","0","NA","0","0","2","0","0","0","2","30","30","30","30","30","Wed Oct 25 10:46:49 2017","Forced-choice identification task with a practice and an experimental phase","yes","NAP_GER_AA_4blocks_noglides.osexp","/Users/aviadalbert/Documents/Academisch/UoC/Dissertation/Experiment/OpenSesame/NAP-FC/NAP_GER_AA_4blocks_noglides","yes","no","sans","no","20","no","black","no","Weiter","yes","768","legacy","20","9","0","/Users/aviadalbert/Documents/Academisch/UoC/Dissertation/Experiment/OpenSesame/NAP-FC/NAP_GER_AA_4blocks_noglides/subject-14.csv","xpyriment","Jazzy James","3.1.9","yes","yes","59a800d99ad5a1025d81bb03","59a801616c613b0251691de0","no","no","0","f","f","space","NA","space","space","f","819","2875","20590","NA","14095","35584","819","2","legacy","1024","1","44100","-16","experiment","ʃpal","2","0","1","0","1","English, French, Dutch","14","","even","4327555","4306438","NA","NA","4330431","4327551","NA","3342999","4327087","3343000","3342999","4209285","4223385","4397357","4395854","4398177","4268969","4259266","4306438","NA","4148111","4196156","4304789","4259034","4327555","4259270","NA","4397357","4397357","4363335","4363332","4395850","NAP perception","18","29472","21","yes","1024"
"86.3636363636","yes","86.3636363636","1378.72727273","1378.72727273","white","no","xpyriment","Ich habe die obigen Informationen gelesen und verstanden.","legacy","legacy","0","uniform","1","0","0","undefined","undefined","1","j","2","1","NA","0","1","0","0","0","0","0","0","0","0","31","31","31","0","0","0","NA","0","0","2","0","0","0","2","31","31","31","31","31","Wed Oct 25 10:46:49 2017","Forced-choice identification task with a practice and an experimental phase","yes","NAP_GER_AA_4blocks_noglides.osexp","/Users/aviadalbert/Documents/Academisch/UoC/Dissertation/Experiment/OpenSesame/NAP-FC/NAP_GER_AA_4blocks_noglides","yes","no","sans","no","20","no","black","no","Weiter","yes","768","legacy","21","9","0","/Users/aviadalbert/Documents/Academisch/UoC/Dissertation/Experiment/OpenSesame/NAP-FC/NAP_GER_AA_4blocks_noglides/subject-14.csv","xpyriment","Jazzy James","3.1.9","yes","yes","59a800d99ad5a1025d81bb03","59a801616c613b0251691de0","no","no","0","j","f","space","NA","space","space","j","860","2875","20590","NA","14095","35584","860","2","legacy","1024","1","44100","-16","experiment","fenal","2","0","1","0","1","English, French, Dutch","14","","even","4327555","4306438","NA","NA","4330431","4327551","NA","3342999","4327087","3343000","3342999","4209285","4223385","4399945","4398441","4400806","4268969","4259266","4306438","NA","4148111","4196156","4304789","4259034","4327555","4259270","NA","4399945","4399945","4363335","4363332","4398437","NAP perception","19","30332","22","yes","1024"
"86.9565217391","yes","86.9565217391","1360.34782609","1360.34782609","white","no","xpyriment","Ich habe die obigen Informationen gelesen und verstanden.","legacy","legacy","0","uniform","1","0","0","undefined","undefined","1","f","2","1","NA","0","1","0","0","0","0","0","0","0","0","32","32","32","0","0","0","NA","0","0","2","0","0","0","2","32","32","32","32","32","Wed Oct 25 10:46:49 2017","Forced-choice identification task with a practice and an experimental phase","yes","NAP_GER_AA_4blocks_noglides.osexp","/Users/aviadalbert/Documents/Academisch/UoC/Dissertation/Experiment/OpenSesame/NAP-FC/NAP_GER_AA_4blocks_noglides","yes","no","sans","no","20","no","black","no","Weiter","yes","768","legacy","22","9","0","/Users/aviadalbert/Documents/Academisch/UoC/Dissertation/Experiment/OpenSesame/NAP-FC/NAP_GER_AA_4blocks_noglides/subject-14.csv","xpyriment","Jazzy James","3.1.9","yes","yes","59a800d99ad5a1025d81bb03","59a801616c613b0251691de0","no","no","0","f","f","space","NA","space","space","f","956","2875","20590","NA","14095","35584","956","2","legacy","1024","1","44100","-16","experiment","vzal","2","0","1","0","1","English, French, Dutch","14","","even","4327555","4306438","NA","NA","4330431","4327551","NA","3342999","4327087","3343000","3342999","4209285","4223385","4402583","4401078","4403540","4268969","4259266","4306438","NA","4148111","4196156","4304789","4259034","4327555","4259270","NA","4402582","4402583","4363335","4363332","4401075","NAP perception","20","31288","23","yes","1024"
"87.5","yes","87.5","1340.91666667","1340.91666667","white","no","xpyriment","Ich habe die obigen Informationen gelesen und verstanden.","legacy","legacy","0","uniform","1","0","0","undefined","undefined","1","f","2","1","NA","0","1","0","0","0","0","0","0","0","0","33","33","33","0","0","0","NA","0","0","2","0","0","0","2","33","33","33","33","33","Wed Oct 25 10:46:49 2017","Forced-choice identification task with a practice and an experimental phase","yes","NAP_GER_AA_4blocks_noglides.osexp","/Users/aviadalbert/Documents/Academisch/UoC/Dissertation/Experiment/OpenSesame/NAP-FC/NAP_GER_AA_4blocks_noglides","yes","no","sans","no","20","no","black","no","Weiter","yes","768","legacy","23","9","0","/Users/aviadalbert/Documents/Academisch/UoC/Dissertation/Experiment/OpenSesame/NAP-FC/NAP_GER_AA_4blocks_noglides/subject-14.csv","xpyriment","Jazzy James","3.1.9","yes","yes","59a800d99ad5a1025d81bb03","59a801616c613b0251691de0","no","no","0","f","f","space","NA","space","space","f","894","2875","20590","NA","14095","35584","894","2","legacy","1024","1","44100","-16","experiment","mlal","2","0","1","0","1","English, French, Dutch","14","","even","4327555","4306438","NA","NA","4330431","4327551","NA","3342999","4327087","3343000","3342999","4209285","4223385","4405315","4403810","4406211","4268969","4259266","4306438","NA","4148111","4196156","4304789","4259034","4327555","4259270","NA","4405315","4405315","4363335","4363332","4403806","NAP perception","21","32182","24","yes","1024"
"88","yes","88","1337.04","1337.04","white","no","xpyriment","Ich habe die obigen Informationen gelesen und verstanden.","legacy","legacy","0","uniform","1","0","0","undefined","undefined","1","f","2","1","NA","0","1","0","0","0","0","0","0","0","0","34","34","34","0","0","0","NA","0","0","2","0","0","0","2","34","34","34","34","34","Wed Oct 25 10:46:49 2017","Forced-choice identification task with a practice and an experimental phase","yes","NAP_GER_AA_4blocks_noglides.osexp","/Users/aviadalbert/Documents/Academisch/UoC/Dissertation/Experiment/OpenSesame/NAP-FC/NAP_GER_AA_4blocks_noglides","yes","no","sans","no","20","no","black","no","Weiter","yes","768","legacy","24","9","0","/Users/aviadalbert/Documents/Academisch/UoC/Dissertation/Experiment/OpenSesame/NAP-FC/NAP_GER_AA_4blocks_noglides/subject-14.csv","xpyriment","Jazzy James","3.1.9","yes","yes","59a800d99ad5a1025d81bb03","59a801616c613b0251691de0","no","no","0","f","f","space","NA","space","space","f","1244","2875","20590","NA","14095","35584","1244","2","legacy","1024","1","44100","-16","experiment","ftal","2","0","1","0","1","English, French, Dutch","14","","even","4327555","4306438","NA","NA","4330431","4327551","NA","3342999","4327087","3343000","3342999","4209285","4223385","4407986","4406482","4409232","4268969","4259266","4306438","NA","4148111","4196156","4304789","4259034","4327555","4259270","NA","4407986","4407986","4363335","4363332","4406478","NAP perception","22","33426","25","yes","1024"
"84.6153846154","yes","84.6153846154","1334.88461538","1334.88461538","white","no","xpyriment","Ich habe die obigen Informationen gelesen und verstanden.","legacy","legacy","0","uniform","0","0","0","undefined","undefined","0","f","2","1","NA","0","1","0","0","0","0","0","0","0","0","35","35","35","0","0","0","NA","0","0","2","0","0","0","2","35","35","35","35","35","Wed Oct 25 10:46:49 2017","Forced-choice identification task with a practice and an experimental phase","yes","NAP_GER_AA_4blocks_noglides.osexp","/Users/aviadalbert/Documents/Academisch/UoC/Dissertation/Experiment/OpenSesame/NAP-FC/NAP_GER_AA_4blocks_noglides","yes","no","sans","no","20","no","black","no","Weiter","yes","768","legacy","25","9","0","/Users/aviadalbert/Documents/Academisch/UoC/Dissertation/Experiment/OpenSesame/NAP-FC/NAP_GER_AA_4blocks_noglides/subject-14.csv","xpyriment","Jazzy James","3.1.9","yes","yes","59a800d99ad5a1025d81bb03","59a801616c613b0251691de0","no","no","0","j","f","space","NA","space","space","j","1281","2875","20590","NA","14095","35584","1281","2","legacy","1024","1","44100","-16","experiment","npal","2","0","1","0","1","English, French, Dutch","14","","even","4327555","4306438","NA","NA","4330431","4327551","NA","3342999","4327087","3343000","3342999","4209285","4223385","4411003","4409498","4412286","4268969","4259266","4306438","NA","4148111","4196156","4304789","4259034","4327555","4259270","NA","4411003","4411003","4363335","4363332","4409494","NAP perception","22","34707","26","yes","1024"
"85.1851851852","yes","85.1851851852","1328","1328","white","no","xpyriment","Ich habe die obigen Informationen gelesen und verstanden.","legacy","legacy","0","uniform","1","0","0","undefined","undefined","1","j","2","1","NA","0","1","0","0","0","0","0","0","0","0","36","36","36","0","0","0","NA","0","0","2","0","0","0","2","36","36","36","36","36","Wed Oct 25 10:46:49 2017","Forced-choice identification task with a practice and an experimental phase","yes","NAP_GER_AA_4blocks_noglides.osexp","/Users/aviadalbert/Documents/Academisch/UoC/Dissertation/Experiment/OpenSesame/NAP-FC/NAP_GER_AA_4blocks_noglides","yes","no","sans","no","20","no","black","no","Weiter","yes","768","legacy","26","9","0","/Users/aviadalbert/Documents/Academisch/UoC/Dissertation/Experiment/OpenSesame/NAP-FC/NAP_GER_AA_4blocks_noglides/subject-14.csv","xpyriment","Jazzy James","3.1.9","yes","yes","59a800d99ad5a1025d81bb03","59a801616c613b0251691de0","no","no","0","j","f","space","NA","space","space","j","1149","2875","20590","NA","14095","35584","1149","2","legacy","1024","1","44100","-16","experiment","elkal","2","0","1","0","1","English, French, Dutch","14","","even","4327555","4306438","NA","NA","4330431","4327551","NA","3342999","4327087","3343000","3342999","4209285","4223385","4414075","4412572","4415226","4268969","4259266","4306438","NA","4148111","4196156","4304789","4259034","4327555","4259270","NA","4414075","4414075","4363335","4363332","4412568","NAP perception","23","35856","27","yes","1024"
"85.7142857143","yes","85.7142857143","1315.28571429","1315.28571429","white","no","xpyriment","Ich habe die obigen Informationen gelesen und verstanden.","legacy","legacy","0","uniform","1","0","0","undefined","undefined","1","f","2","1","NA","0","1","0","0","0","0","0","0","0","0","37","37","37","0","0","0","NA","0","0","2","0","0","0","2","37","37","37","37","37","Wed Oct 25 10:46:49 2017","Forced-choice identification task with a practice and an experimental phase","yes","NAP_GER_AA_4blocks_noglides.osexp","/Users/aviadalbert/Documents/Academisch/UoC/Dissertation/Experiment/OpenSesame/NAP-FC/NAP_GER_AA_4blocks_noglides","yes","no","sans","no","20","no","black","no","Weiter","yes","768","legacy","27","9","0","/Users/aviadalbert/Documents/Academisch/UoC/Dissertation/Experiment/OpenSesame/NAP-FC/NAP_GER_AA_4blocks_noglides/subject-14.csv","xpyriment","Jazzy James","3.1.9","yes","yes","59a800d99ad5a1025d81bb03","59a801616c613b0251691de0","no","no","0","f","f","space","NA","space","space","f","972","2875","20590","NA","14095","35584","972","2","legacy","1024","1","44100","-16","experiment","spal","2","0","1","0","1","English, French, Dutch","14","","even","4327555","4306438","NA","NA","4330431","4327551","NA","3342999","4327087","3343000","3342999","4209285","4223385","4416997","4415493","4417971","4268969","4259266","4306438","NA","4148111","4196156","4304789","4259034","4327555","4259270","NA","4416996","4416997","4363335","4363332","4415489","NAP perception","24","36828","28","yes","1024"
"86.2068965517","yes","86.2068965517","1325.06896552","1325.06896552","white","no","xpyriment","Ich habe die obigen Informationen gelesen und verstanden.","legacy","legacy","0","uniform","1","0","0","undefined","undefined","1","j","2","1","NA","0","1","0","0","0","0","0","0","0","0","38","38","38","0","0","0","NA","0","0","2","0","0","0","2","38","38","38","38","38","Wed Oct 25 10:46:49 2017","Forced-choice identification task with a practice and an experimental phase","yes","NAP_GER_AA_4blocks_noglides.osexp","/Users/aviadalbert/Documents/Academisch/UoC/Dissertation/Experiment/OpenSesame/NAP-FC/NAP_GER_AA_4blocks_noglides","yes","no","sans","no","20","no","black","no","Weiter","yes","768","legacy","28","9","0","/Users/aviadalbert/Documents/Academisch/UoC/Dissertation/Experiment/OpenSesame/NAP-FC/NAP_GER_AA_4blocks_noglides/subject-14.csv","xpyriment","Jazzy James","3.1.9","yes","yes","59a800d99ad5a1025d81bb03","59a801616c613b0251691de0","no","no","0","j","f","space","NA","space","space","j","1599","2875","20590","NA","14095","35584","1599","2","legacy","1024","1","44100","-16","experiment","zeval","2","0","1","0","1","English, French, Dutch","14","","even","4327555","4306438","NA","NA","4330431","4327551","NA","3342999","4327087","3343000","3342999","4209285","4223385","4419741","4418238","4421342","4268969","4259266","4306438","NA","4148111","4196156","4304789","4259034","4327555","4259270","NA","4419741","4419741","4363335","4363332","4418234","NAP perception","25","38427","29","yes","1024"
"86.6666666667","yes","86.6666666667","1309.66666667","1309.66666667","white","no","xpyriment","Ich habe die obigen Informationen gelesen und verstanden.","legacy","legacy","0","uniform","1","0","0","undefined","undefined","1","j","2","1","NA","0","1","0","0","0","0","0","0","0","0","39","39","39","0","0","0","NA","0","0","2","0","0","0","2","39","39","39","39","39","Wed Oct 25 10:46:49 2017","Forced-choice identification task with a practice and an experimental phase","yes","NAP_GER_AA_4blocks_noglides.osexp","/Users/aviadalbert/Documents/Academisch/UoC/Dissertation/Experiment/OpenSesame/NAP-FC/NAP_GER_AA_4blocks_noglides","yes","no","sans","no","20","no","black","no","Weiter","yes","768","legacy","29","9","0","/Users/aviadalbert/Documents/Academisch/UoC/Dissertation/Experiment/OpenSesame/NAP-FC/NAP_GER_AA_4blocks_noglides/subject-14.csv","xpyriment","Jazzy James","3.1.9","yes","yes","59a800d99ad5a1025d81bb03","59a801616c613b0251691de0","no","no","0","j","f","space","NA","space","space","j","863","2875","20590","NA","14095","35584","863","2","legacy","1024","1","44100","-16","experiment","elfal","2","0","1","0","1","English, French, Dutch","14","","even","4327555","4306438","NA","NA","4330431","4327551","NA","3342999","4327087","3343000","3342999","4209285","4223385","4423125","4421621","4423990","4268969","4259266","4306438","NA","4148111","4196156","4304789","4259034","4327555","4259270","NA","4423125","4423125","4363335","4363332","4421617","NAP perception","26","39290","30","yes","1024"
"87.0967741935","yes","87.0967741935","1298","1298","white","no","xpyriment","Ich habe die obigen Informationen gelesen und verstanden.","legacy","legacy","0","uniform","1","0","0","undefined","undefined","1","j","2","1","NA","0","1","0","0","0","0","0","0","0","0","40","40","40","0","0","0","NA","0","0","2","0","0","0","2","40","40","40","40","40","Wed Oct 25 10:46:49 2017","Forced-choice identification task with a practice and an experimental phase","yes","NAP_GER_AA_4blocks_noglides.osexp","/Users/aviadalbert/Documents/Academisch/UoC/Dissertation/Experiment/OpenSesame/NAP-FC/NAP_GER_AA_4blocks_noglides","yes","no","sans","no","20","no","black","no","Weiter","yes","768","legacy","30","9","0","/Users/aviadalbert/Documents/Academisch/UoC/Dissertation/Experiment/OpenSesame/NAP-FC/NAP_GER_AA_4blocks_noglides/subject-14.csv","xpyriment","Jazzy James","3.1.9","yes","yes","59a800d99ad5a1025d81bb03","59a801616c613b0251691de0","no","no","0","j","f","space","NA","space","space","j","948","2875","20590","NA","14095","35584","948","2","legacy","1024","1","44100","-16","experiment","ezmal","2","0","1","0","1","English, French, Dutch","14","","even","4327555","4306438","NA","NA","4330431","4327551","NA","3342999","4327087","3343000","3342999","4209285","4223385","4425778","4424273","4426728","4268969","4259266","4306438","NA","4148111","4196156","4304789","4259034","4327555","4259270","NA","4425778","4425778","4363335","4363332","4424269","NAP perception","27","40238","31","yes","1024"
"87.5","yes","87.5","1289.625","1289.625","white","no","xpyriment","Ich habe die obigen Informationen gelesen und verstanden.","legacy","legacy","0","uniform","1","0","0","undefined","undefined","1","j","2","1","NA","0","1","0","0","0","0","0","0","0","0","41","41","41","0","0","0","NA","0","0","2","0","0","0","2","41","41","41","41","41","Wed Oct 25 10:46:49 2017","Forced-choice identification task with a practice and an experimental phase","yes","NAP_GER_AA_4blocks_noglides.osexp","/Users/aviadalbert/Documents/Academisch/UoC/Dissertation/Experiment/OpenSesame/NAP-FC/NAP_GER_AA_4blocks_noglides","yes","no","sans","no","20","no","black","no","Weiter","yes","768","legacy","31","9","0","/Users/aviadalbert/Documents/Academisch/UoC/Dissertation/Experiment/OpenSesame/NAP-FC/NAP_GER_AA_4blocks_noglides/subject-14.csv","xpyriment","Jazzy James","3.1.9","yes","yes","59a800d99ad5a1025d81bb03","59a801616c613b0251691de0","no","no","0","j","f","space","NA","space","space","j","1030","2875","20590","NA","14095","35584","1030","2","legacy","1024","1","44100","-16","experiment","efsal","2","0","1","0","1","English, French, Dutch","14","","even","4327555","4306438","NA","NA","4330431","4327551","NA","3342999","4327087","3343000","3342999","4209285","4223385","4428495","4426991","4429527","4268969","4259266","4306438","NA","4148111","4196156","4304789","4259034","4327555","4259270","NA","4428494","4428495","4363335","4363332","4426987","NAP perception","28","41268","32","yes","1024"
"84.8484848485","yes","84.8484848485","1296.75757576","1296.75757576","white","no","xpyriment","Ich habe die obigen Informationen gelesen und verstanden.","legacy","legacy","0","uniform","0","0","0","undefined","undefined","0","f","2","1","NA","0","1","0","0","0","0","0","0","0","0","42","42","42","0","0","0","NA","0","0","2","0","0","0","2","42","42","42","42","42","Wed Oct 25 10:46:49 2017","Forced-choice identification task with a practice and an experimental phase","yes","NAP_GER_AA_4blocks_noglides.osexp","/Users/aviadalbert/Documents/Academisch/UoC/Dissertation/Experiment/OpenSesame/NAP-FC/NAP_GER_AA_4blocks_noglides","yes","no","sans","no","20","no","black","no","Weiter","yes","768","legacy","32","9","0","/Users/aviadalbert/Documents/Academisch/UoC/Dissertation/Experiment/OpenSesame/NAP-FC/NAP_GER_AA_4blocks_noglides/subject-14.csv","xpyriment","Jazzy James","3.1.9","yes","yes","59a800d99ad5a1025d81bb03","59a801616c613b0251691de0","no","no","0","j","f","space","NA","space","space","j","1525","2875","20590","NA","14095","35584","1525","2","legacy","1024","1","44100","-16","experiment","nval","2","0","1","0","1","English, French, Dutch","14","","even","4327555","4306438","NA","NA","4330431","4327551","NA","3342999","4327087","3343000","3342999","4209285","4223385","4431293","4429790","4432820","4268969","4259266","4306438","NA","4148111","4196156","4304789","4259034","4327555","4259270","NA","4431293","4431293","4363335","4363332","4429786","NAP perception","28","42793","33","yes","1024"
"85.2941176471","yes","85.2941176471","1286.08823529","1286.08823529","white","no","xpyriment","Ich habe die obigen Informationen gelesen und verstanden.","legacy","legacy","0","uniform","1","0","0","undefined","undefined","1","f","2","1","NA","0","1","0","0","0","0","0","0","0","0","43","43","43","0","0","0","NA","0","0","2","0","0","0","2","43","43","43","43","43","Wed Oct 25 10:46:49 2017","Forced-choice identification task with a practice and an experimental phase","yes","NAP_GER_AA_4blocks_noglides.osexp","/Users/aviadalbert/Documents/Academisch/UoC/Dissertation/Experiment/OpenSesame/NAP-FC/NAP_GER_AA_4blocks_noglides","yes","no","sans","no","20","no","black","no","Weiter","yes","768","legacy","33","9","0","/Users/aviadalbert/Documents/Academisch/UoC/Dissertation/Experiment/OpenSesame/NAP-FC/NAP_GER_AA_4blocks_noglides/subject-14.csv","xpyriment","Jazzy James","3.1.9","yes","yes","59a800d99ad5a1025d81bb03","59a801616c613b0251691de0","no","no","0","f","f","space","NA","space","space","f","934","2875","20590","NA","14095","35584","934","2","legacy","1024","1","44100","-16","experiment","ʃpal","2","0","1","0","1","English, French, Dutch","14","","even","4327555","4306438","NA","NA","4330431","4327551","NA","3342999","4327087","3343000","3342999","4209285","4223385","4434597","4433094","4435533","4268969","4259266","4306438","NA","4148111","4196156","4304789","4259034","4327555","4259270","NA","4434597","4434597","4363335","4363332","4433090","NAP perception","29","43727","34","yes","1024"
"85.7142857143","yes","85.7142857143","1278.77142857","1278.77142857","white","no","xpyriment","Ich habe die obigen Informationen gelesen und verstanden.","legacy","legacy","0","uniform","1","0","0","undefined","undefined","1","j","2","1","NA","0","1","0","0","0","0","0","0","0","0","44","44","44","0","0","0","NA","0","0","2","0","0","0","2","44","44","44","44","44","Wed Oct 25 10:46:49 2017","Forced-choice identification task with a practice and an experimental phase","yes","NAP_GER_AA_4blocks_noglides.osexp","/Users/aviadalbert/Documents/Academisch/UoC/Dissertation/Experiment/OpenSesame/NAP-FC/NAP_GER_AA_4blocks_noglides","yes","no","sans","no","20","no","black","no","Weiter","yes","768","legacy","34","9","0","/Users/aviadalbert/Documents/Academisch/UoC/Dissertation/Experiment/OpenSesame/NAP-FC/NAP_GER_AA_4blocks_noglides/subject-14.csv","xpyriment","Jazzy James","3.1.9","yes","yes","59a800d99ad5a1025d81bb03","59a801616c613b0251691de0","no","no","0","j","f","space","NA","space","space","j","1030","2875","20590","NA","14095","35584","1030","2","legacy","1024","1","44100","-16","experiment","lemal","2","0","1","0","1","English, French, Dutch","14","","even","4327555","4306438","NA","NA","4330431","4327551","NA","3342999","4327087","3343000","3342999","4209285","4223385","4437304","4435801","4438336","4268969","4259266","4306438","NA","4148111","4196156","4304789","4259034","4327555","4259270","NA","4437304","4437304","4363335","4363332","4435797","NAP perception","30","44757","35","yes","1024"
"86.1111111111","yes","86.1111111111","1269.27777778","1269.27777778","white","no","xpyriment","Ich habe die obigen Informationen gelesen und verstanden.","legacy","legacy","0","uniform","1","0","0","undefined","undefined","1","j","2","1","NA","0","1","0","0","0","0","0","0","0","0","45","45","45","0","0","0","NA","0","0","2","0","0","0","2","45","45","45","45","45","Wed Oct 25 10:46:49 2017","Forced-choice identification task with a practice and an experimental phase","yes","NAP_GER_AA_4blocks_noglides.osexp","/Users/aviadalbert/Documents/Academisch/UoC/Dissertation/Experiment/OpenSesame/NAP-FC/NAP_GER_AA_4blocks_noglides","yes","no","sans","no","20","no","black","no","Weiter","yes","768","legacy","35","9","0","/Users/aviadalbert/Documents/Academisch/UoC/Dissertation/Experiment/OpenSesame/NAP-FC/NAP_GER_AA_4blocks_noglides/subject-14.csv","xpyriment","Jazzy James","3.1.9","yes","yes","59a800d99ad5a1025d81bb03","59a801616c613b0251691de0","no","no","0","j","f","space","NA","space","space","j","937","2875","20590","NA","14095","35584","937","2","legacy","1024","1","44100","-16","experiment","enmal","2","0","1","0","1","English, French, Dutch","14","","even","4327555","4306438","NA","NA","4330431","4327551","NA","3342999","4327087","3343000","3342999","4209285","4223385","4440117","4438613","4441055","4268969","4259266","4306438","NA","4148111","4196156","4304789","4259034","4327555","4259270","NA","4440116","4440117","4363335","4363332","4438609","NAP perception","31","45694","36","yes","1024"
"86.4864864865","yes","86.4864864865","1270.32432432","1270.32432432","white","no","xpyriment","Ich habe die obigen Informationen gelesen und verstanden.","legacy","legacy","0","uniform","1","0","0","undefined","undefined","1","j","2","1","NA","0","1","0","0","0","0","0","0","0","0","46","46","46","0","0","0","NA","0","0","2","0","0","0","2","46","46","46","46","46","Wed Oct 25 10:46:49 2017","Forced-choice identification task with a practice and an experimental phase","yes","NAP_GER_AA_4blocks_noglides.osexp","/Users/aviadalbert/Documents/Academisch/UoC/Dissertation/Experiment/OpenSesame/NAP-FC/NAP_GER_AA_4blocks_noglides","yes","no","sans","no","20","no","black","no","Weiter","yes","768","legacy","36","9","0","/Users/aviadalbert/Documents/Academisch/UoC/Dissertation/Experiment/OpenSesame/NAP-FC/NAP_GER_AA_4blocks_noglides/subject-14.csv","xpyriment","Jazzy James","3.1.9","yes","yes","59a800d99ad5a1025d81bb03","59a801616c613b0251691de0","no","no","0","j","f","space","NA","space","space","j","1308","2875","20590","NA","14095","35584","1308","2","legacy","1024","1","44100","-16","experiment","zemal","2","0","1","0","1","English, French, Dutch","14","","even","4327555","4306438","NA","NA","4330431","4327551","NA","3342999","4327087","3343000","3342999","4209285","4223385","4442841","4441336","4444151","4268969","4259266","4306438","NA","4148111","4196156","4304789","4259034","4327555","4259270","NA","4442841","4442841","4363335","4363332","4441332","NAP perception","32","47002","37","yes","1024"
"84.2105263158","yes","84.2105263158","1268.23684211","1268.23684211","white","no","xpyriment","Ich habe die obigen Informationen gelesen und verstanden.","legacy","legacy","0","uniform","0","0","0","undefined","undefined","0","f","2","1","NA","0","1","0","0","0","0","0","0","0","0","47","47","47","0","0","0","NA","0","0","2","0","0","0","2","47","47","47","47","47","Wed Oct 25 10:46:49 2017","Forced-choice identification task with a practice and an experimental phase","yes","NAP_GER_AA_4blocks_noglides.osexp","/Users/aviadalbert/Documents/Academisch/UoC/Dissertation/Experiment/OpenSesame/NAP-FC/NAP_GER_AA_4blocks_noglides","yes","no","sans","no","20","no","black","no","Weiter","yes","768","legacy","37","9","0","/Users/aviadalbert/Documents/Academisch/UoC/Dissertation/Experiment/OpenSesame/NAP-FC/NAP_GER_AA_4blocks_noglides/subject-14.csv","xpyriment","Jazzy James","3.1.9","yes","yes","59a800d99ad5a1025d81bb03","59a801616c613b0251691de0","no","no","0","j","f","space","NA","space","space","j","1191","2875","20590","NA","14095","35584","1191","2","legacy","1024","1","44100","-16","experiment","nmal","2","0","1","0","1","English, French, Dutch","14","","even","4327555","4306438","NA","NA","4330431","4327551","NA","3342999","4327087","3343000","3342999","4209285","4223385","4445929","4444422","4447122","4268969","4259266","4306438","NA","4148111","4196156","4304789","4259034","4327555","4259270","NA","4445928","4445929","4363335","4363332","4444418","NAP perception","32","48193","38","yes","1024"
"84.6153846154","yes","84.6153846154","1262.33333333","1262.33333333","white","no","xpyriment","Ich habe die obigen Informationen gelesen und verstanden.","legacy","legacy","0","uniform","1","0","0","undefined","undefined","1","f","2","1","NA","0","1","0","0","0","0","0","0","0","0","48","48","48","0","0","0","NA","0","0","2","0","0","0","2","48","48","48","48","48","Wed Oct 25 10:46:49 2017","Forced-choice identification task with a practice and an experimental phase","yes","NAP_GER_AA_4blocks_noglides.osexp","/Users/aviadalbert/Documents/Academisch/UoC/Dissertation/Experiment/OpenSesame/NAP-FC/NAP_GER_AA_4blocks_noglides","yes","no","sans","no","20","no","black","no","Weiter","yes","768","legacy","38","9","0","/Users/aviadalbert/Documents/Academisch/UoC/Dissertation/Experiment/OpenSesame/NAP-FC/NAP_GER_AA_4blocks_noglides/subject-14.csv","xpyriment","Jazzy James","3.1.9","yes","yes","59a800d99ad5a1025d81bb03","59a801616c613b0251691de0","no","no","0","f","f","space","NA","space","space","f","1038","2875","20590","NA","14095","35584","1038","2","legacy","1024","1","44100","-16","experiment","zval","2","0","1","0","1","English, French, Dutch","14","","even","4327555","4306438","NA","NA","4330431","4327551","NA","3342999","4327087","3343000","3342999","4209285","4223385","4448919","4447414","4449958","4268969","4259266","4306438","NA","4148111","4196156","4304789","4259034","4327555","4259270","NA","4448919","4448919","4363335","4363332","4447410","NAP perception","33","49231","39","yes","1024"
"85","yes","85","1259.325","1259.325","white","no","xpyriment","Ich habe die obigen Informationen gelesen und verstanden.","legacy","legacy","0","uniform","1","0","0","undefined","undefined","1","j","2","1","NA","0","1","0","0","0","0","0","0","0","0","49","49","49","0","0","0","NA","0","0","2","0","0","0","2","49","49","49","49","49","Wed Oct 25 10:46:49 2017","Forced-choice identification task with a practice and an experimental phase","yes","NAP_GER_AA_4blocks_noglides.osexp","/Users/aviadalbert/Documents/Academisch/UoC/Dissertation/Experiment/OpenSesame/NAP-FC/NAP_GER_AA_4blocks_noglides","yes","no","sans","no","20","no","black","no","Weiter","yes","768","legacy","39","9","0","/Users/aviadalbert/Documents/Academisch/UoC/Dissertation/Experiment/OpenSesame/NAP-FC/NAP_GER_AA_4blocks_noglides/subject-14.csv","xpyriment","Jazzy James","3.1.9","yes","yes","59a800d99ad5a1025d81bb03","59a801616c613b0251691de0","no","no","0","j","f","space","NA","space","space","j","1142","2875","20590","NA","14095","35584","1142","2","legacy","1024","1","44100","-16","experiment","velal","2","0","1","0","1","English, French, Dutch","14","","even","4327555","4306438","NA","NA","4330431","4327551","NA","3342999","4327087","3343000","3342999","4209285","4223385","4451735","4450229","4452879","4268969","4259266","4306438","NA","4148111","4196156","4304789","4259034","4327555","4259270","NA","4451735","4451735","4363335","4363332","4450225","NAP perception","34","50373","40","yes","1024"
"85.3658536585","yes","85.3658536585","1248.19512195","1248.19512195","white","no","xpyriment","Ich habe die obigen Informationen gelesen und verstanden.","legacy","legacy","0","uniform","1","0","0","undefined","undefined","1","j","2","1","NA","0","1","0","0","0","0","0","0","0","0","50","50","50","0","0","0","NA","0","0","2","0","0","0","2","50","50","50","50","50","Wed Oct 25 10:46:49 2017","Forced-choice identification task with a practice and an experimental phase","yes","NAP_GER_AA_4blocks_noglides.osexp","/Users/aviadalbert/Documents/Academisch/UoC/Dissertation/Experiment/OpenSesame/NAP-FC/NAP_GER_AA_4blocks_noglides","yes","no","sans","no","20","no","black","no","Weiter","yes","768","legacy","40","9","0","/Users/aviadalbert/Documents/Academisch/UoC/Dissertation/Experiment/OpenSesame/NAP-FC/NAP_GER_AA_4blocks_noglides/subject-14.csv","xpyriment","Jazzy James","3.1.9","yes","yes","59a800d99ad5a1025d81bb03","59a801616c613b0251691de0","no","no","0","j","f","space","NA","space","space","j","803","2875","20590","NA","14095","35584","803","2","legacy","1024","1","44100","-16","experiment","lekal","2","0","1","0","1","English, French, Dutch","14","","even","4327555","4306438","NA","NA","4330431","4327551","NA","3342999","4327087","3343000","3342999","4209285","4223385","4454649","4453146","4455454","4268969","4259266","4306438","NA","4148111","4196156","4304789","4259034","4327555","4259270","NA","4454649","4454649","4363335","4363332","4453142","NAP perception","35","51176","41","yes","1024"
"85.7142857143","yes","85.7142857143","1245.11904762","1245.11904762","white","no","xpyriment","Ich habe die obigen Informationen gelesen und verstanden.","legacy","legacy","0","uniform","1","0","0","undefined","undefined","1","f","2","1","NA","0","1","0","0","0","0","0","0","0","0","51","51","51","0","0","0","NA","0","0","2","0","0","0","2","51","51","51","51","51","Wed Oct 25 10:46:49 2017","Forced-choice identification task with a practice and an experimental phase","yes","NAP_GER_AA_4blocks_noglides.osexp","/Users/aviadalbert/Documents/Academisch/UoC/Dissertation/Experiment/OpenSesame/NAP-FC/NAP_GER_AA_4blocks_noglides","yes","no","sans","no","20","no","black","no","Weiter","yes","768","legacy","41","9","0","/Users/aviadalbert/Documents/Academisch/UoC/Dissertation/Experiment/OpenSesame/NAP-FC/NAP_GER_AA_4blocks_noglides/subject-14.csv","xpyriment","Jazzy James","3.1.9","yes","yes","59a800d99ad5a1025d81bb03","59a801616c613b0251691de0","no","no","0","f","f","space","NA","space","space","f","1119","2875","20590","NA","14095","35584","1119","2","legacy","1024","1","44100","-16","experiment","nmal","2","0","1","0","1","English, French, Dutch","14","","even","4327555","4306438","NA","NA","4330431","4327551","NA","3342999","4327087","3343000","3342999","4209285","4223385","4457231","4455728","4458351","4268969","4259266","4306438","NA","4148111","4196156","4304789","4259034","4327555","4259270","NA","4457231","4457231","4363335","4363332","4455724","NAP perception","36","52295","42","yes","1024"
"86.0465116279","yes","86.0465116279","1254.46511628","1254.46511628","white","no","xpyriment","Ich habe die obigen Informationen gelesen und verstanden.","legacy","legacy","0","uniform","1","0","0","undefined","undefined","1","f","2","1","NA","0","1","0","0","0","0","0","0","0","0","52","52","52","0","0","0","NA","0","0","2","0","0","0","2","52","52","52","52","52","Wed Oct 25 10:46:49 2017","Forced-choice identification task with a practice and an experimental phase","yes","NAP_GER_AA_4blocks_noglides.osexp","/Users/aviadalbert/Documents/Academisch/UoC/Dissertation/Experiment/OpenSesame/NAP-FC/NAP_GER_AA_4blocks_noglides","yes","no","sans","no","20","no","black","no","Weiter","yes","768","legacy","42","9","0","/Users/aviadalbert/Documents/Academisch/UoC/Dissertation/Experiment/OpenSesame/NAP-FC/NAP_GER_AA_4blocks_noglides/subject-14.csv","xpyriment","Jazzy James","3.1.9","yes","yes","59a800d99ad5a1025d81bb03","59a801616c613b0251691de0","no","no","0","f","f","space","NA","space","space","f","1647","2875","20590","NA","14095","35584","1647","2","legacy","1024","1","44100","-16","experiment","msal","2","0","1","0","1","English, French, Dutch","14","","even","4327555","4306438","NA","NA","4330431","4327551","NA","3342999","4327087","3343000","3342999","4209285","4223385","4460120","4458617","4461768","4268969","4259266","4306438","NA","4148111","4196156","4304789","4259034","4327555","4259270","NA","4460120","4460120","4363335","4363332","4458613","NAP perception","37","53942","43","yes","1024"
"86.3636363636","yes","86.3636363636","1255.20454545","1255.20454545","white","no","xpyriment","Ich habe die obigen Informationen gelesen und verstanden.","legacy","legacy","0","uniform","1","0","0","undefined","undefined","1","j","2","1","NA","0","1","0","0","0","0","0","0","0","0","53","53","53","0","0","0","NA","0","0","2","0","0","0","2","53","53","53","53","53","Wed Oct 25 10:46:49 2017","Forced-choice identification task with a practice and an experimental phase","yes","NAP_GER_AA_4blocks_noglides.osexp","/Users/aviadalbert/Documents/Academisch/UoC/Dissertation/Experiment/OpenSesame/NAP-FC/NAP_GER_AA_4blocks_noglides","yes","no","sans","no","20","no","black","no","Weiter","yes","768","legacy","43","9","0","/Users/aviadalbert/Documents/Academisch/UoC/Dissertation/Experiment/OpenSesame/NAP-FC/NAP_GER_AA_4blocks_noglides/subject-14.csv","xpyriment","Jazzy James","3.1.9","yes","yes","59a800d99ad5a1025d81bb03","59a801616c613b0251691de0","no","no","0","j","f","space","NA","space","space","j","1287","2875","20590","NA","14095","35584","1287","2","legacy","1024","1","44100","-16","experiment","elval","2","0","1","0","1","English, French, Dutch","14","","even","4327555","4306438","NA","NA","4330431","4327551","NA","3342999","4327087","3343000","3342999","4209285","4223385","4463543","4462036","4464831","4268969","4259266","4306438","NA","4148111","4196156","4304789","4259034","4327555","4259270","NA","4463543","4463543","4363335","4363332","4462032","NAP perception","38","55229","44","yes","1024"
"86.6666666667","yes","86.6666666667","1248.51111111","1248.51111111","white","no","xpyriment","Ich habe die obigen Informationen gelesen und verstanden.","legacy","legacy","0","uniform","1","0","0","undefined","undefined","1","j","2","1","NA","0","1","0","0","0","0","0","0","0","0","54","54","54","0","0","0","NA","0","0","2","0","0","0","2","54","54","54","54","54","Wed Oct 25 10:46:49 2017","Forced-choice identification task with a practice and an experimental phase","yes","NAP_GER_AA_4blocks_noglides.osexp","/Users/aviadalbert/Documents/Academisch/UoC/Dissertation/Experiment/OpenSesame/NAP-FC/NAP_GER_AA_4blocks_noglides","yes","no","sans","no","20","no","black","no","Weiter","yes","768","legacy","44","9","0","/Users/aviadalbert/Documents/Academisch/UoC/Dissertation/Experiment/OpenSesame/NAP-FC/NAP_GER_AA_4blocks_noglides/subject-14.csv","xpyriment","Jazzy James","3.1.9","yes","yes","59a800d99ad5a1025d81bb03","59a801616c613b0251691de0","no","no","0","j","f","space","NA","space","space","j","954","2875","20590","NA","14095","35584","954","2","legacy","1024","1","44100","-16","experiment","nemal","2","0","1","0","1","English, French, Dutch","14","","even","4327555","4306438","NA","NA","4330431","4327551","NA","3342999","4327087","3343000","3342999","4209285","4223385","4466601","4465097","4467556","4268969","4259266","4306438","NA","4148111","4196156","4304789","4259034","4327555","4259270","NA","4466600","4466601","4363335","4363332","4465093","NAP perception","39","56183","45","yes","1024"
"86.9565217391","yes","86.9565217391","1240.30434783","1240.30434783","white","no","xpyriment","Ich habe die obigen Informationen gelesen und verstanden.","legacy","legacy","0","uniform","1","0","0","undefined","undefined","1","j","2","1","NA","0","1","0","0","0","0","0","0","0","0","55","55","55","0","0","0","NA","0","0","2","0","0","0","2","55","55","55","55","55","Wed Oct 25 10:46:49 2017","Forced-choice identification task with a practice and an experimental phase","yes","NAP_GER_AA_4blocks_noglides.osexp","/Users/aviadalbert/Documents/Academisch/UoC/Dissertation/Experiment/OpenSesame/NAP-FC/NAP_GER_AA_4blocks_noglides","yes","no","sans","no","20","no","black","no","Weiter","yes","768","legacy","45","9","0","/Users/aviadalbert/Documents/Academisch/UoC/Dissertation/Experiment/OpenSesame/NAP-FC/NAP_GER_AA_4blocks_noglides/subject-14.csv","xpyriment","Jazzy James","3.1.9","yes","yes","59a800d99ad5a1025d81bb03","59a801616c613b0251691de0","no","no","0","j","f","space","NA","space","space","j","871","2875","20590","NA","14095","35584","871","2","legacy","1024","1","44100","-16","experiment","lepal","2","0","1","0","1","English, French, Dutch","14","","even","4327555","4306438","NA","NA","4330431","4327551","NA","3342999","4327087","3343000","3342999","4209285","4223385","4469326","4467823","4470198","4268969","4259266","4306438","NA","4148111","4196156","4304789","4259034","4327555","4259270","NA","4469326","4469326","4363335","4363332","4467819","NAP perception","40","57054","46","yes","1024"
"87.2340425532","yes","87.2340425532","1236.87234043","1236.87234043","white","no","xpyriment","Ich habe die obigen Informationen gelesen und verstanden.","legacy","legacy","0","uniform","1","0","0","undefined","undefined","1","j","2","1","NA","0","1","0","0","0","0","0","0","0","0","56","56","56","0","0","0","NA","0","0","2","0","0","0","2","56","56","56","56","56","Wed Oct 25 10:46:49 2017","Forced-choice identification task with a practice and an experimental phase","yes","NAP_GER_AA_4blocks_noglides.osexp","/Users/aviadalbert/Documents/Academisch/UoC/Dissertation/Experiment/OpenSesame/NAP-FC/NAP_GER_AA_4blocks_noglides","yes","no","sans","no","20","no","black","no","Weiter","yes","768","legacy","46","9","0","/Users/aviadalbert/Documents/Academisch/UoC/Dissertation/Experiment/OpenSesame/NAP-FC/NAP_GER_AA_4blocks_noglides/subject-14.csv","xpyriment","Jazzy James","3.1.9","yes","yes","59a800d99ad5a1025d81bb03","59a801616c613b0251691de0","no","no","0","j","f","space","NA","space","space","j","1079","2875","20590","NA","14095","35584","1079","2","legacy","1024","1","44100","-16","experiment","melal","2","0","1","0","1","English, French, Dutch","14","","even","4327555","4306438","NA","NA","4330431","4327551","NA","3342999","4327087","3343000","3342999","4209285","4223385","4471974","4470469","4473054","4268969","4259266","4306438","NA","4148111","4196156","4304789","4259034","4327555","4259270","NA","4471973","4471974","4363335","4363332","4470466","NAP perception","41","58133","47","yes","1024"
"87.5","yes","87.5","1231.08333333","1231.08333333","white","no","xpyriment","Ich habe die obigen Informationen gelesen und verstanden.","legacy","legacy","0","uniform","1","0","0","undefined","undefined","1","f","2","1","NA","0","1","0","0","0","0","0","0","0","0","57","57","57","0","0","0","NA","0","0","2","0","0","0","2","57","57","57","57","57","Wed Oct 25 10:46:49 2017","Forced-choice identification task with a practice and an experimental phase","yes","NAP_GER_AA_4blocks_noglides.osexp","/Users/aviadalbert/Documents/Academisch/UoC/Dissertation/Experiment/OpenSesame/NAP-FC/NAP_GER_AA_4blocks_noglides","yes","no","sans","no","20","no","black","no","Weiter","yes","768","legacy","47","9","0","/Users/aviadalbert/Documents/Academisch/UoC/Dissertation/Experiment/OpenSesame/NAP-FC/NAP_GER_AA_4blocks_noglides/subject-14.csv","xpyriment","Jazzy James","3.1.9","yes","yes","59a800d99ad5a1025d81bb03","59a801616c613b0251691de0","no","no","0","f","f","space","NA","space","space","f","959","2875","20590","NA","14095","35584","959","2","legacy","1024","1","44100","-16","experiment","ʃmal","2","0","1","0","1","English, French, Dutch","14","","even","4327555","4306438","NA","NA","4330431","4327551","NA","3342999","4327087","3343000","3342999","4209285","4223385","4474840","4473333","4475801","4268969","4259266","4306438","NA","4148111","4196156","4304789","4259034","4327555","4259270","NA","4474839","4474840","4363335","4363332","4473329","NAP perception","42","59092","48","yes","1024"
"85.7142857143","yes","85.7142857143","1230.20408163","1230.20408163","white","no","xpyriment","Ich habe die obigen Informationen gelesen und verstanden.","legacy","legacy","0","uniform","0","0","0","undefined","undefined","0","f","2","1","NA","0","1","0","0","0","0","0","0","0","0","58","58","58","0","0","0","NA","0","0","2","0","0","0","2","58","58","58","58","58","Wed Oct 25 10:46:49 2017","Forced-choice identification task with a practice and an experimental phase","yes","NAP_GER_AA_4blocks_noglides.osexp","/Users/aviadalbert/Documents/Academisch/UoC/Dissertation/Experiment/OpenSesame/NAP-FC/NAP_GER_AA_4blocks_noglides","yes","no","sans","no","20","no","black","no","Weiter","yes","768","legacy","48","9","0","/Users/aviadalbert/Documents/Academisch/UoC/Dissertation/Experiment/OpenSesame/NAP-FC/NAP_GER_AA_4blocks_noglides/subject-14.csv","xpyriment","Jazzy James","3.1.9","yes","yes","59a800d99ad5a1025d81bb03","59a801616c613b0251691de0","no","no","0","j","f","space","NA","space","space","j","1188","2875","20590","NA","14095","35584","1188","2","legacy","1024","1","44100","-16","experiment","mzal","2","0","1","0","1","English, French, Dutch","14","","even","4327555","4306438","NA","NA","4330431","4327551","NA","3342999","4327087","3343000","3342999","4209285","4223385","4477582","4476078","4478771","4268969","4259266","4306438","NA","4148111","4196156","4304789","4259034","4327555","4259270","NA","4477581","4477582","4363335","4363332","4476074","NAP perception","42","60280","49","yes","1024"
"84","yes","84","1241.82","1241.82","white","no","xpyriment","Ich habe die obigen Informationen gelesen und verstanden.","legacy","legacy","0","uniform","0","0","0","undefined","undefined","0","f","2","1","NA","0","1","0","0","0","0","0","0","0","0","59","59","59","0","0","0","NA","0","0","2","0","0","0","2","59","59","59","59","59","Wed Oct 25 10:46:49 2017","Forced-choice identification task with a practice and an experimental phase","yes","NAP_GER_AA_4blocks_noglides.osexp","/Users/aviadalbert/Documents/Academisch/UoC/Dissertation/Experiment/OpenSesame/NAP-FC/NAP_GER_AA_4blocks_noglides","yes","no","sans","no","20","no","black","no","Weiter","yes","768","legacy","49","9","0","/Users/aviadalbert/Documents/Academisch/UoC/Dissertation/Experiment/OpenSesame/NAP-FC/NAP_GER_AA_4blocks_noglides/subject-14.csv","xpyriment","Jazzy James","3.1.9","yes","yes","59a800d99ad5a1025d81bb03","59a801616c613b0251691de0","no","no","0","j","f","space","NA","space","space","j","1811","2875","20590","NA","14095","35584","1811","2","legacy","1024","1","44100","-16","experiment","fsal","2","0","1","0","1","English, French, Dutch","14","","even","4327555","4306438","NA","NA","4330431","4327551","NA","3342999","4327087","3343000","3342999","4209285","4223385","4480563","4479055","4482376","4268969","4259266","4306438","NA","4148111","4196156","4304789","4259034","4327555","4259270","NA","4480563","4480563","4363335","4363332","4479051","NAP perception","42","62091","50","yes","1024"
"82.3529411765","yes","82.3529411765","1244.07843137","1244.07843137","white","no","xpyriment","Ich habe die obigen Informationen gelesen und verstanden.","legacy","legacy","0","uniform","0","0","0","undefined","undefined","0","f","2","1","NA","0","1","0","0","0","0","0","0","0","0","60","60","60","0","0","0","NA","0","0","2","0","0","0","2","60","60","60","60","60","Wed Oct 25 10:46:49 2017","Forced-choice identification task with a practice and an experimental phase","yes","NAP_GER_AA_4blocks_noglides.osexp","/Users/aviadalbert/Documents/Academisch/UoC/Dissertation/Experiment/OpenSesame/NAP-FC/NAP_GER_AA_4blocks_noglides","yes","no","sans","no","20","no","black","no","Weiter","yes","768","legacy","50","9","0","/Users/aviadalbert/Documents/Academisch/UoC/Dissertation/Experiment/OpenSesame/NAP-FC/NAP_GER_AA_4blocks_noglides/subject-14.csv","xpyriment","Jazzy James","3.1.9","yes","yes","59a800d99ad5a1025d81bb03","59a801616c613b0251691de0","no","no","0","j","f","space","NA","space","space","j","1357","2875","20590","NA","14095","35584","1357","2","legacy","1024","1","44100","-16","experiment","mtal","2","0","1","0","1","English, French, Dutch","14","","even","4327555","4306438","NA","NA","4330431","4327551","NA","3342999","4327087","3343000","3342999","4209285","4223385","4484162","4482658","4485521","4268969","4259266","4306438","NA","4148111","4196156","4304789","4259034","4327555","4259270","NA","4484162","4484162","4363335","4363332","4482654","NAP perception","42","63448","51","yes","1024"
"82.6923076923","yes","82.6923076923","1241.15384615","1241.15384615","white","no","xpyriment","Ich habe die obigen Informationen gelesen und verstanden.","legacy","legacy","0","uniform","1","0","0","undefined","undefined","1","f","2","1","NA","0","1","0","0","0","0","0","0","0","0","61","61","61","0","0","0","NA","0","0","2","0","0","0","2","61","61","61","61","61","Wed Oct 25 10:46:49 2017","Forced-choice identification task with a practice and an experimental phase","yes","NAP_GER_AA_4blocks_noglides.osexp","/Users/aviadalbert/Documents/Academisch/UoC/Dissertation/Experiment/OpenSesame/NAP-FC/NAP_GER_AA_4blocks_noglides","yes","no","sans","no","20","no","black","no","Weiter","yes","768","legacy","51","9","0","/Users/aviadalbert/Documents/Academisch/UoC/Dissertation/Experiment/OpenSesame/NAP-FC/NAP_GER_AA_4blocks_noglides/subject-14.csv","xpyriment","Jazzy James","3.1.9","yes","yes","59a800d99ad5a1025d81bb03","59a801616c613b0251691de0","no","no","0","f","f","space","NA","space","space","f","1092","2875","20590","NA","14095","35584","1092","2","legacy","1024","1","44100","-16","experiment","zmal","2","0","1","0","1","English, French, Dutch","14","","even","4327555","4306438","NA","NA","4330431","4327551","NA","3342999","4327087","3343000","3342999","4209285","4223385","4487297","4485791","4488391","4268969","4259266","4306438","NA","4148111","4196156","4304789","4259034","4327555","4259270","NA","4487297","4487297","4363335","4363332","4485787","NAP perception","43","64540","52","yes","1024"
"83.0188679245","yes","83.0188679245","1235.69811321","1235.69811321","white","no","xpyriment","Ich habe die obigen Informationen gelesen und verstanden.","legacy","legacy","0","uniform","1","0","0","undefined","undefined","1","j","2","1","NA","0","1","0","0","0","0","0","0","0","0","62","62","62","0","0","0","NA","0","0","2","0","0","0","2","62","62","62","62","62","Wed Oct 25 10:46:49 2017","Forced-choice identification task with a practice and an experimental phase","yes","NAP_GER_AA_4blocks_noglides.osexp","/Users/aviadalbert/Documents/Academisch/UoC/Dissertation/Experiment/OpenSesame/NAP-FC/NAP_GER_AA_4blocks_noglides","yes","no","sans","no","20","no","black","no","Weiter","yes","768","legacy","52","9","0","/Users/aviadalbert/Documents/Academisch/UoC/Dissertation/Experiment/OpenSesame/NAP-FC/NAP_GER_AA_4blocks_noglides/subject-14.csv","xpyriment","Jazzy James","3.1.9","yes","yes","59a800d99ad5a1025d81bb03","59a801616c613b0251691de0","no","no","0","j","f","space","NA","space","space","j","952","2875","20590","NA","14095","35584","952","2","legacy","1024","1","44100","-16","experiment","fetal","2","0","1","0","1","English, French, Dutch","14","","even","4327555","4306438","NA","NA","4330431","4327551","NA","3342999","4327087","3343000","3342999","4209285","4223385","4490178","4488672","4491132","4268969","4259266","4306438","NA","4148111","4196156","4304789","4259034","4327555","4259270","NA","4490178","4490178","4363335","4363332","4488668","NAP perception","44","65492","53","yes","1024"
"81.4814814815","yes","81.4814814815","1233.72222222","1233.72222222","white","no","xpyriment","Ich habe die obigen Informationen gelesen und verstanden.","legacy","legacy","0","uniform","0","0","0","undefined","undefined","0","f","2","1","NA","0","1","0","0","0","0","0","0","0","0","63","63","63","0","0","0","NA","0","0","2","0","0","0","2","63","63","63","63","63","Wed Oct 25 10:46:49 2017","Forced-choice identification task with a practice and an experimental phase","yes","NAP_GER_AA_4blocks_noglides.osexp","/Users/aviadalbert/Documents/Academisch/UoC/Dissertation/Experiment/OpenSesame/NAP-FC/NAP_GER_AA_4blocks_noglides","yes","no","sans","no","20","no","black","no","Weiter","yes","768","legacy","53","9","0","/Users/aviadalbert/Documents/Academisch/UoC/Dissertation/Experiment/OpenSesame/NAP-FC/NAP_GER_AA_4blocks_noglides/subject-14.csv","xpyriment","Jazzy James","3.1.9","yes","yes","59a800d99ad5a1025d81bb03","59a801616c613b0251691de0","no","no","0","j","f","space","NA","space","space","j","1129","2875","20590","NA","14095","35584","1129","2","legacy","1024","1","44100","-16","experiment","msal","2","0","1","0","1","English, French, Dutch","14","","even","4327555","4306438","NA","NA","4330431","4327551","NA","3342999","4327087","3343000","3342999","4209285","4223385","4492896","4491391","4494027","4268969","4259266","4306438","NA","4148111","4196156","4304789","4259034","4327555","4259270","NA","4492896","4492896","4363335","4363332","4491387","NAP perception","44","66621","54","yes","1024"
