"acc","accept_status","accuracy","average_response_time","avg_rt","background","bidi","canvas_backend","checkbox_status","clock_backend","color_backend","compensation","coordinates","correct","correct_block_activation","correct_block_exit","correct_instructions_1","correct_instructions_2","correct_keyboard_response","correct_response","count_block_activation","count_block_exit","count_block_info_QA","count_cont_e_block_message","count_e_block_loop","count_e_block_sequence","count_end_of_experiment","count_experiment","count_experimental_loop","count_form_consent","count_info_forms","count_instructions_1","count_instructions_2","count_keyboard_response","count_listen_message","count_logger","count_p_block_loop","count_p_block_sequence","count_p_feedback","count_pause_feedback","count_personal_details_form_1","count_personal_details_form_2","count_post_loop_blank","count_practice_loop","count_pre_e_block_message","count_pre_p_block_message","count_reset_feedback","count_stimulus_image","count_stimulus_sound","count_timeout_message","count_timeout_sound","count_trial_sequence","datetime","description","disable_garbage_collection","experiment_file","experiment_path","expyriment_opengl","font_bold","font_family","font_italic","font_size","font_underline","foreground","form_clicks","form_response","fullscreen","height","keyboard_backend","live_row","live_row_p_block_loop","live_row_practice_loop","logfile","mouse_backend","opensesame_codename","opensesame_version","osf_always_upload_data","osf_always_upload_experiment","osf_datanode_id","osf_id","practice","pygame_doublebuf","repeat_cycle","response","response_block_activation","response_block_exit","response_block_info_QA","response_instructions_1","response_instructions_2","response_keyboard_response","response_time","response_time_block_activation","response_time_block_exit","response_time_block_info_QA","response_time_instructions_1","response_time_instructions_2","response_time_keyboard_response","round_decimals","sampler_backend","sound_buf_size","sound_channels","sound_freq","sound_sample_size","start","stimulus","subject_age","subject_education","subject_gender","subject_german_native","subject_handedness","subject_language_other","subject_nr","subject_other_native_lang","subject_parity","time_block_activation","time_block_exit","time_block_info_QA","time_cont_e_block_message","time_e_block_loop","time_e_block_sequence","time_end_of_experiment","time_experiment","time_experimental_loop","time_form_consent","time_info_forms","time_instructions_1","time_instructions_2","time_keyboard_response","time_listen_message","time_logger","time_p_block_loop","time_p_block_sequence","time_p_feedback","time_pause_feedback","time_personal_details_form_1","time_personal_details_form_2","time_post_loop_blank","time_practice_loop","time_pre_e_block_message","time_pre_p_block_message","time_reset_feedback","time_stimulus_image","time_stimulus_sound","time_timeout_message","time_timeout_sound","time_trial_sequence","title","total_correct","total_response_time","total_responses","uniform_coordinates","width"
"100","yes","100","2040","2040","white","no","xpyriment","Ich habe die obigen Informationen gelesen und verstanden.","legacy","legacy","0","uniform","1","0","NA","undefined","undefined","1","f","0","0","NA","NA","NA","NA","NA","0","0","0","0","0","0","0","0","0","0","0","NA","NA","0","0","0","0","NA","0","0","0","0","0","0","0","Thu Nov  2 14:24:14 2017","Forced-choice identification task with a practice and an experimental phase","yes","NAP_GER_AA_4blocks_noglides.osexp","/Users/aviadalbert/Documents/Academisch/UoC/Dissertation/Experiment/OpenSesame/NAP-FC/NAP_GER_AA_4blocks_noglides","yes","no","sans","no","20","no","black","no","Weiter","yes","768","legacy","0","0","0","/Users/aviadalbert/Documents/Academisch/UoC/Dissertation/Experiment/OpenSesame/NAP-FC/NAP_GER_AA_4blocks_noglides/subject-35.csv","xpyriment","Jazzy James","3.1.9","yes","yes","59a800d99ad5a1025d81bb03","59a801616c613b0251691de0","yes","no","0","f","j","NA","NA","space","f","f","2040","4359","NA","NA","50516","23352","2040","2","legacy","1024","1","44100","-16","experiment","flal","2","0","1","0","1","eng, spanish, portugues,","35","","odd","624425","NA","NA","NA","NA","NA","NA","41341","NA","456218","41341","550258","600778","630513","629006","632555","628785","624422","NA","NA","460759","534654","NA","624189","NA","624425","NA","630513","630513","NA","NA","629002","NAP perception","1","2040","1","yes","1024"
"100","yes","100","1561.5","1561.5","white","no","xpyriment","Ich habe die obigen Informationen gelesen und verstanden.","legacy","legacy","0","uniform","1","0","NA","undefined","undefined","1","j","0","0","NA","NA","NA","NA","NA","0","0","0","0","0","0","1","1","1","0","0","NA","NA","0","0","0","0","NA","0","0","1","1","1","1","1","Thu Nov  2 14:24:14 2017","Forced-choice identification task with a practice and an experimental phase","yes","NAP_GER_AA_4blocks_noglides.osexp","/Users/aviadalbert/Documents/Academisch/UoC/Dissertation/Experiment/OpenSesame/NAP-FC/NAP_GER_AA_4blocks_noglides","yes","no","sans","no","20","no","black","no","Weiter","yes","768","legacy","1","1","0","/Users/aviadalbert/Documents/Academisch/UoC/Dissertation/Experiment/OpenSesame/NAP-FC/NAP_GER_AA_4blocks_noglides/subject-35.csv","xpyriment","Jazzy James","3.1.9","yes","yes","59a800d99ad5a1025d81bb03","59a801616c613b0251691de0","yes","no","0","j","j","NA","NA","space","f","j","1083","4359","NA","NA","50516","23352","1083","2","legacy","1024","1","44100","-16","experiment","lepal","2","0","1","0","1","eng, spanish, portugues,","35","","odd","624425","NA","NA","NA","NA","NA","NA","41341","NA","456218","41341","550258","600778","634360","632857","635445","628785","624422","NA","NA","460759","534654","NA","624189","NA","624425","NA","634360","634360","NA","NA","632853","NAP perception","2","3123","2","yes","1024"
"100","yes","100","1489","1489","white","no","xpyriment","Ich habe die obigen Informationen gelesen und verstanden.","legacy","legacy","0","uniform","1","0","NA","undefined","undefined","1","j","0","0","NA","NA","NA","NA","NA","0","0","0","0","0","0","2","2","2","0","0","NA","NA","0","0","0","0","NA","0","0","2","2","2","2","2","Thu Nov  2 14:24:14 2017","Forced-choice identification task with a practice and an experimental phase","yes","NAP_GER_AA_4blocks_noglides.osexp","/Users/aviadalbert/Documents/Academisch/UoC/Dissertation/Experiment/OpenSesame/NAP-FC/NAP_GER_AA_4blocks_noglides","yes","no","sans","no","20","no","black","no","Weiter","yes","768","legacy","2","2","0","/Users/aviadalbert/Documents/Academisch/UoC/Dissertation/Experiment/OpenSesame/NAP-FC/NAP_GER_AA_4blocks_noglides/subject-35.csv","xpyriment","Jazzy James","3.1.9","yes","yes","59a800d99ad5a1025d81bb03","59a801616c613b0251691de0","yes","no","0","j","j","NA","NA","space","f","j","1344","4359","NA","NA","50516","23352","1344","2","legacy","1024","1","44100","-16","experiment","emtal","2","0","1","0","1","eng, spanish, portugues,","35","","odd","624425","NA","NA","NA","NA","NA","NA","41341","NA","456218","41341","550258","600778","637229","635725","638575","628785","624422","NA","NA","460759","534654","NA","624189","NA","624425","NA","637229","637229","NA","NA","635721","NAP perception","3","4467","3","yes","1024"
"100","yes","100","1433.25","1433.25","white","no","xpyriment","Ich habe die obigen Informationen gelesen und verstanden.","legacy","legacy","0","uniform","1","0","NA","undefined","undefined","1","f","0","0","NA","NA","NA","NA","NA","0","0","0","0","0","0","3","3","3","0","0","NA","NA","0","0","0","0","NA","0","0","3","3","3","3","3","Thu Nov  2 14:24:14 2017","Forced-choice identification task with a practice and an experimental phase","yes","NAP_GER_AA_4blocks_noglides.osexp","/Users/aviadalbert/Documents/Academisch/UoC/Dissertation/Experiment/OpenSesame/NAP-FC/NAP_GER_AA_4blocks_noglides","yes","no","sans","no","20","no","black","no","Weiter","yes","768","legacy","3","3","0","/Users/aviadalbert/Documents/Academisch/UoC/Dissertation/Experiment/OpenSesame/NAP-FC/NAP_GER_AA_4blocks_noglides/subject-35.csv","xpyriment","Jazzy James","3.1.9","yes","yes","59a800d99ad5a1025d81bb03","59a801616c613b0251691de0","yes","no","0","f","j","NA","NA","space","f","f","1266","4359","NA","NA","50516","23352","1266","2","legacy","1024","1","44100","-16","experiment","ʃpal","2","0","1","0","1","eng, spanish, portugues,","35","","odd","624425","NA","NA","NA","NA","NA","NA","41341","NA","456218","41341","550258","600778","640383","638879","641650","628785","624422","NA","NA","460759","534654","NA","624189","NA","624425","NA","640383","640383","NA","NA","638875","NAP perception","4","5733","4","yes","1024"
"100","yes","100","1365","1365","white","no","xpyriment","Ich habe die obigen Informationen gelesen und verstanden.","legacy","legacy","0","uniform","1","0","NA","undefined","undefined","1","j","0","0","NA","NA","NA","NA","NA","0","0","0","0","0","0","4","4","4","0","0","NA","NA","0","0","0","0","NA","0","0","4","4","4","4","4","Thu Nov  2 14:24:14 2017","Forced-choice identification task with a practice and an experimental phase","yes","NAP_GER_AA_4blocks_noglides.osexp","/Users/aviadalbert/Documents/Academisch/UoC/Dissertation/Experiment/OpenSesame/NAP-FC/NAP_GER_AA_4blocks_noglides","yes","no","sans","no","20","no","black","no","Weiter","yes","768","legacy","4","4","0","/Users/aviadalbert/Documents/Academisch/UoC/Dissertation/Experiment/OpenSesame/NAP-FC/NAP_GER_AA_4blocks_noglides/subject-35.csv","xpyriment","Jazzy James","3.1.9","yes","yes","59a800d99ad5a1025d81bb03","59a801616c613b0251691de0","yes","no","0","j","j","NA","NA","space","f","j","1092","4359","NA","NA","50516","23352","1092","2","legacy","1024","1","44100","-16","experiment","nefal","2","0","1","0","1","eng, spanish, portugues,","35","","odd","624425","NA","NA","NA","NA","NA","NA","41341","NA","456218","41341","550258","600778","643431","641927","644524","628785","624422","NA","NA","460759","534654","NA","624189","NA","624425","NA","643431","643431","NA","NA","641923","NAP perception","5","6825","5","yes","1024"
"100","yes","100","1316.66666667","1316.66666667","white","no","xpyriment","Ich habe die obigen Informationen gelesen und verstanden.","legacy","legacy","0","uniform","1","0","NA","undefined","undefined","1","f","0","0","NA","NA","NA","NA","NA","0","0","0","0","0","0","5","5","5","0","0","NA","NA","0","0","0","0","NA","0","0","5","5","5","5","5","Thu Nov  2 14:24:14 2017","Forced-choice identification task with a practice and an experimental phase","yes","NAP_GER_AA_4blocks_noglides.osexp","/Users/aviadalbert/Documents/Academisch/UoC/Dissertation/Experiment/OpenSesame/NAP-FC/NAP_GER_AA_4blocks_noglides","yes","no","sans","no","20","no","black","no","Weiter","yes","768","legacy","5","5","0","/Users/aviadalbert/Documents/Academisch/UoC/Dissertation/Experiment/OpenSesame/NAP-FC/NAP_GER_AA_4blocks_noglides/subject-35.csv","xpyriment","Jazzy James","3.1.9","yes","yes","59a800d99ad5a1025d81bb03","59a801616c613b0251691de0","yes","no","0","f","j","NA","NA","space","f","f","1075","4359","NA","NA","50516","23352","1075","2","legacy","1024","1","44100","-16","experiment","sfal","2","0","1","0","1","eng, spanish, portugues,","35","","odd","624425","NA","NA","NA","NA","NA","NA","41341","NA","456218","41341","550258","600778","646326","644822","647402","628785","624422","NA","NA","460759","534654","NA","624189","NA","624425","NA","646326","646326","NA","NA","644818","NAP perception","6","7900","6","yes","1024"
"100","yes","100","1306.42857143","1306.42857143","white","no","xpyriment","Ich habe die obigen Informationen gelesen und verstanden.","legacy","legacy","0","uniform","1","0","NA","undefined","undefined","1","f","0","0","NA","NA","NA","NA","NA","0","0","0","0","0","0","6","6","6","0","0","NA","NA","0","0","0","0","NA","0","0","6","6","6","6","6","Thu Nov  2 14:24:14 2017","Forced-choice identification task with a practice and an experimental phase","yes","NAP_GER_AA_4blocks_noglides.osexp","/Users/aviadalbert/Documents/Academisch/UoC/Dissertation/Experiment/OpenSesame/NAP-FC/NAP_GER_AA_4blocks_noglides","yes","no","sans","no","20","no","black","no","Weiter","yes","768","legacy","6","6","0","/Users/aviadalbert/Documents/Academisch/UoC/Dissertation/Experiment/OpenSesame/NAP-FC/NAP_GER_AA_4blocks_noglides/subject-35.csv","xpyriment","Jazzy James","3.1.9","yes","yes","59a800d99ad5a1025d81bb03","59a801616c613b0251691de0","yes","no","0","f","j","NA","NA","space","f","f","1245","4359","NA","NA","50516","23352","1245","2","legacy","1024","1","44100","-16","experiment","zmal","2","0","1","0","1","eng, spanish, portugues,","35","","odd","624425","NA","NA","NA","NA","NA","NA","41341","NA","456218","41341","550258","600778","649207","647704","650453","628785","624422","NA","NA","460759","534654","NA","624189","NA","624425","NA","649207","649207","NA","NA","647700","NAP perception","7","9145","7","yes","1024"
"100","yes","100","1268.75","1268.75","white","no","xpyriment","Ich habe die obigen Informationen gelesen und verstanden.","legacy","legacy","0","uniform","1","0","NA","undefined","undefined","1","j","0","0","NA","NA","NA","NA","NA","0","0","0","0","0","0","7","7","7","0","0","NA","NA","0","0","0","0","NA","0","0","7","7","7","7","7","Thu Nov  2 14:24:14 2017","Forced-choice identification task with a practice and an experimental phase","yes","NAP_GER_AA_4blocks_noglides.osexp","/Users/aviadalbert/Documents/Academisch/UoC/Dissertation/Experiment/OpenSesame/NAP-FC/NAP_GER_AA_4blocks_noglides","yes","no","sans","no","20","no","black","no","Weiter","yes","768","legacy","7","7","0","/Users/aviadalbert/Documents/Academisch/UoC/Dissertation/Experiment/OpenSesame/NAP-FC/NAP_GER_AA_4blocks_noglides/subject-35.csv","xpyriment","Jazzy James","3.1.9","yes","yes","59a800d99ad5a1025d81bb03","59a801616c613b0251691de0","yes","no","0","j","j","NA","NA","space","f","j","1005","4359","NA","NA","50516","23352","1005","2","legacy","1024","1","44100","-16","experiment","mesal","2","0","1","0","1","eng, spanish, portugues,","35","","odd","624425","NA","NA","NA","NA","NA","NA","41341","NA","456218","41341","550258","600778","652226","650719","653232","628785","624422","NA","NA","460759","534654","NA","624189","NA","624425","NA","652226","652226","NA","NA","650715","NAP perception","8","10150","8","yes","1024"
"100","yes","100","1244.55555556","1244.55555556","white","no","xpyriment","Ich habe die obigen Informationen gelesen und verstanden.","legacy","legacy","0","uniform","1","0","NA","undefined","undefined","1","j","0","0","NA","NA","NA","NA","NA","0","0","0","0","0","0","8","8","8","0","0","NA","NA","0","0","0","0","NA","0","0","8","8","8","8","8","Thu Nov  2 14:24:14 2017","Forced-choice identification task with a practice and an experimental phase","yes","NAP_GER_AA_4blocks_noglides.osexp","/Users/aviadalbert/Documents/Academisch/UoC/Dissertation/Experiment/OpenSesame/NAP-FC/NAP_GER_AA_4blocks_noglides","yes","no","sans","no","20","no","black","no","Weiter","yes","768","legacy","8","8","0","/Users/aviadalbert/Documents/Academisch/UoC/Dissertation/Experiment/OpenSesame/NAP-FC/NAP_GER_AA_4blocks_noglides/subject-35.csv","xpyriment","Jazzy James","3.1.9","yes","yes","59a800d99ad5a1025d81bb03","59a801616c613b0251691de0","yes","no","0","j","j","NA","NA","space","f","j","1051","4359","NA","NA","50516","23352","1051","2","legacy","1024","1","44100","-16","experiment","enval","2","0","1","0","1","eng, spanish, portugues,","35","","odd","624425","NA","NA","NA","NA","NA","NA","41341","NA","456218","41341","550258","600778","655034","653528","656086","628785","624422","NA","NA","460759","534654","NA","624189","NA","624425","NA","655034","655034","NA","NA","653524","NAP perception","9","11201","9","yes","1024"
"100","yes","100","1213.7","1213.7","white","no","xpyriment","Ich habe die obigen Informationen gelesen und verstanden.","legacy","legacy","0","uniform","1","0","NA","undefined","undefined","1","f","0","0","NA","NA","NA","NA","NA","0","0","0","0","0","0","9","9","9","0","0","NA","NA","0","0","0","0","NA","0","0","9","9","9","9","9","Thu Nov  2 14:24:14 2017","Forced-choice identification task with a practice and an experimental phase","yes","NAP_GER_AA_4blocks_noglides.osexp","/Users/aviadalbert/Documents/Academisch/UoC/Dissertation/Experiment/OpenSesame/NAP-FC/NAP_GER_AA_4blocks_noglides","yes","no","sans","no","20","no","black","no","Weiter","yes","768","legacy","9","9","0","/Users/aviadalbert/Documents/Academisch/UoC/Dissertation/Experiment/OpenSesame/NAP-FC/NAP_GER_AA_4blocks_noglides/subject-35.csv","xpyriment","Jazzy James","3.1.9","yes","yes","59a800d99ad5a1025d81bb03","59a801616c613b0251691de0","yes","no","0","f","j","NA","NA","space","f","f","936","4359","NA","NA","50516","23352","936","2","legacy","1024","1","44100","-16","experiment","vlal","2","0","1","0","1","eng, spanish, portugues,","35","","odd","624425","NA","NA","NA","NA","NA","NA","41341","NA","456218","41341","550258","600778","657869","656365","658806","628785","624422","NA","NA","460759","534654","NA","624189","NA","624425","NA","657869","657869","NA","NA","656361","NAP perception","10","12137","10","yes","1024"
"100","yes","100","1104","1104","white","no","xpyriment","Ich habe die obigen Informationen gelesen und verstanden.","legacy","legacy","0","uniform","1","0","0","undefined","undefined","1","j","2","1","NA","0","1","0","0","0","0","0","0","0","0","10","10","10","0","0","0","NA","0","0","2","0","0","0","2","10","10","10","10","10","Thu Nov  2 14:24:14 2017","Forced-choice identification task with a practice and an experimental phase","yes","NAP_GER_AA_4blocks_noglides.osexp","/Users/aviadalbert/Documents/Academisch/UoC/Dissertation/Experiment/OpenSesame/NAP-FC/NAP_GER_AA_4blocks_noglides","yes","no","sans","no","20","no","black","no","Weiter","yes","768","legacy","0","9","0","/Users/aviadalbert/Documents/Academisch/UoC/Dissertation/Experiment/OpenSesame/NAP-FC/NAP_GER_AA_4blocks_noglides/subject-35.csv","xpyriment","Jazzy James","3.1.9","yes","yes","59a800d99ad5a1025d81bb03","59a801616c613b0251691de0","no","no","0","j","f","space","NA","space","f","j","1104","4476","29865","NA","50516","23352","1104","2","legacy","1024","1","44100","-16","experiment","sepal","2","0","1","0","1","eng, spanish, portugues,","35","","odd","690946","660553","NA","NA","695423","690942","NA","41341","690474","456218","41341","550258","600778","697146","695640","698251","628785","624422","660552","NA","460759","534654","658867","624189","690946","624425","NA","697146","697146","NA","NA","695637","NAP perception","1","1104","1","yes","1024"
"100","yes","100","1092","1092","white","no","xpyriment","Ich habe die obigen Informationen gelesen und verstanden.","legacy","legacy","0","uniform","1","0","0","undefined","undefined","1","j","2","1","NA","0","1","0","0","0","0","0","0","0","0","11","11","11","0","0","0","NA","0","0","2","0","0","0","2","11","11","11","11","11","Thu Nov  2 14:24:14 2017","Forced-choice identification task with a practice and an experimental phase","yes","NAP_GER_AA_4blocks_noglides.osexp","/Users/aviadalbert/Documents/Academisch/UoC/Dissertation/Experiment/OpenSesame/NAP-FC/NAP_GER_AA_4blocks_noglides","yes","no","sans","no","20","no","black","no","Weiter","yes","768","legacy","1","9","0","/Users/aviadalbert/Documents/Academisch/UoC/Dissertation/Experiment/OpenSesame/NAP-FC/NAP_GER_AA_4blocks_noglides/subject-35.csv","xpyriment","Jazzy James","3.1.9","yes","yes","59a800d99ad5a1025d81bb03","59a801616c613b0251691de0","no","no","0","j","f","space","NA","space","f","j","1080","4476","29865","NA","50516","23352","1080","2","legacy","1024","1","44100","-16","experiment","lemal","2","0","1","0","1","eng, spanish, portugues,","35","","odd","690946","660553","NA","NA","695423","690942","NA","41341","690474","456218","41341","550258","600778","700027","698521","701108","628785","624422","660552","NA","460759","534654","658867","624189","690946","624425","NA","700027","700027","NA","NA","698517","NAP perception","2","2184","2","yes","1024"
"100","yes","100","1106","1106","white","no","xpyriment","Ich habe die obigen Informationen gelesen und verstanden.","legacy","legacy","0","uniform","1","0","0","undefined","undefined","1","j","2","1","NA","0","1","0","0","0","0","0","0","0","0","12","12","12","0","0","0","NA","0","0","2","0","0","0","2","12","12","12","12","12","Thu Nov  2 14:24:14 2017","Forced-choice identification task with a practice and an experimental phase","yes","NAP_GER_AA_4blocks_noglides.osexp","/Users/aviadalbert/Documents/Academisch/UoC/Dissertation/Experiment/OpenSesame/NAP-FC/NAP_GER_AA_4blocks_noglides","yes","no","sans","no","20","no","black","no","Weiter","yes","768","legacy","2","9","0","/Users/aviadalbert/Documents/Academisch/UoC/Dissertation/Experiment/OpenSesame/NAP-FC/NAP_GER_AA_4blocks_noglides/subject-35.csv","xpyriment","Jazzy James","3.1.9","yes","yes","59a800d99ad5a1025d81bb03","59a801616c613b0251691de0","no","no","0","j","f","space","NA","space","f","j","1134","4476","29865","NA","50516","23352","1134","2","legacy","1024","1","44100","-16","experiment","ʃepal","2","0","1","0","1","eng, spanish, portugues,","35","","odd","690946","660553","NA","NA","695423","690942","NA","41341","690474","456218","41341","550258","600778","702881","701373","704016","628785","624422","660552","NA","460759","534654","658867","624189","690946","624425","NA","702880","702880","NA","NA","701369","NAP perception","3","3318","3","yes","1024"
"75","yes","75","1078","1078","white","no","xpyriment","Ich habe die obigen Informationen gelesen und verstanden.","legacy","legacy","0","uniform","0","0","0","undefined","undefined","0","f","2","1","NA","0","1","0","0","0","0","0","0","0","0","13","13","13","0","0","0","NA","0","0","2","0","0","0","2","13","13","13","13","13","Thu Nov  2 14:24:14 2017","Forced-choice identification task with a practice and an experimental phase","yes","NAP_GER_AA_4blocks_noglides.osexp","/Users/aviadalbert/Documents/Academisch/UoC/Dissertation/Experiment/OpenSesame/NAP-FC/NAP_GER_AA_4blocks_noglides","yes","no","sans","no","20","no","black","no","Weiter","yes","768","legacy","3","9","0","/Users/aviadalbert/Documents/Academisch/UoC/Dissertation/Experiment/OpenSesame/NAP-FC/NAP_GER_AA_4blocks_noglides/subject-35.csv","xpyriment","Jazzy James","3.1.9","yes","yes","59a800d99ad5a1025d81bb03","59a801616c613b0251691de0","no","no","0","j","f","space","NA","space","f","j","994","4476","29865","NA","50516","23352","994","2","legacy","1024","1","44100","-16","experiment","vnal","2","0","1","0","1","eng, spanish, portugues,","35","","odd","690946","660553","NA","NA","695423","690942","NA","41341","690474","456218","41341","550258","600778","705803","704298","706798","628785","624422","660552","NA","460759","534654","658867","624189","690946","624425","NA","705802","705802","NA","NA","704294","NAP perception","3","4312","4","yes","1024"
"80","yes","80","1084.6","1084.6","white","no","xpyriment","Ich habe die obigen Informationen gelesen und verstanden.","legacy","legacy","0","uniform","1","0","0","undefined","undefined","1","j","2","1","NA","0","1","0","0","0","0","0","0","0","0","14","14","14","0","0","0","NA","0","0","2","0","0","0","2","14","14","14","14","14","Thu Nov  2 14:24:14 2017","Forced-choice identification task with a practice and an experimental phase","yes","NAP_GER_AA_4blocks_noglides.osexp","/Users/aviadalbert/Documents/Academisch/UoC/Dissertation/Experiment/OpenSesame/NAP-FC/NAP_GER_AA_4blocks_noglides","yes","no","sans","no","20","no","black","no","Weiter","yes","768","legacy","4","9","0","/Users/aviadalbert/Documents/Academisch/UoC/Dissertation/Experiment/OpenSesame/NAP-FC/NAP_GER_AA_4blocks_noglides/subject-35.csv","xpyriment","Jazzy James","3.1.9","yes","yes","59a800d99ad5a1025d81bb03","59a801616c613b0251691de0","no","no","0","j","f","space","NA","space","f","j","1111","4476","29865","NA","50516","23352","1111","2","legacy","1024","1","44100","-16","experiment","elmal","2","0","1","0","1","eng, spanish, portugues,","35","","odd","690946","660553","NA","NA","695423","690942","NA","41341","690474","456218","41341","550258","600778","708585","707081","709697","628785","624422","660552","NA","460759","534654","658867","624189","690946","624425","NA","708584","708584","NA","NA","707077","NAP perception","4","5423","5","yes","1024"
"83.3333333333","yes","83.3333333333","1083.83333333","1083.83333333","white","no","xpyriment","Ich habe die obigen Informationen gelesen und verstanden.","legacy","legacy","0","uniform","1","0","0","undefined","undefined","1","f","2","1","NA","0","1","0","0","0","0","0","0","0","0","15","15","15","0","0","0","NA","0","0","2","0","0","0","2","15","15","15","15","15","Thu Nov  2 14:24:14 2017","Forced-choice identification task with a practice and an experimental phase","yes","NAP_GER_AA_4blocks_noglides.osexp","/Users/aviadalbert/Documents/Academisch/UoC/Dissertation/Experiment/OpenSesame/NAP-FC/NAP_GER_AA_4blocks_noglides","yes","no","sans","no","20","no","black","no","Weiter","yes","768","legacy","5","9","0","/Users/aviadalbert/Documents/Academisch/UoC/Dissertation/Experiment/OpenSesame/NAP-FC/NAP_GER_AA_4blocks_noglides/subject-35.csv","xpyriment","Jazzy James","3.1.9","yes","yes","59a800d99ad5a1025d81bb03","59a801616c613b0251691de0","no","no","0","f","f","space","NA","space","f","f","1080","4476","29865","NA","50516","23352","1080","2","legacy","1024","1","44100","-16","experiment","vlal","2","0","1","0","1","eng, spanish, portugues,","35","","odd","690946","660553","NA","NA","695423","690942","NA","41341","690474","456218","41341","550258","600778","711478","709973","712559","628785","624422","660552","NA","460759","534654","658867","624189","690946","624425","NA","711478","711478","NA","NA","709969","NAP perception","5","6503","6","yes","1024"
"71.4285714286","yes","71.4285714286","1175","1175","white","no","xpyriment","Ich habe die obigen Informationen gelesen und verstanden.","legacy","legacy","0","uniform","0","0","0","undefined","undefined","0","f","2","1","NA","0","1","0","0","0","0","0","0","0","0","16","16","16","0","0","0","NA","0","0","2","0","0","0","2","16","16","16","16","16","Thu Nov  2 14:24:14 2017","Forced-choice identification task with a practice and an experimental phase","yes","NAP_GER_AA_4blocks_noglides.osexp","/Users/aviadalbert/Documents/Academisch/UoC/Dissertation/Experiment/OpenSesame/NAP-FC/NAP_GER_AA_4blocks_noglides","yes","no","sans","no","20","no","black","no","Weiter","yes","768","legacy","6","9","0","/Users/aviadalbert/Documents/Academisch/UoC/Dissertation/Experiment/OpenSesame/NAP-FC/NAP_GER_AA_4blocks_noglides/subject-35.csv","xpyriment","Jazzy James","3.1.9","yes","yes","59a800d99ad5a1025d81bb03","59a801616c613b0251691de0","no","no","0","j","f","space","NA","space","f","j","1722","4476","29865","NA","50516","23352","1722","2","legacy","1024","1","44100","-16","experiment","lfal","2","0","1","0","1","eng, spanish, portugues,","35","","odd","690946","660553","NA","NA","695423","690942","NA","41341","690474","456218","41341","550258","600778","714359","712854","716083","628785","624422","660552","NA","460759","534654","658867","624189","690946","624425","NA","714359","714359","NA","NA","712850","NAP perception","5","8225","7","yes","1024"
"75","yes","75","1202.625","1202.625","white","no","xpyriment","Ich habe die obigen Informationen gelesen und verstanden.","legacy","legacy","0","uniform","1","0","0","undefined","undefined","1","f","2","1","NA","0","1","0","0","0","0","0","0","0","0","17","17","17","0","0","0","NA","0","0","2","0","0","0","2","17","17","17","17","17","Thu Nov  2 14:24:14 2017","Forced-choice identification task with a practice and an experimental phase","yes","NAP_GER_AA_4blocks_noglides.osexp","/Users/aviadalbert/Documents/Academisch/UoC/Dissertation/Experiment/OpenSesame/NAP-FC/NAP_GER_AA_4blocks_noglides","yes","no","sans","no","20","no","black","no","Weiter","yes","768","legacy","7","9","0","/Users/aviadalbert/Documents/Academisch/UoC/Dissertation/Experiment/OpenSesame/NAP-FC/NAP_GER_AA_4blocks_noglides/subject-35.csv","xpyriment","Jazzy James","3.1.9","yes","yes","59a800d99ad5a1025d81bb03","59a801616c613b0251691de0","no","no","0","f","f","space","NA","space","f","f","1396","4476","29865","NA","50516","23352","1396","2","legacy","1024","1","44100","-16","experiment","ʃmal","2","0","1","0","1","eng, spanish, portugues,","35","","odd","690946","660553","NA","NA","695423","690942","NA","41341","690474","456218","41341","550258","600778","717882","716379","719280","628785","624422","660552","NA","460759","534654","658867","624189","690946","624425","NA","717882","717882","NA","NA","716375","NAP perception","6","9621","8","yes","1024"
"77.7777777778","yes","77.7777777778","1217.66666667","1217.66666667","white","no","xpyriment","Ich habe die obigen Informationen gelesen und verstanden.","legacy","legacy","0","uniform","1","0","0","undefined","undefined","1","j","2","1","NA","0","1","0","0","0","0","0","0","0","0","18","18","18","0","0","0","NA","0","0","2","0","0","0","2","18","18","18","18","18","Thu Nov  2 14:24:14 2017","Forced-choice identification task with a practice and an experimental phase","yes","NAP_GER_AA_4blocks_noglides.osexp","/Users/aviadalbert/Documents/Academisch/UoC/Dissertation/Experiment/OpenSesame/NAP-FC/NAP_GER_AA_4blocks_noglides","yes","no","sans","no","20","no","black","no","Weiter","yes","768","legacy","8","9","0","/Users/aviadalbert/Documents/Academisch/UoC/Dissertation/Experiment/OpenSesame/NAP-FC/NAP_GER_AA_4blocks_noglides/subject-35.csv","xpyriment","Jazzy James","3.1.9","yes","yes","59a800d99ad5a1025d81bb03","59a801616c613b0251691de0","no","no","0","j","f","space","NA","space","f","j","1338","4476","29865","NA","50516","23352","1338","2","legacy","1024","1","44100","-16","experiment","enfal","2","0","1","0","1","eng, spanish, portugues,","35","","odd","690946","660553","NA","NA","695423","690942","NA","41341","690474","456218","41341","550258","600778","721056","719553","722395","628785","624422","660552","NA","460759","534654","658867","624189","690946","624425","NA","721056","721056","NA","NA","719549","NAP perception","7","10959","9","yes","1024"
"80","yes","80","1227.7","1227.7","white","no","xpyriment","Ich habe die obigen Informationen gelesen und verstanden.","legacy","legacy","0","uniform","1","0","0","undefined","undefined","1","f","2","1","NA","0","1","0","0","0","0","0","0","0","0","19","19","19","0","0","0","NA","0","0","2","0","0","0","2","19","19","19","19","19","Thu Nov  2 14:24:14 2017","Forced-choice identification task with a practice and an experimental phase","yes","NAP_GER_AA_4blocks_noglides.osexp","/Users/aviadalbert/Documents/Academisch/UoC/Dissertation/Experiment/OpenSesame/NAP-FC/NAP_GER_AA_4blocks_noglides","yes","no","sans","no","20","no","black","no","Weiter","yes","768","legacy","9","9","0","/Users/aviadalbert/Documents/Academisch/UoC/Dissertation/Experiment/OpenSesame/NAP-FC/NAP_GER_AA_4blocks_noglides/subject-35.csv","xpyriment","Jazzy James","3.1.9","yes","yes","59a800d99ad5a1025d81bb03","59a801616c613b0251691de0","no","no","0","f","f","space","NA","space","f","f","1318","4476","29865","NA","50516","23352","1318","2","legacy","1024","1","44100","-16","experiment","mlal","2","0","1","0","1","eng, spanish, portugues,","35","","odd","690946","660553","NA","NA","695423","690942","NA","41341","690474","456218","41341","550258","600778","724197","722694","725516","628785","624422","660552","NA","460759","534654","658867","624189","690946","624425","NA","724197","724197","NA","NA","722690","NAP perception","8","12277","10","yes","1024"
"81.8181818182","yes","81.8181818182","1293","1293","white","no","xpyriment","Ich habe die obigen Informationen gelesen und verstanden.","legacy","legacy","0","uniform","1","0","0","undefined","undefined","1","j","2","1","NA","0","1","0","0","0","0","0","0","0","0","20","20","20","0","0","0","NA","0","0","2","0","0","0","2","20","20","20","20","20","Thu Nov  2 14:24:14 2017","Forced-choice identification task with a practice and an experimental phase","yes","NAP_GER_AA_4blocks_noglides.osexp","/Users/aviadalbert/Documents/Academisch/UoC/Dissertation/Experiment/OpenSesame/NAP-FC/NAP_GER_AA_4blocks_noglides","yes","no","sans","no","20","no","black","no","Weiter","yes","768","legacy","10","9","0","/Users/aviadalbert/Documents/Academisch/UoC/Dissertation/Experiment/OpenSesame/NAP-FC/NAP_GER_AA_4blocks_noglides/subject-35.csv","xpyriment","Jazzy James","3.1.9","yes","yes","59a800d99ad5a1025d81bb03","59a801616c613b0251691de0","no","no","0","j","f","space","NA","space","f","j","1946","4476","29865","NA","50516","23352","1946","2","legacy","1024","1","44100","-16","experiment","elkal","2","0","1","0","1","eng, spanish, portugues,","35","","odd","690946","660553","NA","NA","695423","690942","NA","41341","690474","456218","41341","550258","600778","727300","725797","729248","628785","624422","660552","NA","460759","534654","658867","624189","690946","624425","NA","727300","727300","NA","NA","725793","NAP perception","9","14223","11","yes","1024"
"83.3333333333","yes","83.3333333333","1303.58333333","1303.58333333","white","no","xpyriment","Ich habe die obigen Informationen gelesen und verstanden.","legacy","legacy","0","uniform","1","0","0","undefined","undefined","1","j","2","1","NA","0","1","0","0","0","0","0","0","0","0","21","21","21","0","0","0","NA","0","0","2","0","0","0","2","21","21","21","21","21","Thu Nov  2 14:24:14 2017","Forced-choice identification task with a practice and an experimental phase","yes","NAP_GER_AA_4blocks_noglides.osexp","/Users/aviadalbert/Documents/Academisch/UoC/Dissertation/Experiment/OpenSesame/NAP-FC/NAP_GER_AA_4blocks_noglides","yes","no","sans","no","20","no","black","no","Weiter","yes","768","legacy","11","9","0","/Users/aviadalbert/Documents/Academisch/UoC/Dissertation/Experiment/OpenSesame/NAP-FC/NAP_GER_AA_4blocks_noglides/subject-35.csv","xpyriment","Jazzy James","3.1.9","yes","yes","59a800d99ad5a1025d81bb03","59a801616c613b0251691de0","no","no","0","j","f","space","NA","space","f","j","1420","4476","29865","NA","50516","23352","1420","2","legacy","1024","1","44100","-16","experiment","eflal","2","0","1","0","1","eng, spanish, portugues,","35","","odd","690946","660553","NA","NA","695423","690942","NA","41341","690474","456218","41341","550258","600778","731041","729538","732462","628785","624422","660552","NA","460759","534654","658867","624189","690946","624425","NA","731041","731041","NA","NA","729534","NAP perception","10","15643","12","yes","1024"
"76.9230769231","yes","76.9230769231","1371.53846154","1371.53846154","white","no","xpyriment","Ich habe die obigen Informationen gelesen und verstanden.","legacy","legacy","0","uniform","0","0","0","undefined","undefined","0","f","2","1","NA","0","1","0","0","0","0","0","0","0","0","22","22","22","0","0","0","NA","0","0","2","0","0","0","2","22","22","22","22","22","Thu Nov  2 14:24:14 2017","Forced-choice identification task with a practice and an experimental phase","yes","NAP_GER_AA_4blocks_noglides.osexp","/Users/aviadalbert/Documents/Academisch/UoC/Dissertation/Experiment/OpenSesame/NAP-FC/NAP_GER_AA_4blocks_noglides","yes","no","sans","no","20","no","black","no","Weiter","yes","768","legacy","12","9","0","/Users/aviadalbert/Documents/Academisch/UoC/Dissertation/Experiment/OpenSesame/NAP-FC/NAP_GER_AA_4blocks_noglides/subject-35.csv","xpyriment","Jazzy James","3.1.9","yes","yes","59a800d99ad5a1025d81bb03","59a801616c613b0251691de0","no","no","0","j","f","space","NA","space","f","j","2187","4476","29865","NA","50516","23352","2187","2","legacy","1024","1","44100","-16","experiment","nval","2","0","1","0","1","eng, spanish, portugues,","35","","odd","690946","660553","NA","NA","695423","690942","NA","41341","690474","456218","41341","550258","600778","734241","732735","736430","628785","624422","660552","NA","460759","534654","658867","624189","690946","624425","NA","734240","734240","NA","NA","732731","NAP perception","10","17830","13","yes","1024"
"78.5714285714","yes","78.5714285714","1426.28571429","1426.28571429","white","no","xpyriment","Ich habe die obigen Informationen gelesen und verstanden.","legacy","legacy","0","uniform","1","0","0","undefined","undefined","1","f","2","1","NA","0","1","0","0","0","0","0","0","0","0","23","23","23","0","0","0","NA","0","0","2","0","0","0","2","23","23","23","23","23","Thu Nov  2 14:24:14 2017","Forced-choice identification task with a practice and an experimental phase","yes","NAP_GER_AA_4blocks_noglides.osexp","/Users/aviadalbert/Documents/Academisch/UoC/Dissertation/Experiment/OpenSesame/NAP-FC/NAP_GER_AA_4blocks_noglides","yes","no","sans","no","20","no","black","no","Weiter","yes","768","legacy","13","9","0","/Users/aviadalbert/Documents/Academisch/UoC/Dissertation/Experiment/OpenSesame/NAP-FC/NAP_GER_AA_4blocks_noglides/subject-35.csv","xpyriment","Jazzy James","3.1.9","yes","yes","59a800d99ad5a1025d81bb03","59a801616c613b0251691de0","no","no","0","f","f","space","NA","space","f","f","2138","4476","29865","NA","50516","23352","2138","2","legacy","1024","1","44100","-16","experiment","vzal","2","0","1","0","1","eng, spanish, portugues,","35","","odd","690946","660553","NA","NA","695423","690942","NA","41341","690474","456218","41341","550258","600778","738202","736696","740342","628785","624422","660552","NA","460759","534654","658867","624189","690946","624425","NA","738201","738201","NA","NA","736692","NAP perception","11","19968","14","yes","1024"
"73.3333333333","yes","73.3333333333","1531.2","1531.2","white","no","xpyriment","Ich habe die obigen Informationen gelesen und verstanden.","legacy","legacy","0","uniform","0","0","0","undefined","undefined","0","f","2","1","NA","0","1","0","0","0","0","0","0","0","0","24","24","24","0","0","0","NA","0","0","2","0","0","0","2","24","24","24","24","24","Thu Nov  2 14:24:14 2017","Forced-choice identification task with a practice and an experimental phase","yes","NAP_GER_AA_4blocks_noglides.osexp","/Users/aviadalbert/Documents/Academisch/UoC/Dissertation/Experiment/OpenSesame/NAP-FC/NAP_GER_AA_4blocks_noglides","yes","no","sans","no","20","no","black","no","Weiter","yes","768","legacy","14","9","0","/Users/aviadalbert/Documents/Academisch/UoC/Dissertation/Experiment/OpenSesame/NAP-FC/NAP_GER_AA_4blocks_noglides/subject-35.csv","xpyriment","Jazzy James","3.1.9","yes","yes","59a800d99ad5a1025d81bb03","59a801616c613b0251691de0","no","no","0","None","f","space","NA","space","f","None","3000","4476","29865","NA","50516","23352","3000","2","legacy","1024","1","44100","-16","experiment","mtal","2","0","1","0","1","eng, spanish, portugues,","35","","odd","690946","660553","NA","NA","695423","690942","NA","41341","690474","456218","41341","550258","600778","742129","740626","746133","628785","624422","660552","NA","460759","534654","658867","624189","690946","624425","NA","742129","742129","745132","745129","740622","NAP perception","11","22968","15","yes","1024"
"68.75","yes","68.75","1544.375","1544.375","white","no","xpyriment","Ich habe die obigen Informationen gelesen und verstanden.","legacy","legacy","0","uniform","0","0","0","undefined","undefined","0","f","2","1","NA","0","1","0","0","0","0","0","0","0","0","25","25","25","0","0","0","NA","0","0","2","0","0","0","2","25","25","25","25","25","Thu Nov  2 14:24:14 2017","Forced-choice identification task with a practice and an experimental phase","yes","NAP_GER_AA_4blocks_noglides.osexp","/Users/aviadalbert/Documents/Academisch/UoC/Dissertation/Experiment/OpenSesame/NAP-FC/NAP_GER_AA_4blocks_noglides","yes","no","sans","no","20","no","black","no","Weiter","yes","768","legacy","15","9","0","/Users/aviadalbert/Documents/Academisch/UoC/Dissertation/Experiment/OpenSesame/NAP-FC/NAP_GER_AA_4blocks_noglides/subject-35.csv","xpyriment","Jazzy James","3.1.9","yes","yes","59a800d99ad5a1025d81bb03","59a801616c613b0251691de0","no","no","0","j","f","space","NA","space","f","j","1742","4476","29865","NA","50516","23352","1742","2","legacy","1024","1","44100","-16","experiment","nmal","2","0","1","0","1","eng, spanish, portugues,","35","","odd","690946","660553","NA","NA","695423","690942","NA","41341","690474","456218","41341","550258","600778","747899","746393","749642","628785","624422","660552","NA","460759","534654","658867","624189","690946","624425","NA","747899","747899","745132","745129","746390","NAP perception","11","24710","16","yes","1024"
"70.5882352941","yes","70.5882352941","1521.11764706","1521.11764706","white","no","xpyriment","Ich habe die obigen Informationen gelesen und verstanden.","legacy","legacy","0","uniform","1","0","0","undefined","undefined","1","j","2","1","NA","0","1","0","0","0","0","0","0","0","0","26","26","26","0","0","0","NA","0","0","2","0","0","0","2","26","26","26","26","26","Thu Nov  2 14:24:14 2017","Forced-choice identification task with a practice and an experimental phase","yes","NAP_GER_AA_4blocks_noglides.osexp","/Users/aviadalbert/Documents/Academisch/UoC/Dissertation/Experiment/OpenSesame/NAP-FC/NAP_GER_AA_4blocks_noglides","yes","no","sans","no","20","no","black","no","Weiter","yes","768","legacy","16","9","0","/Users/aviadalbert/Documents/Academisch/UoC/Dissertation/Experiment/OpenSesame/NAP-FC/NAP_GER_AA_4blocks_noglides/subject-35.csv","xpyriment","Jazzy James","3.1.9","yes","yes","59a800d99ad5a1025d81bb03","59a801616c613b0251691de0","no","no","0","j","f","space","NA","space","f","j","1149","4476","29865","NA","50516","23352","1149","2","legacy","1024","1","44100","-16","experiment","lefal","2","0","1","0","1","eng, spanish, portugues,","35","","odd","690946","660553","NA","NA","695423","690942","NA","41341","690474","456218","41341","550258","600778","751415","749912","752565","628785","624422","660552","NA","460759","534654","658867","624189","690946","624425","NA","751415","751415","745132","745129","749908","NAP perception","12","25859","17","yes","1024"
"66.6666666667","yes","66.6666666667","1479.38888889","1479.38888889","white","no","xpyriment","Ich habe die obigen Informationen gelesen und verstanden.","legacy","legacy","0","uniform","0","0","0","undefined","undefined","0","j","2","1","NA","0","1","0","0","0","0","0","0","0","0","27","27","27","0","0","0","NA","0","0","2","0","0","0","2","27","27","27","27","27","Thu Nov  2 14:24:14 2017","Forced-choice identification task with a practice and an experimental phase","yes","NAP_GER_AA_4blocks_noglides.osexp","/Users/aviadalbert/Documents/Academisch/UoC/Dissertation/Experiment/OpenSesame/NAP-FC/NAP_GER_AA_4blocks_noglides","yes","no","sans","no","20","no","black","no","Weiter","yes","768","legacy","17","9","0","/Users/aviadalbert/Documents/Academisch/UoC/Dissertation/Experiment/OpenSesame/NAP-FC/NAP_GER_AA_4blocks_noglides/subject-35.csv","xpyriment","Jazzy James","3.1.9","yes","yes","59a800d99ad5a1025d81bb03","59a801616c613b0251691de0","no","no","0","f","f","space","NA","space","f","f","770","4476","29865","NA","50516","23352","770","2","legacy","1024","1","44100","-16","experiment","elpal","2","0","1","0","1","eng, spanish, portugues,","35","","odd","690946","660553","NA","NA","695423","690942","NA","41341","690474","456218","41341","550258","600778","754339","752834","755110","628785","624422","660552","NA","460759","534654","658867","624189","690946","624425","NA","754339","754339","745132","745129","752830","NAP perception","12","26629","18","yes","1024"
"68.4210526316","yes","68.4210526316","1454.10526316","1454.10526316","white","no","xpyriment","Ich habe die obigen Informationen gelesen und verstanden.","legacy","legacy","0","uniform","1","0","0","undefined","undefined","1","j","2","1","NA","0","1","0","0","0","0","0","0","0","0","28","28","28","0","0","0","NA","0","0","2","0","0","0","2","28","28","28","28","28","Thu Nov  2 14:24:14 2017","Forced-choice identification task with a practice and an experimental phase","yes","NAP_GER_AA_4blocks_noglides.osexp","/Users/aviadalbert/Documents/Academisch/UoC/Dissertation/Experiment/OpenSesame/NAP-FC/NAP_GER_AA_4blocks_noglides","yes","no","sans","no","20","no","black","no","Weiter","yes","768","legacy","18","9","0","/Users/aviadalbert/Documents/Academisch/UoC/Dissertation/Experiment/OpenSesame/NAP-FC/NAP_GER_AA_4blocks_noglides/subject-35.csv","xpyriment","Jazzy James","3.1.9","yes","yes","59a800d99ad5a1025d81bb03","59a801616c613b0251691de0","no","no","0","j","f","space","NA","space","f","j","999","4476","29865","NA","50516","23352","999","2","legacy","1024","1","44100","-16","experiment","lepal","2","0","1","0","1","eng, spanish, portugues,","35","","odd","690946","660553","NA","NA","695423","690942","NA","41341","690474","456218","41341","550258","600778","756892","755385","757893","628785","624422","660552","NA","460759","534654","658867","624189","690946","624425","NA","756891","756891","745132","745129","755381","NAP perception","13","27628","19","yes","1024"
"70","yes","70","1420.25","1420.25","white","no","xpyriment","Ich habe die obigen Informationen gelesen und verstanden.","legacy","legacy","0","uniform","1","0","0","undefined","undefined","1","f","2","1","NA","0","1","0","0","0","0","0","0","0","0","29","29","29","0","0","0","NA","0","0","2","0","0","0","2","29","29","29","29","29","Thu Nov  2 14:24:14 2017","Forced-choice identification task with a practice and an experimental phase","yes","NAP_GER_AA_4blocks_noglides.osexp","/Users/aviadalbert/Documents/Academisch/UoC/Dissertation/Experiment/OpenSesame/NAP-FC/NAP_GER_AA_4blocks_noglides","yes","no","sans","no","20","no","black","no","Weiter","yes","768","legacy","19","9","0","/Users/aviadalbert/Documents/Academisch/UoC/Dissertation/Experiment/OpenSesame/NAP-FC/NAP_GER_AA_4blocks_noglides/subject-35.csv","xpyriment","Jazzy James","3.1.9","yes","yes","59a800d99ad5a1025d81bb03","59a801616c613b0251691de0","no","no","0","f","f","space","NA","space","f","f","777","4476","29865","NA","50516","23352","777","2","legacy","1024","1","44100","-16","experiment","ʃpal","2","0","1","0","1","eng, spanish, portugues,","35","","odd","690946","660553","NA","NA","695423","690942","NA","41341","690474","456218","41341","550258","600778","759679","758171","760457","628785","624422","660552","NA","460759","534654","658867","624189","690946","624425","NA","759679","759679","745132","745129","758167","NAP perception","14","28405","20","yes","1024"
"71.4285714286","yes","71.4285714286","1386","1386","white","no","xpyriment","Ich habe die obigen Informationen gelesen und verstanden.","legacy","legacy","0","uniform","1","0","0","undefined","undefined","1","j","2","1","NA","0","1","0","0","0","0","0","0","0","0","30","30","30","0","0","0","NA","0","0","2","0","0","0","2","30","30","30","30","30","Thu Nov  2 14:24:14 2017","Forced-choice identification task with a practice and an experimental phase","yes","NAP_GER_AA_4blocks_noglides.osexp","/Users/aviadalbert/Documents/Academisch/UoC/Dissertation/Experiment/OpenSesame/NAP-FC/NAP_GER_AA_4blocks_noglides","yes","no","sans","no","20","no","black","no","Weiter","yes","768","legacy","20","9","0","/Users/aviadalbert/Documents/Academisch/UoC/Dissertation/Experiment/OpenSesame/NAP-FC/NAP_GER_AA_4blocks_noglides/subject-35.csv","xpyriment","Jazzy James","3.1.9","yes","yes","59a800d99ad5a1025d81bb03","59a801616c613b0251691de0","no","no","0","j","f","space","NA","space","f","j","701","4476","29865","NA","50516","23352","701","2","legacy","1024","1","44100","-16","experiment","zemal","2","0","1","0","1","eng, spanish, portugues,","35","","odd","690946","660553","NA","NA","695423","690942","NA","41341","690474","456218","41341","550258","600778","762244","760739","762947","628785","624422","660552","NA","460759","534654","658867","624189","690946","624425","NA","762244","762244","745132","745129","760735","NAP perception","15","29106","21","yes","1024"
"72.7272727273","yes","72.7272727273","1372.63636364","1372.63636364","white","no","xpyriment","Ich habe die obigen Informationen gelesen und verstanden.","legacy","legacy","0","uniform","1","0","0","undefined","undefined","1","j","2","1","NA","0","1","0","0","0","0","0","0","0","0","31","31","31","0","0","0","NA","0","0","2","0","0","0","2","31","31","31","31","31","Thu Nov  2 14:24:14 2017","Forced-choice identification task with a practice and an experimental phase","yes","NAP_GER_AA_4blocks_noglides.osexp","/Users/aviadalbert/Documents/Academisch/UoC/Dissertation/Experiment/OpenSesame/NAP-FC/NAP_GER_AA_4blocks_noglides","yes","no","sans","no","20","no","black","no","Weiter","yes","768","legacy","21","9","0","/Users/aviadalbert/Documents/Academisch/UoC/Dissertation/Experiment/OpenSesame/NAP-FC/NAP_GER_AA_4blocks_noglides/subject-35.csv","xpyriment","Jazzy James","3.1.9","yes","yes","59a800d99ad5a1025d81bb03","59a801616c613b0251691de0","no","no","0","j","f","space","NA","space","f","j","1092","4476","29865","NA","50516","23352","1092","2","legacy","1024","1","44100","-16","experiment","eʃpal","2","0","1","0","1","eng, spanish, portugues,","35","","odd","690946","660553","NA","NA","695423","690942","NA","41341","690474","456218","41341","550258","600778","764722","763218","765816","628785","624422","660552","NA","460759","534654","658867","624189","690946","624425","NA","764722","764722","745132","745129","763215","NAP perception","16","30198","22","yes","1024"
"73.9130434783","yes","73.9130434783","1366.43478261","1366.43478261","white","no","xpyriment","Ich habe die obigen Informationen gelesen und verstanden.","legacy","legacy","0","uniform","1","0","0","undefined","undefined","1","j","2","1","NA","0","1","0","0","0","0","0","0","0","0","32","32","32","0","0","0","NA","0","0","2","0","0","0","2","32","32","32","32","32","Thu Nov  2 14:24:14 2017","Forced-choice identification task with a practice and an experimental phase","yes","NAP_GER_AA_4blocks_noglides.osexp","/Users/aviadalbert/Documents/Academisch/UoC/Dissertation/Experiment/OpenSesame/NAP-FC/NAP_GER_AA_4blocks_noglides","yes","no","sans","no","20","no","black","no","Weiter","yes","768","legacy","22","9","0","/Users/aviadalbert/Documents/Academisch/UoC/Dissertation/Experiment/OpenSesame/NAP-FC/NAP_GER_AA_4blocks_noglides/subject-35.csv","xpyriment","Jazzy James","3.1.9","yes","yes","59a800d99ad5a1025d81bb03","59a801616c613b0251691de0","no","no","0","j","f","space","NA","space","f","j","1230","4476","29865","NA","50516","23352","1230","2","legacy","1024","1","44100","-16","experiment","emzal","2","0","1","0","1","eng, spanish, portugues,","35","","odd","690946","660553","NA","NA","695423","690942","NA","41341","690474","456218","41341","550258","600778","767585","766081","768817","628785","624422","660552","NA","460759","534654","658867","624189","690946","624425","NA","767584","767584","745132","745129","766077","NAP perception","17","31428","23","yes","1024"
"75","yes","75","1343.79166667","1343.79166667","white","no","xpyriment","Ich habe die obigen Informationen gelesen und verstanden.","legacy","legacy","0","uniform","1","0","0","undefined","undefined","1","j","2","1","NA","0","1","0","0","0","0","0","0","0","0","33","33","33","0","0","0","NA","0","0","2","0","0","0","2","33","33","33","33","33","Thu Nov  2 14:24:14 2017","Forced-choice identification task with a practice and an experimental phase","yes","NAP_GER_AA_4blocks_noglides.osexp","/Users/aviadalbert/Documents/Academisch/UoC/Dissertation/Experiment/OpenSesame/NAP-FC/NAP_GER_AA_4blocks_noglides","yes","no","sans","no","20","no","black","no","Weiter","yes","768","legacy","23","9","0","/Users/aviadalbert/Documents/Academisch/UoC/Dissertation/Experiment/OpenSesame/NAP-FC/NAP_GER_AA_4blocks_noglides/subject-35.csv","xpyriment","Jazzy James","3.1.9","yes","yes","59a800d99ad5a1025d81bb03","59a801616c613b0251691de0","no","no","0","j","f","space","NA","space","f","j","823","4476","29865","NA","50516","23352","823","2","legacy","1024","1","44100","-16","experiment","menal","2","0","1","0","1","eng, spanish, portugues,","35","","odd","690946","660553","NA","NA","695423","690942","NA","41341","690474","456218","41341","550258","600778","770598","769094","771423","628785","624422","660552","NA","460759","534654","658867","624189","690946","624425","NA","770598","770598","745132","745129","769090","NAP perception","18","32251","24","yes","1024"
"76","yes","76","1320.24","1320.24","white","no","xpyriment","Ich habe die obigen Informationen gelesen und verstanden.","legacy","legacy","0","uniform","1","0","0","undefined","undefined","1","j","2","1","NA","0","1","0","0","0","0","0","0","0","0","34","34","34","0","0","0","NA","0","0","2","0","0","0","2","34","34","34","34","34","Thu Nov  2 14:24:14 2017","Forced-choice identification task with a practice and an experimental phase","yes","NAP_GER_AA_4blocks_noglides.osexp","/Users/aviadalbert/Documents/Academisch/UoC/Dissertation/Experiment/OpenSesame/NAP-FC/NAP_GER_AA_4blocks_noglides","yes","no","sans","no","20","no","black","no","Weiter","yes","768","legacy","24","9","0","/Users/aviadalbert/Documents/Academisch/UoC/Dissertation/Experiment/OpenSesame/NAP-FC/NAP_GER_AA_4blocks_noglides/subject-35.csv","xpyriment","Jazzy James","3.1.9","yes","yes","59a800d99ad5a1025d81bb03","59a801616c613b0251691de0","no","no","0","j","f","space","NA","space","f","j","755","4476","29865","NA","50516","23352","755","2","legacy","1024","1","44100","-16","experiment","emlal","2","0","1","0","1","eng, spanish, portugues,","35","","odd","690946","660553","NA","NA","695423","690942","NA","41341","690474","456218","41341","550258","600778","773216","771709","773973","628785","624422","660552","NA","460759","534654","658867","624189","690946","624425","NA","773215","773215","745132","745129","771705","NAP perception","19","33006","25","yes","1024"
"76.9230769231","yes","76.9230769231","1305.73076923","1305.73076923","white","no","xpyriment","Ich habe die obigen Informationen gelesen und verstanden.","legacy","legacy","0","uniform","1","0","0","undefined","undefined","1","j","2","1","NA","0","1","0","0","0","0","0","0","0","0","35","35","35","0","0","0","NA","0","0","2","0","0","0","2","35","35","35","35","35","Thu Nov  2 14:24:14 2017","Forced-choice identification task with a practice and an experimental phase","yes","NAP_GER_AA_4blocks_noglides.osexp","/Users/aviadalbert/Documents/Academisch/UoC/Dissertation/Experiment/OpenSesame/NAP-FC/NAP_GER_AA_4blocks_noglides","yes","no","sans","no","20","no","black","no","Weiter","yes","768","legacy","25","9","0","/Users/aviadalbert/Documents/Academisch/UoC/Dissertation/Experiment/OpenSesame/NAP-FC/NAP_GER_AA_4blocks_noglides/subject-35.csv","xpyriment","Jazzy James","3.1.9","yes","yes","59a800d99ad5a1025d81bb03","59a801616c613b0251691de0","no","no","0","j","f","space","NA","space","f","j","943","4476","29865","NA","50516","23352","943","2","legacy","1024","1","44100","-16","experiment","metal","2","0","1","0","1","eng, spanish, portugues,","35","","odd","690946","660553","NA","NA","695423","690942","NA","41341","690474","456218","41341","550258","600778","775771","774267","776716","628785","624422","660552","NA","460759","534654","658867","624189","690946","624425","NA","775771","775771","745132","745129","774264","NAP perception","20","33949","26","yes","1024"
"77.7777777778","yes","77.7777777778","1287.66666667","1287.66666667","white","no","xpyriment","Ich habe die obigen Informationen gelesen und verstanden.","legacy","legacy","0","uniform","1","0","0","undefined","undefined","1","j","2","1","NA","0","1","0","0","0","0","0","0","0","0","36","36","36","0","0","0","NA","0","0","2","0","0","0","2","36","36","36","36","36","Thu Nov  2 14:24:14 2017","Forced-choice identification task with a practice and an experimental phase","yes","NAP_GER_AA_4blocks_noglides.osexp","/Users/aviadalbert/Documents/Academisch/UoC/Dissertation/Experiment/OpenSesame/NAP-FC/NAP_GER_AA_4blocks_noglides","yes","no","sans","no","20","no","black","no","Weiter","yes","768","legacy","26","9","0","/Users/aviadalbert/Documents/Academisch/UoC/Dissertation/Experiment/OpenSesame/NAP-FC/NAP_GER_AA_4blocks_noglides/subject-35.csv","xpyriment","Jazzy James","3.1.9","yes","yes","59a800d99ad5a1025d81bb03","59a801616c613b0251691de0","no","no","0","j","f","space","NA","space","f","j","818","4476","29865","NA","50516","23352","818","2","legacy","1024","1","44100","-16","experiment","nefal","2","0","1","0","1","eng, spanish, portugues,","35","","odd","690946","660553","NA","NA","695423","690942","NA","41341","690474","456218","41341","550258","600778","778486","776979","779305","628785","624422","660552","NA","460759","534654","658867","624189","690946","624425","NA","778485","778486","745132","745129","776975","NAP perception","21","34767","27","yes","1024"
"78.5714285714","yes","78.5714285714","1270.75","1270.75","white","no","xpyriment","Ich habe die obigen Informationen gelesen und verstanden.","legacy","legacy","0","uniform","1","0","0","undefined","undefined","1","j","2","1","NA","0","1","0","0","0","0","0","0","0","0","37","37","37","0","0","0","NA","0","0","2","0","0","0","2","37","37","37","37","37","Thu Nov  2 14:24:14 2017","Forced-choice identification task with a practice and an experimental phase","yes","NAP_GER_AA_4blocks_noglides.osexp","/Users/aviadalbert/Documents/Academisch/UoC/Dissertation/Experiment/OpenSesame/NAP-FC/NAP_GER_AA_4blocks_noglides","yes","no","sans","no","20","no","black","no","Weiter","yes","768","legacy","27","9","0","/Users/aviadalbert/Documents/Academisch/UoC/Dissertation/Experiment/OpenSesame/NAP-FC/NAP_GER_AA_4blocks_noglides/subject-35.csv","xpyriment","Jazzy James","3.1.9","yes","yes","59a800d99ad5a1025d81bb03","59a801616c613b0251691de0","no","no","0","j","f","space","NA","space","f","j","814","4476","29865","NA","50516","23352","814","2","legacy","1024","1","44100","-16","experiment","eʃfal","2","0","1","0","1","eng, spanish, portugues,","35","","odd","690946","660553","NA","NA","695423","690942","NA","41341","690474","456218","41341","550258","600778","781081","779577","781896","628785","624422","660552","NA","460759","534654","658867","624189","690946","624425","NA","781080","781081","745132","745129","779573","NAP perception","22","35581","28","yes","1024"
"75.8620689655","yes","75.8620689655","1254.55172414","1254.55172414","white","no","xpyriment","Ich habe die obigen Informationen gelesen und verstanden.","legacy","legacy","0","uniform","0","0","0","undefined","undefined","0","f","2","1","NA","0","1","0","0","0","0","0","0","0","0","38","38","38","0","0","0","NA","0","0","2","0","0","0","2","38","38","38","38","38","Thu Nov  2 14:24:14 2017","Forced-choice identification task with a practice and an experimental phase","yes","NAP_GER_AA_4blocks_noglides.osexp","/Users/aviadalbert/Documents/Academisch/UoC/Dissertation/Experiment/OpenSesame/NAP-FC/NAP_GER_AA_4blocks_noglides","yes","no","sans","no","20","no","black","no","Weiter","yes","768","legacy","28","9","0","/Users/aviadalbert/Documents/Academisch/UoC/Dissertation/Experiment/OpenSesame/NAP-FC/NAP_GER_AA_4blocks_noglides/subject-35.csv","xpyriment","Jazzy James","3.1.9","yes","yes","59a800d99ad5a1025d81bb03","59a801616c613b0251691de0","no","no","0","j","f","space","NA","space","f","j","801","4476","29865","NA","50516","23352","801","2","legacy","1024","1","44100","-16","experiment","lpal","2","0","1","0","1","eng, spanish, portugues,","35","","odd","690946","660553","NA","NA","695423","690942","NA","41341","690474","456218","41341","550258","600778","783676","782172","784478","628785","624422","660552","NA","460759","534654","658867","624189","690946","624425","NA","783676","783676","745132","745129","782168","NAP perception","22","36382","29","yes","1024"
"76.6666666667","yes","76.6666666667","1244.13333333","1244.13333333","white","no","xpyriment","Ich habe die obigen Informationen gelesen und verstanden.","legacy","legacy","0","uniform","1","0","0","undefined","undefined","1","j","2","1","NA","0","1","0","0","0","0","0","0","0","0","39","39","39","0","0","0","NA","0","0","2","0","0","0","2","39","39","39","39","39","Thu Nov  2 14:24:14 2017","Forced-choice identification task with a practice and an experimental phase","yes","NAP_GER_AA_4blocks_noglides.osexp","/Users/aviadalbert/Documents/Academisch/UoC/Dissertation/Experiment/OpenSesame/NAP-FC/NAP_GER_AA_4blocks_noglides","yes","no","sans","no","20","no","black","no","Weiter","yes","768","legacy","29","9","0","/Users/aviadalbert/Documents/Academisch/UoC/Dissertation/Experiment/OpenSesame/NAP-FC/NAP_GER_AA_4blocks_noglides/subject-35.csv","xpyriment","Jazzy James","3.1.9","yes","yes","59a800d99ad5a1025d81bb03","59a801616c613b0251691de0","no","no","0","j","f","space","NA","space","f","j","942","4476","29865","NA","50516","23352","942","2","legacy","1024","1","44100","-16","experiment","esfal","2","0","1","0","1","eng, spanish, portugues,","35","","odd","690946","660553","NA","NA","695423","690942","NA","41341","690474","456218","41341","550258","600778","786259","784756","787202","628785","624422","660552","NA","460759","534654","658867","624189","690946","624425","NA","786259","786259","745132","745129","784752","NAP perception","23","37324","30","yes","1024"
"77.4193548387","yes","77.4193548387","1232.32258065","1232.32258065","white","no","xpyriment","Ich habe die obigen Informationen gelesen und verstanden.","legacy","legacy","0","uniform","1","0","0","undefined","undefined","1","j","2","1","NA","0","1","0","0","0","0","0","0","0","0","40","40","40","0","0","0","NA","0","0","2","0","0","0","2","40","40","40","40","40","Thu Nov  2 14:24:14 2017","Forced-choice identification task with a practice and an experimental phase","yes","NAP_GER_AA_4blocks_noglides.osexp","/Users/aviadalbert/Documents/Academisch/UoC/Dissertation/Experiment/OpenSesame/NAP-FC/NAP_GER_AA_4blocks_noglides","yes","no","sans","no","20","no","black","no","Weiter","yes","768","legacy","30","9","0","/Users/aviadalbert/Documents/Academisch/UoC/Dissertation/Experiment/OpenSesame/NAP-FC/NAP_GER_AA_4blocks_noglides/subject-35.csv","xpyriment","Jazzy James","3.1.9","yes","yes","59a800d99ad5a1025d81bb03","59a801616c613b0251691de0","no","no","0","j","f","space","NA","space","f","j","878","4476","29865","NA","50516","23352","878","2","legacy","1024","1","44100","-16","experiment","eftal","2","0","1","0","1","eng, spanish, portugues,","35","","odd","690946","660553","NA","NA","695423","690942","NA","41341","690474","456218","41341","550258","600778","788989","787486","789868","628785","624422","660552","NA","460759","534654","658867","624189","690946","624425","NA","788989","788989","745132","745129","787482","NAP perception","24","38202","31","yes","1024"
"75","yes","75","1219.71875","1219.71875","white","no","xpyriment","Ich habe die obigen Informationen gelesen und verstanden.","legacy","legacy","0","uniform","0","0","0","undefined","undefined","0","f","2","1","NA","0","1","0","0","0","0","0","0","0","0","41","41","41","0","0","0","NA","0","0","2","0","0","0","2","41","41","41","41","41","Thu Nov  2 14:24:14 2017","Forced-choice identification task with a practice and an experimental phase","yes","NAP_GER_AA_4blocks_noglides.osexp","/Users/aviadalbert/Documents/Academisch/UoC/Dissertation/Experiment/OpenSesame/NAP-FC/NAP_GER_AA_4blocks_noglides","yes","no","sans","no","20","no","black","no","Weiter","yes","768","legacy","31","9","0","/Users/aviadalbert/Documents/Academisch/UoC/Dissertation/Experiment/OpenSesame/NAP-FC/NAP_GER_AA_4blocks_noglides/subject-35.csv","xpyriment","Jazzy James","3.1.9","yes","yes","59a800d99ad5a1025d81bb03","59a801616c613b0251691de0","no","no","0","j","f","space","NA","space","f","j","829","4476","29865","NA","50516","23352","829","2","legacy","1024","1","44100","-16","experiment","zval","2","0","1","0","1","eng, spanish, portugues,","35","","odd","690946","660553","NA","NA","695423","690942","NA","41341","690474","456218","41341","550258","600778","791646","790140","792476","628785","624422","660552","NA","460759","534654","658867","624189","690946","624425","NA","791645","791645","745132","745129","790136","NAP perception","24","39031","32","yes","1024"
"75.7575757576","yes","75.7575757576","1213.27272727","1213.27272727","white","no","xpyriment","Ich habe die obigen Informationen gelesen und verstanden.","legacy","legacy","0","uniform","1","0","0","undefined","undefined","1","j","2","1","NA","0","1","0","0","0","0","0","0","0","0","42","42","42","0","0","0","NA","0","0","2","0","0","0","2","42","42","42","42","42","Thu Nov  2 14:24:14 2017","Forced-choice identification task with a practice and an experimental phase","yes","NAP_GER_AA_4blocks_noglides.osexp","/Users/aviadalbert/Documents/Academisch/UoC/Dissertation/Experiment/OpenSesame/NAP-FC/NAP_GER_AA_4blocks_noglides","yes","no","sans","no","20","no","black","no","Weiter","yes","768","legacy","32","9","0","/Users/aviadalbert/Documents/Academisch/UoC/Dissertation/Experiment/OpenSesame/NAP-FC/NAP_GER_AA_4blocks_noglides/subject-35.csv","xpyriment","Jazzy James","3.1.9","yes","yes","59a800d99ad5a1025d81bb03","59a801616c613b0251691de0","no","no","0","j","f","space","NA","space","f","j","1007","4476","29865","NA","50516","23352","1007","2","legacy","1024","1","44100","-16","experiment","ʃemal","2","0","1","0","1","eng, spanish, portugues,","35","","odd","690946","660553","NA","NA","695423","690942","NA","41341","690474","456218","41341","550258","600778","794250","792745","795258","628785","624422","660552","NA","460759","534654","658867","624189","690946","624425","NA","794250","794250","745132","745129","792741","NAP perception","25","40038","33","yes","1024"
"76.4705882353","yes","76.4705882353","1201.05882353","1201.05882353","white","no","xpyriment","Ich habe die obigen Informationen gelesen und verstanden.","legacy","legacy","0","uniform","1","0","0","undefined","undefined","1","j","2","1","NA","0","1","0","0","0","0","0","0","0","0","43","43","43","0","0","0","NA","0","0","2","0","0","0","2","43","43","43","43","43","Thu Nov  2 14:24:14 2017","Forced-choice identification task with a practice and an experimental phase","yes","NAP_GER_AA_4blocks_noglides.osexp","/Users/aviadalbert/Documents/Academisch/UoC/Dissertation/Experiment/OpenSesame/NAP-FC/NAP_GER_AA_4blocks_noglides","yes","no","sans","no","20","no","black","no","Weiter","yes","768","legacy","33","9","0","/Users/aviadalbert/Documents/Academisch/UoC/Dissertation/Experiment/OpenSesame/NAP-FC/NAP_GER_AA_4blocks_noglides/subject-35.csv","xpyriment","Jazzy James","3.1.9","yes","yes","59a800d99ad5a1025d81bb03","59a801616c613b0251691de0","no","no","0","j","f","space","NA","space","f","j","798","4476","29865","NA","50516","23352","798","2","legacy","1024","1","44100","-16","experiment","felal","2","0","1","0","1","eng, spanish, portugues,","35","","odd","690946","660553","NA","NA","695423","690942","NA","41341","690474","456218","41341","550258","600778","797032","795528","797832","628785","624422","660552","NA","460759","534654","658867","624189","690946","624425","NA","797032","797032","745132","745129","795525","NAP perception","26","40836","34","yes","1024"
"77.1428571429","yes","77.1428571429","1188.94285714","1188.94285714","white","no","xpyriment","Ich habe die obigen Informationen gelesen und verstanden.","legacy","legacy","0","uniform","1","0","0","undefined","undefined","1","j","2","1","NA","0","1","0","0","0","0","0","0","0","0","44","44","44","0","0","0","NA","0","0","2","0","0","0","2","44","44","44","44","44","Thu Nov  2 14:24:14 2017","Forced-choice identification task with a practice and an experimental phase","yes","NAP_GER_AA_4blocks_noglides.osexp","/Users/aviadalbert/Documents/Academisch/UoC/Dissertation/Experiment/OpenSesame/NAP-FC/NAP_GER_AA_4blocks_noglides","yes","no","sans","no","20","no","black","no","Weiter","yes","768","legacy","34","9","0","/Users/aviadalbert/Documents/Academisch/UoC/Dissertation/Experiment/OpenSesame/NAP-FC/NAP_GER_AA_4blocks_noglides/subject-35.csv","xpyriment","Jazzy James","3.1.9","yes","yes","59a800d99ad5a1025d81bb03","59a801616c613b0251691de0","no","no","0","j","f","space","NA","space","f","j","777","4476","29865","NA","50516","23352","777","2","legacy","1024","1","44100","-16","experiment","fenal","2","0","1","0","1","eng, spanish, portugues,","35","","odd","690946","660553","NA","NA","695423","690942","NA","41341","690474","456218","41341","550258","600778","799607","798104","800385","628785","624422","660552","NA","460759","534654","658867","624189","690946","624425","NA","799607","799607","745132","745129","798100","NAP perception","27","41613","35","yes","1024"
"75","yes","75","1182.19444444","1182.19444444","white","no","xpyriment","Ich habe die obigen Informationen gelesen und verstanden.","legacy","legacy","0","uniform","0","0","0","undefined","undefined","0","f","2","1","NA","0","1","0","0","0","0","0","0","0","0","45","45","45","0","0","0","NA","0","0","2","0","0","0","2","45","45","45","45","45","Thu Nov  2 14:24:14 2017","Forced-choice identification task with a practice and an experimental phase","yes","NAP_GER_AA_4blocks_noglides.osexp","/Users/aviadalbert/Documents/Academisch/UoC/Dissertation/Experiment/OpenSesame/NAP-FC/NAP_GER_AA_4blocks_noglides","yes","no","sans","no","20","no","black","no","Weiter","yes","768","legacy","35","9","0","/Users/aviadalbert/Documents/Academisch/UoC/Dissertation/Experiment/OpenSesame/NAP-FC/NAP_GER_AA_4blocks_noglides/subject-35.csv","xpyriment","Jazzy James","3.1.9","yes","yes","59a800d99ad5a1025d81bb03","59a801616c613b0251691de0","no","no","0","j","f","space","NA","space","f","j","946","4476","29865","NA","50516","23352","946","2","legacy","1024","1","44100","-16","experiment","ftal","2","0","1","0","1","eng, spanish, portugues,","35","","odd","690946","660553","NA","NA","695423","690942","NA","41341","690474","456218","41341","550258","600778","802160","800656","803107","628785","624422","660552","NA","460759","534654","658867","624189","690946","624425","NA","802160","802160","745132","745129","800652","NAP perception","27","42559","36","yes","1024"
"72.972972973","yes","72.972972973","1178.35135135","1178.35135135","white","no","xpyriment","Ich habe die obigen Informationen gelesen und verstanden.","legacy","legacy","0","uniform","0","0","0","undefined","undefined","0","f","2","1","NA","0","1","0","0","0","0","0","0","0","0","46","46","46","0","0","0","NA","0","0","2","0","0","0","2","46","46","46","46","46","Thu Nov  2 14:24:14 2017","Forced-choice identification task with a practice and an experimental phase","yes","NAP_GER_AA_4blocks_noglides.osexp","/Users/aviadalbert/Documents/Academisch/UoC/Dissertation/Experiment/OpenSesame/NAP-FC/NAP_GER_AA_4blocks_noglides","yes","no","sans","no","20","no","black","no","Weiter","yes","768","legacy","36","9","0","/Users/aviadalbert/Documents/Academisch/UoC/Dissertation/Experiment/OpenSesame/NAP-FC/NAP_GER_AA_4blocks_noglides/subject-35.csv","xpyriment","Jazzy James","3.1.9","yes","yes","59a800d99ad5a1025d81bb03","59a801616c613b0251691de0","no","no","0","j","f","space","NA","space","f","j","1040","4476","29865","NA","50516","23352","1040","2","legacy","1024","1","44100","-16","experiment","lkal","2","0","1","0","1","eng, spanish, portugues,","35","","odd","690946","660553","NA","NA","695423","690942","NA","41341","690474","456218","41341","550258","600778","804885","803380","805927","628785","624422","660552","NA","460759","534654","658867","624189","690946","624425","NA","804885","804885","745132","745129","803376","NAP perception","27","43599","37","yes","1024"
"71.0526315789","yes","71.0526315789","1169.94736842","1169.94736842","white","no","xpyriment","Ich habe die obigen Informationen gelesen und verstanden.","legacy","legacy","0","uniform","0","0","0","undefined","undefined","0","f","2","1","NA","0","1","0","0","0","0","0","0","0","0","47","47","47","0","0","0","NA","0","0","2","0","0","0","2","47","47","47","47","47","Thu Nov  2 14:24:14 2017","Forced-choice identification task with a practice and an experimental phase","yes","NAP_GER_AA_4blocks_noglides.osexp","/Users/aviadalbert/Documents/Academisch/UoC/Dissertation/Experiment/OpenSesame/NAP-FC/NAP_GER_AA_4blocks_noglides","yes","no","sans","no","20","no","black","no","Weiter","yes","768","legacy","37","9","0","/Users/aviadalbert/Documents/Academisch/UoC/Dissertation/Experiment/OpenSesame/NAP-FC/NAP_GER_AA_4blocks_noglides/subject-35.csv","xpyriment","Jazzy James","3.1.9","yes","yes","59a800d99ad5a1025d81bb03","59a801616c613b0251691de0","no","no","0","j","f","space","NA","space","f","j","859","4476","29865","NA","50516","23352","859","2","legacy","1024","1","44100","-16","experiment","lmal","2","0","1","0","1","eng, spanish, portugues,","35","","odd","690946","660553","NA","NA","695423","690942","NA","41341","690474","456218","41341","550258","600778","807725","806222","808586","628785","624422","660552","NA","460759","534654","658867","624189","690946","624425","NA","807725","807725","745132","745129","806218","NAP perception","27","44458","38","yes","1024"
"71.7948717949","yes","71.7948717949","1194.74358974","1194.74358974","white","no","xpyriment","Ich habe die obigen Informationen gelesen und verstanden.","legacy","legacy","0","uniform","1","0","0","undefined","undefined","1","f","2","1","NA","0","1","0","0","0","0","0","0","0","0","48","48","48","0","0","0","NA","0","0","2","0","0","0","2","48","48","48","48","48","Thu Nov  2 14:24:14 2017","Forced-choice identification task with a practice and an experimental phase","yes","NAP_GER_AA_4blocks_noglides.osexp","/Users/aviadalbert/Documents/Academisch/UoC/Dissertation/Experiment/OpenSesame/NAP-FC/NAP_GER_AA_4blocks_noglides","yes","no","sans","no","20","no","black","no","Weiter","yes","768","legacy","38","9","0","/Users/aviadalbert/Documents/Academisch/UoC/Dissertation/Experiment/OpenSesame/NAP-FC/NAP_GER_AA_4blocks_noglides/subject-35.csv","xpyriment","Jazzy James","3.1.9","yes","yes","59a800d99ad5a1025d81bb03","59a801616c613b0251691de0","no","no","0","f","f","space","NA","space","f","f","2137","4476","29865","NA","50516","23352","2137","2","legacy","1024","1","44100","-16","experiment","zmal","2","0","1","0","1","eng, spanish, portugues,","35","","odd","690946","660553","NA","NA","695423","690942","NA","41341","690474","456218","41341","550258","600778","810364","808858","812503","628785","624422","660552","NA","460759","534654","658867","624189","690946","624425","NA","810363","810363","745132","745129","808854","NAP perception","28","46595","39","yes","1024"
"72.5","yes","72.5","1191.8","1191.8","white","no","xpyriment","Ich habe die obigen Informationen gelesen und verstanden.","legacy","legacy","0","uniform","1","0","0","undefined","undefined","1","j","2","1","NA","0","1","0","0","0","0","0","0","0","0","49","49","49","0","0","0","NA","0","0","2","0","0","0","2","49","49","49","49","49","Thu Nov  2 14:24:14 2017","Forced-choice identification task with a practice and an experimental phase","yes","NAP_GER_AA_4blocks_noglides.osexp","/Users/aviadalbert/Documents/Academisch/UoC/Dissertation/Experiment/OpenSesame/NAP-FC/NAP_GER_AA_4blocks_noglides","yes","no","sans","no","20","no","black","no","Weiter","yes","768","legacy","39","9","0","/Users/aviadalbert/Documents/Academisch/UoC/Dissertation/Experiment/OpenSesame/NAP-FC/NAP_GER_AA_4blocks_noglides/subject-35.csv","xpyriment","Jazzy James","3.1.9","yes","yes","59a800d99ad5a1025d81bb03","59a801616c613b0251691de0","no","no","0","j","f","space","NA","space","f","j","1077","4476","29865","NA","50516","23352","1077","2","legacy","1024","1","44100","-16","experiment","efsal","2","0","1","0","1","eng, spanish, portugues,","35","","odd","690946","660553","NA","NA","695423","690942","NA","41341","690474","456218","41341","550258","600778","814296","812790","815375","628785","624422","660552","NA","460759","534654","658867","624189","690946","624425","NA","814296","814296","745132","745129","812785","NAP perception","29","47672","40","yes","1024"
"70.7317073171","yes","70.7317073171","1189.09756098","1189.09756098","white","no","xpyriment","Ich habe die obigen Informationen gelesen und verstanden.","legacy","legacy","0","uniform","0","0","0","undefined","undefined","0","f","2","1","NA","0","1","0","0","0","0","0","0","0","0","50","50","50","0","0","0","NA","0","0","2","0","0","0","2","50","50","50","50","50","Thu Nov  2 14:24:14 2017","Forced-choice identification task with a practice and an experimental phase","yes","NAP_GER_AA_4blocks_noglides.osexp","/Users/aviadalbert/Documents/Academisch/UoC/Dissertation/Experiment/OpenSesame/NAP-FC/NAP_GER_AA_4blocks_noglides","yes","no","sans","no","20","no","black","no","Weiter","yes","768","legacy","40","9","0","/Users/aviadalbert/Documents/Academisch/UoC/Dissertation/Experiment/OpenSesame/NAP-FC/NAP_GER_AA_4blocks_noglides/subject-35.csv","xpyriment","Jazzy James","3.1.9","yes","yes","59a800d99ad5a1025d81bb03","59a801616c613b0251691de0","no","no","0","j","f","space","NA","space","f","j","1081","4476","29865","NA","50516","23352","1081","2","legacy","1024","1","44100","-16","experiment","fnal","2","0","1","0","1","eng, spanish, portugues,","35","","odd","690946","660553","NA","NA","695423","690942","NA","41341","690474","456218","41341","550258","600778","817151","815647","818234","628785","624422","660552","NA","460759","534654","658867","624189","690946","624425","NA","817151","817151","745132","745129","815643","NAP perception","29","48753","41","yes","1024"
"69.0476190476","yes","69.0476190476","1185.5952381","1185.5952381","white","no","xpyriment","Ich habe die obigen Informationen gelesen und verstanden.","legacy","legacy","0","uniform","0","0","0","undefined","undefined","0","f","2","1","NA","0","1","0","0","0","0","0","0","0","0","51","51","51","0","0","0","NA","0","0","2","0","0","0","2","51","51","51","51","51","Thu Nov  2 14:24:14 2017","Forced-choice identification task with a practice and an experimental phase","yes","NAP_GER_AA_4blocks_noglides.osexp","/Users/aviadalbert/Documents/Academisch/UoC/Dissertation/Experiment/OpenSesame/NAP-FC/NAP_GER_AA_4blocks_noglides","yes","no","sans","no","20","no","black","no","Weiter","yes","768","legacy","41","9","0","/Users/aviadalbert/Documents/Academisch/UoC/Dissertation/Experiment/OpenSesame/NAP-FC/NAP_GER_AA_4blocks_noglides/subject-35.csv","xpyriment","Jazzy James","3.1.9","yes","yes","59a800d99ad5a1025d81bb03","59a801616c613b0251691de0","no","no","0","j","f","space","NA","space","f","j","1042","4476","29865","NA","50516","23352","1042","2","legacy","1024","1","44100","-16","experiment","lval","2","0","1","0","1","eng, spanish, portugues,","35","","odd","690946","660553","NA","NA","695423","690942","NA","41341","690474","456218","41341","550258","600778","820006","818500","821050","628785","624422","660552","NA","460759","534654","658867","624189","690946","624425","NA","820006","820006","745132","745129","818496","NAP perception","29","49795","42","yes","1024"
"69.7674418605","yes","69.7674418605","1180.62790698","1180.62790698","white","no","xpyriment","Ich habe die obigen Informationen gelesen und verstanden.","legacy","legacy","0","uniform","1","0","0","undefined","undefined","1","j","2","1","NA","0","1","0","0","0","0","0","0","0","0","52","52","52","0","0","0","NA","0","0","2","0","0","0","2","52","52","52","52","52","Thu Nov  2 14:24:14 2017","Forced-choice identification task with a practice and an experimental phase","yes","NAP_GER_AA_4blocks_noglides.osexp","/Users/aviadalbert/Documents/Academisch/UoC/Dissertation/Experiment/OpenSesame/NAP-FC/NAP_GER_AA_4blocks_noglides","yes","no","sans","no","20","no","black","no","Weiter","yes","768","legacy","42","9","0","/Users/aviadalbert/Documents/Academisch/UoC/Dissertation/Experiment/OpenSesame/NAP-FC/NAP_GER_AA_4blocks_noglides/subject-35.csv","xpyriment","Jazzy James","3.1.9","yes","yes","59a800d99ad5a1025d81bb03","59a801616c613b0251691de0","no","no","0","j","f","space","NA","space","f","j","972","4476","29865","NA","50516","23352","972","2","legacy","1024","1","44100","-16","experiment","evlal","2","0","1","0","1","eng, spanish, portugues,","35","","odd","690946","660553","NA","NA","695423","690942","NA","41341","690474","456218","41341","550258","600778","822839","821332","823813","628785","624422","660552","NA","460759","534654","658867","624189","690946","624425","NA","822839","822839","745132","745129","821328","NAP perception","30","50767","43","yes","1024"
"70.4545454545","yes","70.4545454545","1183.68181818","1183.68181818","white","no","xpyriment","Ich habe die obigen Informationen gelesen und verstanden.","legacy","legacy","0","uniform","1","0","0","undefined","undefined","1","f","2","1","NA","0","1","0","0","0","0","0","0","0","0","53","53","53","0","0","0","NA","0","0","2","0","0","0","2","53","53","53","53","53","Thu Nov  2 14:24:14 2017","Forced-choice identification task with a practice and an experimental phase","yes","NAP_GER_AA_4blocks_noglides.osexp","/Users/aviadalbert/Documents/Academisch/UoC/Dissertation/Experiment/OpenSesame/NAP-FC/NAP_GER_AA_4blocks_noglides","yes","no","sans","no","20","no","black","no","Weiter","yes","768","legacy","43","9","0","/Users/aviadalbert/Documents/Academisch/UoC/Dissertation/Experiment/OpenSesame/NAP-FC/NAP_GER_AA_4blocks_noglides/subject-35.csv","xpyriment","Jazzy James","3.1.9","yes","yes","59a800d99ad5a1025d81bb03","59a801616c613b0251691de0","no","no","0","f","f","space","NA","space","f","f","1315","4476","29865","NA","50516","23352","1315","2","legacy","1024","1","44100","-16","experiment","flal","2","0","1","0","1","eng, spanish, portugues,","35","","odd","690946","660553","NA","NA","695423","690942","NA","41341","690474","456218","41341","550258","600778","825602","824097","826918","628785","624422","660552","NA","460759","534654","658867","624189","690946","624425","NA","825602","825602","745132","745129","824093","NAP perception","31","52082","44","yes","1024"
"68.8888888889","yes","68.8888888889","1205.08888889","1205.08888889","white","no","xpyriment","Ich habe die obigen Informationen gelesen und verstanden.","legacy","legacy","0","uniform","0","0","0","undefined","undefined","0","f","2","1","NA","0","1","0","0","0","0","0","0","0","0","54","54","54","0","0","0","NA","0","0","2","0","0","0","2","54","54","54","54","54","Thu Nov  2 14:24:14 2017","Forced-choice identification task with a practice and an experimental phase","yes","NAP_GER_AA_4blocks_noglides.osexp","/Users/aviadalbert/Documents/Academisch/UoC/Dissertation/Experiment/OpenSesame/NAP-FC/NAP_GER_AA_4blocks_noglides","yes","no","sans","no","20","no","black","no","Weiter","yes","768","legacy","44","9","0","/Users/aviadalbert/Documents/Academisch/UoC/Dissertation/Experiment/OpenSesame/NAP-FC/NAP_GER_AA_4blocks_noglides/subject-35.csv","xpyriment","Jazzy James","3.1.9","yes","yes","59a800d99ad5a1025d81bb03","59a801616c613b0251691de0","no","no","0","j","f","space","NA","space","f","j","2147","4476","29865","NA","50516","23352","2147","2","legacy","1024","1","44100","-16","experiment","mnal","2","0","1","0","1","eng, spanish, portugues,","35","","odd","690946","660553","NA","NA","695423","690942","NA","41341","690474","456218","41341","550258","600778","828697","827193","830846","628785","624422","660552","NA","460759","534654","658867","624189","690946","624425","NA","828697","828697","745132","745129","827189","NAP perception","31","54229","45","yes","1024"
"69.5652173913","yes","69.5652173913","1198.02173913","1198.02173913","white","no","xpyriment","Ich habe die obigen Informationen gelesen und verstanden.","legacy","legacy","0","uniform","1","0","0","undefined","undefined","1","j","2","1","NA","0","1","0","0","0","0","0","0","0","0","55","55","55","0","0","0","NA","0","0","2","0","0","0","2","55","55","55","55","55","Thu Nov  2 14:24:14 2017","Forced-choice identification task with a practice and an experimental phase","yes","NAP_GER_AA_4blocks_noglides.osexp","/Users/aviadalbert/Documents/Academisch/UoC/Dissertation/Experiment/OpenSesame/NAP-FC/NAP_GER_AA_4blocks_noglides","yes","no","sans","no","20","no","black","no","Weiter","yes","768","legacy","45","9","0","/Users/aviadalbert/Documents/Academisch/UoC/Dissertation/Experiment/OpenSesame/NAP-FC/NAP_GER_AA_4blocks_noglides/subject-35.csv","xpyriment","Jazzy James","3.1.9","yes","yes","59a800d99ad5a1025d81bb03","59a801616c613b0251691de0","no","no","0","j","f","space","NA","space","f","j","880","4476","29865","NA","50516","23352","880","2","legacy","1024","1","44100","-16","experiment","mezal","2","0","1","0","1","eng, spanish, portugues,","35","","odd","690946","660553","NA","NA","695423","690942","NA","41341","690474","456218","41341","550258","600778","832629","831124","833511","628785","624422","660552","NA","460759","534654","658867","624189","690946","624425","NA","832628","832629","745132","745129","831120","NAP perception","32","55109","46","yes","1024"
"70.2127659574","yes","70.2127659574","1196.0212766","1196.0212766","white","no","xpyriment","Ich habe die obigen Informationen gelesen und verstanden.","legacy","legacy","0","uniform","1","0","0","undefined","undefined","1","f","2","1","NA","0","1","0","0","0","0","0","0","0","0","56","56","56","0","0","0","NA","0","0","2","0","0","0","2","56","56","56","56","56","Thu Nov  2 14:24:14 2017","Forced-choice identification task with a practice and an experimental phase","yes","NAP_GER_AA_4blocks_noglides.osexp","/Users/aviadalbert/Documents/Academisch/UoC/Dissertation/Experiment/OpenSesame/NAP-FC/NAP_GER_AA_4blocks_noglides","yes","no","sans","no","20","no","black","no","Weiter","yes","768","legacy","46","9","0","/Users/aviadalbert/Documents/Academisch/UoC/Dissertation/Experiment/OpenSesame/NAP-FC/NAP_GER_AA_4blocks_noglides/subject-35.csv","xpyriment","Jazzy James","3.1.9","yes","yes","59a800d99ad5a1025d81bb03","59a801616c613b0251691de0","no","no","0","f","f","space","NA","space","f","f","1104","4476","29865","NA","50516","23352","1104","2","legacy","1024","1","44100","-16","experiment","sfal","2","0","1","0","1","eng, spanish, portugues,","35","","odd","690946","660553","NA","NA","695423","690942","NA","41341","690474","456218","41341","550258","600778","835308","833803","836413","628785","624422","660552","NA","460759","534654","658867","624189","690946","624425","NA","835308","835308","745132","745129","833799","NAP perception","33","56213","47","yes","1024"
"68.75","yes","68.75","1196.08333333","1196.08333333","white","no","xpyriment","Ich habe die obigen Informationen gelesen und verstanden.","legacy","legacy","0","uniform","0","0","0","undefined","undefined","0","f","2","1","NA","0","1","0","0","0","0","0","0","0","0","57","57","57","0","0","0","NA","0","0","2","0","0","0","2","57","57","57","57","57","Thu Nov  2 14:24:14 2017","Forced-choice identification task with a practice and an experimental phase","yes","NAP_GER_AA_4blocks_noglides.osexp","/Users/aviadalbert/Documents/Academisch/UoC/Dissertation/Experiment/OpenSesame/NAP-FC/NAP_GER_AA_4blocks_noglides","yes","no","sans","no","20","no","black","no","Weiter","yes","768","legacy","47","9","0","/Users/aviadalbert/Documents/Academisch/UoC/Dissertation/Experiment/OpenSesame/NAP-FC/NAP_GER_AA_4blocks_noglides/subject-35.csv","xpyriment","Jazzy James","3.1.9","yes","yes","59a800d99ad5a1025d81bb03","59a801616c613b0251691de0","no","no","0","j","f","space","NA","space","f","j","1199","4476","29865","NA","50516","23352","1199","2","legacy","1024","1","44100","-16","experiment","vnal","2","0","1","0","1","eng, spanish, portugues,","35","","odd","690946","660553","NA","NA","695423","690942","NA","41341","690474","456218","41341","550258","600778","838198","836695","839398","628785","624422","660552","NA","460759","534654","658867","624189","690946","624425","NA","838198","838198","745132","745129","836691","NAP perception","33","57412","48","yes","1024"
"67.3469387755","yes","67.3469387755","1202.53061224","1202.53061224","white","no","xpyriment","Ich habe die obigen Informationen gelesen und verstanden.","legacy","legacy","0","uniform","0","0","0","undefined","undefined","0","f","2","1","NA","0","1","0","0","0","0","0","0","0","0","58","58","58","0","0","0","NA","0","0","2","0","0","0","2","58","58","58","58","58","Thu Nov  2 14:24:14 2017","Forced-choice identification task with a practice and an experimental phase","yes","NAP_GER_AA_4blocks_noglides.osexp","/Users/aviadalbert/Documents/Academisch/UoC/Dissertation/Experiment/OpenSesame/NAP-FC/NAP_GER_AA_4blocks_noglides","yes","no","sans","no","20","no","black","no","Weiter","yes","768","legacy","48","9","0","/Users/aviadalbert/Documents/Academisch/UoC/Dissertation/Experiment/OpenSesame/NAP-FC/NAP_GER_AA_4blocks_noglides/subject-35.csv","xpyriment","Jazzy James","3.1.9","yes","yes","59a800d99ad5a1025d81bb03","59a801616c613b0251691de0","no","no","0","j","f","space","NA","space","f","j","1512","4476","29865","NA","50516","23352","1512","2","legacy","1024","1","44100","-16","experiment","ftal","2","0","1","0","1","eng, spanish, portugues,","35","","odd","690946","660553","NA","NA","695423","690942","NA","41341","690474","456218","41341","550258","600778","841183","839677","842697","628785","624422","660552","NA","460759","534654","658867","624189","690946","624425","NA","841183","841183","745132","745129","839673","NAP perception","33","58924","49","yes","1024"
"68","yes","68","1205.44","1205.44","white","no","xpyriment","Ich habe die obigen Informationen gelesen und verstanden.","legacy","legacy","0","uniform","1","0","0","undefined","undefined","1","f","2","1","NA","0","1","0","0","0","0","0","0","0","0","59","59","59","0","0","0","NA","0","0","2","0","0","0","2","59","59","59","59","59","Thu Nov  2 14:24:14 2017","Forced-choice identification task with a practice and an experimental phase","yes","NAP_GER_AA_4blocks_noglides.osexp","/Users/aviadalbert/Documents/Academisch/UoC/Dissertation/Experiment/OpenSesame/NAP-FC/NAP_GER_AA_4blocks_noglides","yes","no","sans","no","20","no","black","no","Weiter","yes","768","legacy","49","9","0","/Users/aviadalbert/Documents/Academisch/UoC/Dissertation/Experiment/OpenSesame/NAP-FC/NAP_GER_AA_4blocks_noglides/subject-35.csv","xpyriment","Jazzy James","3.1.9","yes","yes","59a800d99ad5a1025d81bb03","59a801616c613b0251691de0","no","no","0","f","f","space","NA","space","f","f","1348","4476","29865","NA","50516","23352","1348","2","legacy","1024","1","44100","-16","experiment","smal","2","0","1","0","1","eng, spanish, portugues,","35","","odd","690946","660553","NA","NA","695423","690942","NA","41341","690474","456218","41341","550258","600778","844474","842969","845824","628785","624422","660552","NA","460759","534654","658867","624189","690946","624425","NA","844473","844474","745132","745129","842965","NAP perception","34","60272","50","yes","1024"
"66.6666666667","yes","66.6666666667","1228.50980392","1228.50980392","white","no","xpyriment","Ich habe die obigen Informationen gelesen und verstanden.","legacy","legacy","0","uniform","0","0","0","undefined","undefined","0","f","2","1","NA","0","1","0","0","0","0","0","0","0","0","60","60","60","0","0","0","NA","0","0","2","0","0","0","2","60","60","60","60","60","Thu Nov  2 14:24:14 2017","Forced-choice identification task with a practice and an experimental phase","yes","NAP_GER_AA_4blocks_noglides.osexp","/Users/aviadalbert/Documents/Academisch/UoC/Dissertation/Experiment/OpenSesame/NAP-FC/NAP_GER_AA_4blocks_noglides","yes","no","sans","no","20","no","black","no","Weiter","yes","768","legacy","50","9","0","/Users/aviadalbert/Documents/Academisch/UoC/Dissertation/Experiment/OpenSesame/NAP-FC/NAP_GER_AA_4blocks_noglides/subject-35.csv","xpyriment","Jazzy James","3.1.9","yes","yes","59a800d99ad5a1025d81bb03","59a801616c613b0251691de0","no","no","0","j","f","space","NA","space","f","j","2382","4476","29865","NA","50516","23352","2382","2","legacy","1024","1","44100","-16","experiment","mlal","2","0","1","0","1","eng, spanish, portugues,","35","","odd","690946","660553","NA","NA","695423","690942","NA","41341","690474","456218","41341","550258","600778","847597","846092","849980","628785","624422","660552","NA","460759","534654","658867","624189","690946","624425","NA","847596","847596","745132","745129","846088","NAP perception","34","62654","51","yes","1024"
"65.3846153846","yes","65.3846153846","1231.17307692","1231.17307692","white","no","xpyriment","Ich habe die obigen Informationen gelesen und verstanden.","legacy","legacy","0","uniform","0","0","0","undefined","undefined","0","f","2","1","NA","0","1","0","0","0","0","0","0","0","0","61","61","61","0","0","0","NA","0","0","2","0","0","0","2","61","61","61","61","61","Thu Nov  2 14:24:14 2017","Forced-choice identification task with a practice and an experimental phase","yes","NAP_GER_AA_4blocks_noglides.osexp","/Users/aviadalbert/Documents/Academisch/UoC/Dissertation/Experiment/OpenSesame/NAP-FC/NAP_GER_AA_4blocks_noglides","yes","no","sans","no","20","no","black","no","Weiter","yes","768","legacy","51","9","0","/Users/aviadalbert/Documents/Academisch/UoC/Dissertation/Experiment/OpenSesame/NAP-FC/NAP_GER_AA_4blocks_noglides/subject-35.csv","xpyriment","Jazzy James","3.1.9","yes","yes","59a800d99ad5a1025d81bb03","59a801616c613b0251691de0","no","no","0","j","f","space","NA","space","f","j","1367","4476","29865","NA","50516","23352","1367","2","legacy","1024","1","44100","-16","experiment","zval","2","0","1","0","1","eng, spanish, portugues,","35","","odd","690946","660553","NA","NA","695423","690942","NA","41341","690474","456218","41341","550258","600778","851760","850257","853128","628785","624422","660552","NA","460759","534654","658867","624189","690946","624425","NA","851760","851760","745132","745129","850253","NAP perception","34","64021","52","yes","1024"
"66.0377358491","yes","66.0377358491","1240.98113208","1240.98113208","white","no","xpyriment","Ich habe die obigen Informationen gelesen und verstanden.","legacy","legacy","0","uniform","1","0","0","undefined","undefined","1","j","2","1","NA","0","1","0","0","0","0","0","0","0","0","62","62","62","0","0","0","NA","0","0","2","0","0","0","2","62","62","62","62","62","Thu Nov  2 14:24:14 2017","Forced-choice identification task with a practice and an experimental phase","yes","NAP_GER_AA_4blocks_noglides.osexp","/Users/aviadalbert/Documents/Academisch/UoC/Dissertation/Experiment/OpenSesame/NAP-FC/NAP_GER_AA_4blocks_noglides","yes","no","sans","no","20","no","black","no","Weiter","yes","768","legacy","52","9","0","/Users/aviadalbert/Documents/Academisch/UoC/Dissertation/Experiment/OpenSesame/NAP-FC/NAP_GER_AA_4blocks_noglides/subject-35.csv","xpyriment","Jazzy James","3.1.9","yes","yes","59a800d99ad5a1025d81bb03","59a801616c613b0251691de0","no","no","0","j","f","space","NA","space","f","j","1751","4476","29865","NA","50516","23352","1751","2","legacy","1024","1","44100","-16","experiment","velal","2","0","1","0","1","eng, spanish, portugues,","35","","odd","690946","660553","NA","NA","695423","690942","NA","41341","690474","456218","41341","550258","600778","854908","853401","856660","628785","624422","660552","NA","460759","534654","658867","624189","690946","624425","NA","854908","854908","745132","745129","853397","NAP perception","35","65772","53","yes","1024"
"66.6666666667","yes","66.6666666667","1236.68518519","1236.68518519","white","no","xpyriment","Ich habe die obigen Informationen gelesen und verstanden.","legacy","legacy","0","uniform","1","0","0","undefined","undefined","1","f","2","1","NA","0","1","0","0","0","0","0","0","0","0","63","63","63","0","0","0","NA","0","0","2","0","0","0","2","63","63","63","63","63","Thu Nov  2 14:24:14 2017","Forced-choice identification task with a practice and an experimental phase","yes","NAP_GER_AA_4blocks_noglides.osexp","/Users/aviadalbert/Documents/Academisch/UoC/Dissertation/Experiment/OpenSesame/NAP-FC/NAP_GER_AA_4blocks_noglides","yes","no","sans","no","20","no","black","no","Weiter","yes","768","legacy","53","9","0","/Users/aviadalbert/Documents/Academisch/UoC/Dissertation/Experiment/OpenSesame/NAP-FC/NAP_GER_AA_4blocks_noglides/subject-35.csv","xpyriment","Jazzy James","3.1.9","yes","yes","59a800d99ad5a1025d81bb03","59a801616c613b0251691de0","no","no","0","f","f","space","NA","space","f","f","1009","4476","29865","NA","50516","23352","1009","2","legacy","1024","1","44100","-16","experiment","spal","2","0","1","0","1","eng, spanish, portugues,","35","","odd","690946","660553","NA","NA","695423","690942","NA","41341","690474","456218","41341","550258","600778","858450","856947","859461","628785","624422","660552","NA","460759","534654","658867","624189","690946","624425","NA","858450","858450","745132","745129","856943","NAP perception","36","66781","54","yes","1024"
"67.2727272727","yes","67.2727272727","1243.23636364","1243.23636364","white","no","xpyriment","Ich habe die obigen Informationen gelesen und verstanden.","legacy","legacy","0","uniform","1","0","0","undefined","undefined","1","j","2","1","NA","0","1","0","0","0","0","0","0","0","0","64","64","64","0","0","0","NA","0","0","2","0","0","0","2","64","64","64","64","64","Thu Nov  2 14:24:14 2017","Forced-choice identification task with a practice and an experimental phase","yes","NAP_GER_AA_4blocks_noglides.osexp","/Users/aviadalbert/Documents/Academisch/UoC/Dissertation/Experiment/OpenSesame/NAP-FC/NAP_GER_AA_4blocks_noglides","yes","no","sans","no","20","no","black","no","Weiter","yes","768","legacy","54","9","0","/Users/aviadalbert/Documents/Academisch/UoC/Dissertation/Experiment/OpenSesame/NAP-FC/NAP_GER_AA_4blocks_noglides/subject-35.csv","xpyriment","Jazzy James","3.1.9","yes","yes","59a800d99ad5a1025d81bb03","59a801616c613b0251691de0","no","no","0","j","f","space","NA","space","f","j","1597","4476","29865","NA","50516","23352","1597","2","legacy","1024","1","44100","-16","experiment","esmal","2","0","1","0","1","eng, spanish, portugues,","35","","odd","690946","660553","NA","NA","695423","690942","NA","41341","690474","456218","41341","550258","600778","861246","859741","862845","628785","624422","660552","NA","460759","534654","658867","624189","690946","624425","NA","861246","861246","745132","745129","859737","NAP perception","37","68378","55","yes","1024"
"67.8571428571","yes","67.8571428571","1258.85714286","1258.85714286","white","no","xpyriment","Ich habe die obigen Informationen gelesen und verstanden.","legacy","legacy","0","uniform","1","0","0","undefined","undefined","1","j","2","1","NA","0","1","0","0","0","0","0","0","0","0","65","65","65","0","0","0","NA","0","0","2","0","0","0","2","65","65","65","65","65","Thu Nov  2 14:24:14 2017","Forced-choice identification task with a practice and an experimental phase","yes","NAP_GER_AA_4blocks_noglides.osexp","/Users/aviadalbert/Documents/Academisch/UoC/Dissertation/Experiment/OpenSesame/NAP-FC/NAP_GER_AA_4blocks_noglides","yes","no","sans","no","20","no","black","no","Weiter","yes","768","legacy","55","9","0","/Users/aviadalbert/Documents/Academisch/UoC/Dissertation/Experiment/OpenSesame/NAP-FC/NAP_GER_AA_4blocks_noglides/subject-35.csv","xpyriment","Jazzy James","3.1.9","yes","yes","59a800d99ad5a1025d81bb03","59a801616c613b0251691de0","no","no","0","j","f","space","NA","space","f","j","2118","4476","29865","NA","50516","23352","2118","2","legacy","1024","1","44100","-16","experiment","leval","2","0","1","0","1","eng, spanish, portugues,","35","","odd","690946","660553","NA","NA","695423","690942","NA","41341","690474","456218","41341","550258","600778","864629","863126","866749","628785","624422","660552","NA","460759","534654","658867","624189","690946","624425","NA","864629","864629","745132","745129","863122","NAP perception","38","70496","56","yes","1024"
