"acc","accept_status","accuracy","average_response_time","avg_rt","background","bidi","canvas_backend","checkbox_status","clock_backend","color_backend","compensation","coordinates","correct","correct_block_activation","correct_block_exit","correct_instructions_1","correct_instructions_2","correct_keyboard_response","correct_response","count_block_activation","count_block_exit","count_block_info_QA","count_cont_e_block_message","count_e_block_loop","count_e_block_sequence","count_end_of_experiment","count_experiment","count_experimental_loop","count_form_consent","count_info_forms","count_instructions_1","count_instructions_2","count_keyboard_response","count_listen_message","count_logger","count_p_block_loop","count_p_block_sequence","count_p_feedback","count_pause_feedback","count_personal_details_form_1","count_personal_details_form_2","count_post_loop_blank","count_practice_loop","count_pre_e_block_message","count_pre_p_block_message","count_reset_feedback","count_stimulus_image","count_stimulus_sound","count_timeout_message","count_timeout_sound","count_trial_sequence","datetime","description","disable_garbage_collection","experiment_file","experiment_path","expyriment_opengl","font_bold","font_family","font_italic","font_size","font_underline","foreground","form_clicks","form_response","fullscreen","height","keyboard_backend","live_row","live_row_p_block_loop","live_row_practice_loop","logfile","mouse_backend","opensesame_codename","opensesame_version","osf_always_upload_data","osf_always_upload_experiment","osf_datanode_id","osf_id","practice","pygame_doublebuf","repeat_cycle","response","response_block_activation","response_block_exit","response_block_info_QA","response_instructions_1","response_instructions_2","response_keyboard_response","response_time","response_time_block_activation","response_time_block_exit","response_time_block_info_QA","response_time_instructions_1","response_time_instructions_2","response_time_keyboard_response","round_decimals","sampler_backend","sound_buf_size","sound_channels","sound_freq","sound_sample_size","start","stimulus","subject_age","subject_education","subject_gender","subject_german_native","subject_handedness","subject_language_other","subject_nr","subject_other_native_lang","subject_parity","time_block_activation","time_block_exit","time_block_info_QA","time_cont_e_block_message","time_e_block_loop","time_e_block_sequence","time_end_of_experiment","time_experiment","time_experimental_loop","time_form_consent","time_info_forms","time_instructions_1","time_instructions_2","time_keyboard_response","time_listen_message","time_logger","time_p_block_loop","time_p_block_sequence","time_p_feedback","time_pause_feedback","time_personal_details_form_1","time_personal_details_form_2","time_post_loop_blank","time_practice_loop","time_pre_e_block_message","time_pre_p_block_message","time_reset_feedback","time_stimulus_image","time_stimulus_sound","time_timeout_message","time_timeout_sound","time_trial_sequence","title","total_correct","total_response_time","total_responses","uniform_coordinates","width"
"100","yes","100","1217","1217","white","no","xpyriment","Ich habe die obigen Informationen gelesen und verstanden.","legacy","legacy","0","uniform","1","0","NA","undefined","undefined","1","f","0","0","NA","NA","NA","NA","NA","0","0","0","0","0","0","0","0","0","0","0","NA","NA","0","0","0","0","NA","0","0","0","0","0","0","0","Fri Nov  3 10:45:04 2017","Forced-choice identification task with a practice and an experimental phase","yes","NAP_GER_AA_4blocks_noglides.osexp","/Users/aviadalbert/Documents/Academisch/UoC/Dissertation/Experiment/OpenSesame/NAP-FC/NAP_GER_AA_4blocks_noglides","yes","no","sans","no","20","no","black","no","Weiter","yes","768","legacy","0","0","0","/Users/aviadalbert/Documents/Academisch/UoC/Dissertation/Experiment/OpenSesame/NAP-FC/NAP_GER_AA_4blocks_noglides/subject-38.csv","xpyriment","Jazzy James","3.1.9","yes","yes","59a800d99ad5a1025d81bb03","59a801616c613b0251691de0","yes","no","0","f","f","NA","NA","j","f","f","1217","3458","NA","NA","26299","12460","1217","2","legacy","1024","1","44100","-16","experiment","flal","2","0","0","1","1","Englisch, Spanisch, Schwedisch, (Dutch)","38","Niederdeutsch","even","2282249","NA","NA","NA","NA","NA","NA","1351069","NA","1351069","1351069","2243191","2269494","2287410","2285907","2288628","2285708","2282245","NA","NA","2073688","2234535","NA","2282021","NA","2282249","NA","2287410","2287410","NA","NA","2285903","NAP perception","1","1217","1","yes","1024"
"100","yes","100","1091","1091","white","no","xpyriment","Ich habe die obigen Informationen gelesen und verstanden.","legacy","legacy","0","uniform","1","0","NA","undefined","undefined","1","j","0","0","NA","NA","NA","NA","NA","0","0","0","0","0","0","1","1","1","0","0","NA","NA","0","0","0","0","NA","0","0","1","1","1","1","1","Fri Nov  3 10:45:04 2017","Forced-choice identification task with a practice and an experimental phase","yes","NAP_GER_AA_4blocks_noglides.osexp","/Users/aviadalbert/Documents/Academisch/UoC/Dissertation/Experiment/OpenSesame/NAP-FC/NAP_GER_AA_4blocks_noglides","yes","no","sans","no","20","no","black","no","Weiter","yes","768","legacy","1","1","0","/Users/aviadalbert/Documents/Academisch/UoC/Dissertation/Experiment/OpenSesame/NAP-FC/NAP_GER_AA_4blocks_noglides/subject-38.csv","xpyriment","Jazzy James","3.1.9","yes","yes","59a800d99ad5a1025d81bb03","59a801616c613b0251691de0","yes","no","0","j","f","NA","NA","j","f","j","965","3458","NA","NA","26299","12460","965","2","legacy","1024","1","44100","-16","experiment","lepal","2","0","0","1","1","Englisch, Spanisch, Schwedisch, (Dutch)","38","Niederdeutsch","even","2282249","NA","NA","NA","NA","NA","NA","1351069","NA","1351069","1351069","2243191","2269494","2290408","2288905","2291374","2285708","2282245","NA","NA","2073688","2234535","NA","2282021","NA","2282249","NA","2290408","2290408","NA","NA","2288901","NAP perception","2","2182","2","yes","1024"
"100","yes","100","1036.66666667","1036.66666667","white","no","xpyriment","Ich habe die obigen Informationen gelesen und verstanden.","legacy","legacy","0","uniform","1","0","NA","undefined","undefined","1","j","0","0","NA","NA","NA","NA","NA","0","0","0","0","0","0","2","2","2","0","0","NA","NA","0","0","0","0","NA","0","0","2","2","2","2","2","Fri Nov  3 10:45:04 2017","Forced-choice identification task with a practice and an experimental phase","yes","NAP_GER_AA_4blocks_noglides.osexp","/Users/aviadalbert/Documents/Academisch/UoC/Dissertation/Experiment/OpenSesame/NAP-FC/NAP_GER_AA_4blocks_noglides","yes","no","sans","no","20","no","black","no","Weiter","yes","768","legacy","2","2","0","/Users/aviadalbert/Documents/Academisch/UoC/Dissertation/Experiment/OpenSesame/NAP-FC/NAP_GER_AA_4blocks_noglides/subject-38.csv","xpyriment","Jazzy James","3.1.9","yes","yes","59a800d99ad5a1025d81bb03","59a801616c613b0251691de0","yes","no","0","j","f","NA","NA","j","f","j","928","3458","NA","NA","26299","12460","928","2","legacy","1024","1","44100","-16","experiment","emtal","2","0","0","1","1","Englisch, Spanisch, Schwedisch, (Dutch)","38","Niederdeutsch","even","2282249","NA","NA","NA","NA","NA","NA","1351069","NA","1351069","1351069","2243191","2269494","2293155","2291652","2294084","2285708","2282245","NA","NA","2073688","2234535","NA","2282021","NA","2282249","NA","2293155","2293155","NA","NA","2291648","NAP perception","3","3110","3","yes","1024"
"100","yes","100","1082.75","1082.75","white","no","xpyriment","Ich habe die obigen Informationen gelesen und verstanden.","legacy","legacy","0","uniform","1","0","NA","undefined","undefined","1","f","0","0","NA","NA","NA","NA","NA","0","0","0","0","0","0","3","3","3","0","0","NA","NA","0","0","0","0","NA","0","0","3","3","3","3","3","Fri Nov  3 10:45:04 2017","Forced-choice identification task with a practice and an experimental phase","yes","NAP_GER_AA_4blocks_noglides.osexp","/Users/aviadalbert/Documents/Academisch/UoC/Dissertation/Experiment/OpenSesame/NAP-FC/NAP_GER_AA_4blocks_noglides","yes","no","sans","no","20","no","black","no","Weiter","yes","768","legacy","3","3","0","/Users/aviadalbert/Documents/Academisch/UoC/Dissertation/Experiment/OpenSesame/NAP-FC/NAP_GER_AA_4blocks_noglides/subject-38.csv","xpyriment","Jazzy James","3.1.9","yes","yes","59a800d99ad5a1025d81bb03","59a801616c613b0251691de0","yes","no","0","f","f","NA","NA","j","f","f","1221","3458","NA","NA","26299","12460","1221","2","legacy","1024","1","44100","-16","experiment","ʃpal","2","0","0","1","1","Englisch, Spanisch, Schwedisch, (Dutch)","38","Niederdeutsch","even","2282249","NA","NA","NA","NA","NA","NA","1351069","NA","1351069","1351069","2243191","2269494","2295856","2294353","2297078","2285708","2282245","NA","NA","2073688","2234535","NA","2282021","NA","2282249","NA","2295856","2295856","NA","NA","2294349","NAP perception","4","4331","4","yes","1024"
"100","yes","100","1102.8","1102.8","white","no","xpyriment","Ich habe die obigen Informationen gelesen und verstanden.","legacy","legacy","0","uniform","1","0","NA","undefined","undefined","1","j","0","0","NA","NA","NA","NA","NA","0","0","0","0","0","0","4","4","4","0","0","NA","NA","0","0","0","0","NA","0","0","4","4","4","4","4","Fri Nov  3 10:45:04 2017","Forced-choice identification task with a practice and an experimental phase","yes","NAP_GER_AA_4blocks_noglides.osexp","/Users/aviadalbert/Documents/Academisch/UoC/Dissertation/Experiment/OpenSesame/NAP-FC/NAP_GER_AA_4blocks_noglides","yes","no","sans","no","20","no","black","no","Weiter","yes","768","legacy","4","4","0","/Users/aviadalbert/Documents/Academisch/UoC/Dissertation/Experiment/OpenSesame/NAP-FC/NAP_GER_AA_4blocks_noglides/subject-38.csv","xpyriment","Jazzy James","3.1.9","yes","yes","59a800d99ad5a1025d81bb03","59a801616c613b0251691de0","yes","no","0","j","f","NA","NA","j","f","j","1183","3458","NA","NA","26299","12460","1183","2","legacy","1024","1","44100","-16","experiment","nefal","2","0","0","1","1","Englisch, Spanisch, Schwedisch, (Dutch)","38","Niederdeutsch","even","2282249","NA","NA","NA","NA","NA","NA","1351069","NA","1351069","1351069","2243191","2269494","2298869","2297362","2300053","2285708","2282245","NA","NA","2073688","2234535","NA","2282021","NA","2282249","NA","2298869","2298869","NA","NA","2297358","NAP perception","5","5514","5","yes","1024"
"100","yes","100","1224.83333333","1224.83333333","white","no","xpyriment","Ich habe die obigen Informationen gelesen und verstanden.","legacy","legacy","0","uniform","1","0","NA","undefined","undefined","1","f","0","0","NA","NA","NA","NA","NA","0","0","0","0","0","0","5","5","5","0","0","NA","NA","0","0","0","0","NA","0","0","5","5","5","5","5","Fri Nov  3 10:45:04 2017","Forced-choice identification task with a practice and an experimental phase","yes","NAP_GER_AA_4blocks_noglides.osexp","/Users/aviadalbert/Documents/Academisch/UoC/Dissertation/Experiment/OpenSesame/NAP-FC/NAP_GER_AA_4blocks_noglides","yes","no","sans","no","20","no","black","no","Weiter","yes","768","legacy","5","5","0","/Users/aviadalbert/Documents/Academisch/UoC/Dissertation/Experiment/OpenSesame/NAP-FC/NAP_GER_AA_4blocks_noglides/subject-38.csv","xpyriment","Jazzy James","3.1.9","yes","yes","59a800d99ad5a1025d81bb03","59a801616c613b0251691de0","yes","no","0","f","f","NA","NA","j","f","f","1835","3458","NA","NA","26299","12460","1835","2","legacy","1024","1","44100","-16","experiment","sfal","2","0","0","1","1","Englisch, Spanisch, Schwedisch, (Dutch)","38","Niederdeutsch","even","2282249","NA","NA","NA","NA","NA","NA","1351069","NA","1351069","1351069","2243191","2269494","2301842","2300339","2303678","2285708","2282245","NA","NA","2073688","2234535","NA","2282021","NA","2282249","NA","2301842","2301842","NA","NA","2300335","NAP perception","6","7349","6","yes","1024"
"100","yes","100","1337.71428571","1337.71428571","white","no","xpyriment","Ich habe die obigen Informationen gelesen und verstanden.","legacy","legacy","0","uniform","1","0","NA","undefined","undefined","1","f","0","0","NA","NA","NA","NA","NA","0","0","0","0","0","0","6","6","6","0","0","NA","NA","0","0","0","0","NA","0","0","6","6","6","6","6","Fri Nov  3 10:45:04 2017","Forced-choice identification task with a practice and an experimental phase","yes","NAP_GER_AA_4blocks_noglides.osexp","/Users/aviadalbert/Documents/Academisch/UoC/Dissertation/Experiment/OpenSesame/NAP-FC/NAP_GER_AA_4blocks_noglides","yes","no","sans","no","20","no","black","no","Weiter","yes","768","legacy","6","6","0","/Users/aviadalbert/Documents/Academisch/UoC/Dissertation/Experiment/OpenSesame/NAP-FC/NAP_GER_AA_4blocks_noglides/subject-38.csv","xpyriment","Jazzy James","3.1.9","yes","yes","59a800d99ad5a1025d81bb03","59a801616c613b0251691de0","yes","no","0","f","f","NA","NA","j","f","f","2015","3458","NA","NA","26299","12460","2015","2","legacy","1024","1","44100","-16","experiment","zmal","2","0","0","1","1","Englisch, Spanisch, Schwedisch, (Dutch)","38","Niederdeutsch","even","2282249","NA","NA","NA","NA","NA","NA","1351069","NA","1351069","1351069","2243191","2269494","2305442","2303935","2307459","2285708","2282245","NA","NA","2073688","2234535","NA","2282021","NA","2282249","NA","2305442","2305442","NA","NA","2303931","NAP perception","7","9364","7","yes","1024"
"100","yes","100","1322.875","1322.875","white","no","xpyriment","Ich habe die obigen Informationen gelesen und verstanden.","legacy","legacy","0","uniform","1","0","NA","undefined","undefined","1","j","0","0","NA","NA","NA","NA","NA","0","0","0","0","0","0","7","7","7","0","0","NA","NA","0","0","0","0","NA","0","0","7","7","7","7","7","Fri Nov  3 10:45:04 2017","Forced-choice identification task with a practice and an experimental phase","yes","NAP_GER_AA_4blocks_noglides.osexp","/Users/aviadalbert/Documents/Academisch/UoC/Dissertation/Experiment/OpenSesame/NAP-FC/NAP_GER_AA_4blocks_noglides","yes","no","sans","no","20","no","black","no","Weiter","yes","768","legacy","7","7","0","/Users/aviadalbert/Documents/Academisch/UoC/Dissertation/Experiment/OpenSesame/NAP-FC/NAP_GER_AA_4blocks_noglides/subject-38.csv","xpyriment","Jazzy James","3.1.9","yes","yes","59a800d99ad5a1025d81bb03","59a801616c613b0251691de0","yes","no","0","j","f","NA","NA","j","f","j","1219","3458","NA","NA","26299","12460","1219","2","legacy","1024","1","44100","-16","experiment","mesal","2","0","0","1","1","Englisch, Spanisch, Schwedisch, (Dutch)","38","Niederdeutsch","even","2282249","NA","NA","NA","NA","NA","NA","1351069","NA","1351069","1351069","2243191","2269494","2309233","2307729","2310453","2285708","2282245","NA","NA","2073688","2234535","NA","2282021","NA","2282249","NA","2309232","2309233","NA","NA","2307725","NAP perception","8","10583","8","yes","1024"
"100","yes","100","1339.66666667","1339.66666667","white","no","xpyriment","Ich habe die obigen Informationen gelesen und verstanden.","legacy","legacy","0","uniform","1","0","NA","undefined","undefined","1","j","0","0","NA","NA","NA","NA","NA","0","0","0","0","0","0","8","8","8","0","0","NA","NA","0","0","0","0","NA","0","0","8","8","8","8","8","Fri Nov  3 10:45:04 2017","Forced-choice identification task with a practice and an experimental phase","yes","NAP_GER_AA_4blocks_noglides.osexp","/Users/aviadalbert/Documents/Academisch/UoC/Dissertation/Experiment/OpenSesame/NAP-FC/NAP_GER_AA_4blocks_noglides","yes","no","sans","no","20","no","black","no","Weiter","yes","768","legacy","8","8","0","/Users/aviadalbert/Documents/Academisch/UoC/Dissertation/Experiment/OpenSesame/NAP-FC/NAP_GER_AA_4blocks_noglides/subject-38.csv","xpyriment","Jazzy James","3.1.9","yes","yes","59a800d99ad5a1025d81bb03","59a801616c613b0251691de0","yes","no","0","j","f","NA","NA","j","f","j","1474","3458","NA","NA","26299","12460","1474","2","legacy","1024","1","44100","-16","experiment","enval","2","0","0","1","1","Englisch, Spanisch, Schwedisch, (Dutch)","38","Niederdeutsch","even","2282249","NA","NA","NA","NA","NA","NA","1351069","NA","1351069","1351069","2243191","2269494","2312223","2310720","2313699","2285708","2282245","NA","NA","2073688","2234535","NA","2282021","NA","2282249","NA","2312223","2312223","NA","NA","2310716","NAP perception","9","12057","9","yes","1024"
"100","yes","100","1316.1","1316.1","white","no","xpyriment","Ich habe die obigen Informationen gelesen und verstanden.","legacy","legacy","0","uniform","1","0","NA","undefined","undefined","1","f","0","0","NA","NA","NA","NA","NA","0","0","0","0","0","0","9","9","9","0","0","NA","NA","0","0","0","0","NA","0","0","9","9","9","9","9","Fri Nov  3 10:45:04 2017","Forced-choice identification task with a practice and an experimental phase","yes","NAP_GER_AA_4blocks_noglides.osexp","/Users/aviadalbert/Documents/Academisch/UoC/Dissertation/Experiment/OpenSesame/NAP-FC/NAP_GER_AA_4blocks_noglides","yes","no","sans","no","20","no","black","no","Weiter","yes","768","legacy","9","9","0","/Users/aviadalbert/Documents/Academisch/UoC/Dissertation/Experiment/OpenSesame/NAP-FC/NAP_GER_AA_4blocks_noglides/subject-38.csv","xpyriment","Jazzy James","3.1.9","yes","yes","59a800d99ad5a1025d81bb03","59a801616c613b0251691de0","yes","no","0","f","f","NA","NA","j","f","f","1104","3458","NA","NA","26299","12460","1104","2","legacy","1024","1","44100","-16","experiment","vlal","2","0","0","1","1","Englisch, Spanisch, Schwedisch, (Dutch)","38","Niederdeutsch","even","2282249","NA","NA","NA","NA","NA","NA","1351069","NA","1351069","1351069","2243191","2269494","2315483","2313976","2316588","2285708","2282245","NA","NA","2073688","2234535","NA","2282021","NA","2282249","NA","2315483","2315483","NA","NA","2313972","NAP perception","10","13161","10","yes","1024"
"0","yes","0","1552","1552","white","no","xpyriment","Ich habe die obigen Informationen gelesen und verstanden.","legacy","legacy","0","uniform","0","0","0","undefined","undefined","0","f","2","1","NA","0","1","0","0","0","0","0","0","0","0","10","10","10","0","0","0","NA","0","0","2","0","0","0","2","10","10","10","10","10","Fri Nov  3 10:45:04 2017","Forced-choice identification task with a practice and an experimental phase","yes","NAP_GER_AA_4blocks_noglides.osexp","/Users/aviadalbert/Documents/Academisch/UoC/Dissertation/Experiment/OpenSesame/NAP-FC/NAP_GER_AA_4blocks_noglides","yes","no","sans","no","20","no","black","no","Weiter","yes","768","legacy","0","9","0","/Users/aviadalbert/Documents/Academisch/UoC/Dissertation/Experiment/OpenSesame/NAP-FC/NAP_GER_AA_4blocks_noglides/subject-38.csv","xpyriment","Jazzy James","3.1.9","yes","yes","59a800d99ad5a1025d81bb03","59a801616c613b0251691de0","no","no","0","j","f","space","NA","j","f","j","1552","2807","23005","NA","26299","12460","1552","2","legacy","1024","1","44100","-16","experiment","nval","2","0","0","1","1","Englisch, Spanisch, Schwedisch, (Dutch)","38","Niederdeutsch","even","2341840","2318308","NA","NA","2344648","2341837","NA","1351069","2341371","1351069","1351069","2243191","2269494","2346366","2344859","2347919","2285708","2282245","2318308","NA","2073688","2234535","2316650","2282021","2341840","2282249","NA","2346366","2346366","NA","NA","2344855","NAP perception","0","1552","1","yes","1024"
"50","yes","50","1251.5","1251.5","white","no","xpyriment","Ich habe die obigen Informationen gelesen und verstanden.","legacy","legacy","0","uniform","1","0","0","undefined","undefined","1","j","2","1","NA","0","1","0","0","0","0","0","0","0","0","11","11","11","0","0","0","NA","0","0","2","0","0","0","2","11","11","11","11","11","Fri Nov  3 10:45:04 2017","Forced-choice identification task with a practice and an experimental phase","yes","NAP_GER_AA_4blocks_noglides.osexp","/Users/aviadalbert/Documents/Academisch/UoC/Dissertation/Experiment/OpenSesame/NAP-FC/NAP_GER_AA_4blocks_noglides","yes","no","sans","no","20","no","black","no","Weiter","yes","768","legacy","1","9","0","/Users/aviadalbert/Documents/Academisch/UoC/Dissertation/Experiment/OpenSesame/NAP-FC/NAP_GER_AA_4blocks_noglides/subject-38.csv","xpyriment","Jazzy James","3.1.9","yes","yes","59a800d99ad5a1025d81bb03","59a801616c613b0251691de0","no","no","0","j","f","space","NA","j","f","j","951","2807","23005","NA","26299","12460","951","2","legacy","1024","1","44100","-16","experiment","espal","2","0","0","1","1","Englisch, Spanisch, Schwedisch, (Dutch)","38","Niederdeutsch","even","2341840","2318308","NA","NA","2344648","2341837","NA","1351069","2341371","1351069","1351069","2243191","2269494","2349704","2348199","2350656","2285708","2282245","2318308","NA","2073688","2234535","2316650","2282021","2341840","2282249","NA","2349704","2349704","NA","NA","2348195","NAP perception","1","2503","2","yes","1024"
"33.3333333333","yes","33.3333333333","1573.33333333","1573.33333333","white","no","xpyriment","Ich habe die obigen Informationen gelesen und verstanden.","legacy","legacy","0","uniform","0","0","0","undefined","undefined","0","f","2","1","NA","0","1","0","0","0","0","0","0","0","0","12","12","12","0","0","0","NA","0","0","2","0","0","0","2","12","12","12","12","12","Fri Nov  3 10:45:04 2017","Forced-choice identification task with a practice and an experimental phase","yes","NAP_GER_AA_4blocks_noglides.osexp","/Users/aviadalbert/Documents/Academisch/UoC/Dissertation/Experiment/OpenSesame/NAP-FC/NAP_GER_AA_4blocks_noglides","yes","no","sans","no","20","no","black","no","Weiter","yes","768","legacy","2","9","0","/Users/aviadalbert/Documents/Academisch/UoC/Dissertation/Experiment/OpenSesame/NAP-FC/NAP_GER_AA_4blocks_noglides/subject-38.csv","xpyriment","Jazzy James","3.1.9","yes","yes","59a800d99ad5a1025d81bb03","59a801616c613b0251691de0","no","no","0","j","f","space","NA","j","f","j","2217","2807","23005","NA","26299","12460","2217","2","legacy","1024","1","44100","-16","experiment","mnal","2","0","0","1","1","Englisch, Spanisch, Schwedisch, (Dutch)","38","Niederdeutsch","even","2341840","2318308","NA","NA","2344648","2341837","NA","1351069","2341371","1351069","1351069","2243191","2269494","2352444","2350940","2354662","2285708","2282245","2318308","NA","2073688","2234535","2316650","2282021","2341840","2282249","NA","2352443","2352444","NA","NA","2350936","NAP perception","1","4720","3","yes","1024"
"50","yes","50","1470.5","1470.5","white","no","xpyriment","Ich habe die obigen Informationen gelesen und verstanden.","legacy","legacy","0","uniform","1","0","0","undefined","undefined","1","f","2","1","NA","0","1","0","0","0","0","0","0","0","0","13","13","13","0","0","0","NA","0","0","2","0","0","0","2","13","13","13","13","13","Fri Nov  3 10:45:04 2017","Forced-choice identification task with a practice and an experimental phase","yes","NAP_GER_AA_4blocks_noglides.osexp","/Users/aviadalbert/Documents/Academisch/UoC/Dissertation/Experiment/OpenSesame/NAP-FC/NAP_GER_AA_4blocks_noglides","yes","no","sans","no","20","no","black","no","Weiter","yes","768","legacy","3","9","0","/Users/aviadalbert/Documents/Academisch/UoC/Dissertation/Experiment/OpenSesame/NAP-FC/NAP_GER_AA_4blocks_noglides/subject-38.csv","xpyriment","Jazzy James","3.1.9","yes","yes","59a800d99ad5a1025d81bb03","59a801616c613b0251691de0","no","no","0","f","f","space","NA","j","f","f","1162","2807","23005","NA","26299","12460","1162","2","legacy","1024","1","44100","-16","experiment","sfal","2","0","0","1","1","Englisch, Spanisch, Schwedisch, (Dutch)","38","Niederdeutsch","even","2341840","2318308","NA","NA","2344648","2341837","NA","1351069","2341371","1351069","1351069","2243191","2269494","2356444","2354940","2357607","2285708","2282245","2318308","NA","2073688","2234535","2316650","2282021","2341840","2282249","NA","2356444","2356444","NA","NA","2354936","NAP perception","2","5882","4","yes","1024"
"60","yes","60","1352","1352","white","no","xpyriment","Ich habe die obigen Informationen gelesen und verstanden.","legacy","legacy","0","uniform","1","0","0","undefined","undefined","1","j","2","1","NA","0","1","0","0","0","0","0","0","0","0","14","14","14","0","0","0","NA","0","0","2","0","0","0","2","14","14","14","14","14","Fri Nov  3 10:45:04 2017","Forced-choice identification task with a practice and an experimental phase","yes","NAP_GER_AA_4blocks_noglides.osexp","/Users/aviadalbert/Documents/Academisch/UoC/Dissertation/Experiment/OpenSesame/NAP-FC/NAP_GER_AA_4blocks_noglides","yes","no","sans","no","20","no","black","no","Weiter","yes","768","legacy","4","9","0","/Users/aviadalbert/Documents/Academisch/UoC/Dissertation/Experiment/OpenSesame/NAP-FC/NAP_GER_AA_4blocks_noglides/subject-38.csv","xpyriment","Jazzy James","3.1.9","yes","yes","59a800d99ad5a1025d81bb03","59a801616c613b0251691de0","no","no","0","j","f","space","NA","j","f","j","878","2807","23005","NA","26299","12460","878","2","legacy","1024","1","44100","-16","experiment","enval","2","0","0","1","1","Englisch, Spanisch, Schwedisch, (Dutch)","38","Niederdeutsch","even","2341840","2318308","NA","NA","2344648","2341837","NA","1351069","2341371","1351069","1351069","2243191","2269494","2359382","2357877","2360261","2285708","2282245","2318308","NA","2073688","2234535","2316650","2282021","2341840","2282249","NA","2359382","2359382","NA","NA","2357873","NAP perception","3","6760","5","yes","1024"
"66.6666666667","yes","66.6666666667","1319.16666667","1319.16666667","white","no","xpyriment","Ich habe die obigen Informationen gelesen und verstanden.","legacy","legacy","0","uniform","1","0","0","undefined","undefined","1","f","2","1","NA","0","1","0","0","0","0","0","0","0","0","15","15","15","0","0","0","NA","0","0","2","0","0","0","2","15","15","15","15","15","Fri Nov  3 10:45:04 2017","Forced-choice identification task with a practice and an experimental phase","yes","NAP_GER_AA_4blocks_noglides.osexp","/Users/aviadalbert/Documents/Academisch/UoC/Dissertation/Experiment/OpenSesame/NAP-FC/NAP_GER_AA_4blocks_noglides","yes","no","sans","no","20","no","black","no","Weiter","yes","768","legacy","5","9","0","/Users/aviadalbert/Documents/Academisch/UoC/Dissertation/Experiment/OpenSesame/NAP-FC/NAP_GER_AA_4blocks_noglides/subject-38.csv","xpyriment","Jazzy James","3.1.9","yes","yes","59a800d99ad5a1025d81bb03","59a801616c613b0251691de0","no","no","0","f","f","space","NA","j","f","f","1155","2807","23005","NA","26299","12460","1155","2","legacy","1024","1","44100","-16","experiment","fsal","2","0","0","1","1","Englisch, Spanisch, Schwedisch, (Dutch)","38","Niederdeutsch","even","2341840","2318308","NA","NA","2344648","2341837","NA","1351069","2341371","1351069","1351069","2243191","2269494","2362045","2360541","2363201","2285708","2282245","2318308","NA","2073688","2234535","2316650","2282021","2341840","2282249","NA","2362045","2362045","NA","NA","2360537","NAP perception","4","7915","6","yes","1024"
"57.1428571429","yes","57.1428571429","1408.71428571","1408.71428571","white","no","xpyriment","Ich habe die obigen Informationen gelesen und verstanden.","legacy","legacy","0","uniform","0","0","0","undefined","undefined","0","f","2","1","NA","0","1","0","0","0","0","0","0","0","0","16","16","16","0","0","0","NA","0","0","2","0","0","0","2","16","16","16","16","16","Fri Nov  3 10:45:04 2017","Forced-choice identification task with a practice and an experimental phase","yes","NAP_GER_AA_4blocks_noglides.osexp","/Users/aviadalbert/Documents/Academisch/UoC/Dissertation/Experiment/OpenSesame/NAP-FC/NAP_GER_AA_4blocks_noglides","yes","no","sans","no","20","no","black","no","Weiter","yes","768","legacy","6","9","0","/Users/aviadalbert/Documents/Academisch/UoC/Dissertation/Experiment/OpenSesame/NAP-FC/NAP_GER_AA_4blocks_noglides/subject-38.csv","xpyriment","Jazzy James","3.1.9","yes","yes","59a800d99ad5a1025d81bb03","59a801616c613b0251691de0","no","no","0","j","f","space","NA","j","f","j","1946","2807","23005","NA","26299","12460","1946","2","legacy","1024","1","44100","-16","experiment","lmal","2","0","0","1","1","Englisch, Spanisch, Schwedisch, (Dutch)","38","Niederdeutsch","even","2341840","2318308","NA","NA","2344648","2341837","NA","1351069","2341371","1351069","1351069","2243191","2269494","2364977","2363471","2366925","2285708","2282245","2318308","NA","2073688","2234535","2316650","2282021","2341840","2282249","NA","2364977","2364977","NA","NA","2363467","NAP perception","4","9861","7","yes","1024"
"62.5","yes","62.5","1387.5","1387.5","white","no","xpyriment","Ich habe die obigen Informationen gelesen und verstanden.","legacy","legacy","0","uniform","1","0","0","undefined","undefined","1","f","2","1","NA","0","1","0","0","0","0","0","0","0","0","17","17","17","0","0","0","NA","0","0","2","0","0","0","2","17","17","17","17","17","Fri Nov  3 10:45:04 2017","Forced-choice identification task with a practice and an experimental phase","yes","NAP_GER_AA_4blocks_noglides.osexp","/Users/aviadalbert/Documents/Academisch/UoC/Dissertation/Experiment/OpenSesame/NAP-FC/NAP_GER_AA_4blocks_noglides","yes","no","sans","no","20","no","black","no","Weiter","yes","768","legacy","7","9","0","/Users/aviadalbert/Documents/Academisch/UoC/Dissertation/Experiment/OpenSesame/NAP-FC/NAP_GER_AA_4blocks_noglides/subject-38.csv","xpyriment","Jazzy James","3.1.9","yes","yes","59a800d99ad5a1025d81bb03","59a801616c613b0251691de0","no","no","0","f","f","space","NA","j","f","f","1239","2807","23005","NA","26299","12460","1239","2","legacy","1024","1","44100","-16","experiment","zval","2","0","0","1","1","Englisch, Spanisch, Schwedisch, (Dutch)","38","Niederdeutsch","even","2341840","2318308","NA","NA","2344648","2341837","NA","1351069","2341371","1351069","1351069","2243191","2269494","2368707","2367204","2369948","2285708","2282245","2318308","NA","2073688","2234535","2316650","2282021","2341840","2282249","NA","2368707","2368707","NA","NA","2367200","NAP perception","5","11100","8","yes","1024"
"66.6666666667","yes","66.6666666667","1320.11111111","1320.11111111","white","no","xpyriment","Ich habe die obigen Informationen gelesen und verstanden.","legacy","legacy","0","uniform","1","0","0","undefined","undefined","1","j","2","1","NA","0","1","0","0","0","0","0","0","0","0","18","18","18","0","0","0","NA","0","0","2","0","0","0","2","18","18","18","18","18","Fri Nov  3 10:45:04 2017","Forced-choice identification task with a practice and an experimental phase","yes","NAP_GER_AA_4blocks_noglides.osexp","/Users/aviadalbert/Documents/Academisch/UoC/Dissertation/Experiment/OpenSesame/NAP-FC/NAP_GER_AA_4blocks_noglides","yes","no","sans","no","20","no","black","no","Weiter","yes","768","legacy","8","9","0","/Users/aviadalbert/Documents/Academisch/UoC/Dissertation/Experiment/OpenSesame/NAP-FC/NAP_GER_AA_4blocks_noglides/subject-38.csv","xpyriment","Jazzy James","3.1.9","yes","yes","59a800d99ad5a1025d81bb03","59a801616c613b0251691de0","no","no","0","j","f","space","NA","j","f","j","781","2807","23005","NA","26299","12460","781","2","legacy","1024","1","44100","-16","experiment","elfal","2","0","0","1","1","Englisch, Spanisch, Schwedisch, (Dutch)","38","Niederdeutsch","even","2341840","2318308","NA","NA","2344648","2341837","NA","1351069","2341371","1351069","1351069","2243191","2269494","2371723","2370216","2372506","2285708","2282245","2318308","NA","2073688","2234535","2316650","2282021","2341840","2282249","NA","2371723","2371723","NA","NA","2370212","NAP perception","6","11881","9","yes","1024"
"70","yes","70","1334.6","1334.6","white","no","xpyriment","Ich habe die obigen Informationen gelesen und verstanden.","legacy","legacy","0","uniform","1","0","0","undefined","undefined","1","f","2","1","NA","0","1","0","0","0","0","0","0","0","0","19","19","19","0","0","0","NA","0","0","2","0","0","0","2","19","19","19","19","19","Fri Nov  3 10:45:04 2017","Forced-choice identification task with a practice and an experimental phase","yes","NAP_GER_AA_4blocks_noglides.osexp","/Users/aviadalbert/Documents/Academisch/UoC/Dissertation/Experiment/OpenSesame/NAP-FC/NAP_GER_AA_4blocks_noglides","yes","no","sans","no","20","no","black","no","Weiter","yes","768","legacy","9","9","0","/Users/aviadalbert/Documents/Academisch/UoC/Dissertation/Experiment/OpenSesame/NAP-FC/NAP_GER_AA_4blocks_noglides/subject-38.csv","xpyriment","Jazzy James","3.1.9","yes","yes","59a800d99ad5a1025d81bb03","59a801616c613b0251691de0","no","no","0","f","f","space","NA","j","f","f","1465","2807","23005","NA","26299","12460","1465","2","legacy","1024","1","44100","-16","experiment","vnal","2","0","0","1","1","Englisch, Spanisch, Schwedisch, (Dutch)","38","Niederdeutsch","even","2341840","2318308","NA","NA","2344648","2341837","NA","1351069","2341371","1351069","1351069","2243191","2269494","2374283","2372779","2375749","2285708","2282245","2318308","NA","2073688","2234535","2316650","2282021","2341840","2282249","NA","2374282","2374283","NA","NA","2372775","NAP perception","7","13346","10","yes","1024"
"72.7272727273","yes","72.7272727273","1421.36363636","1421.36363636","white","no","xpyriment","Ich habe die obigen Informationen gelesen und verstanden.","legacy","legacy","0","uniform","1","0","0","undefined","undefined","1","f","2","1","NA","0","1","0","0","0","0","0","0","0","0","20","20","20","0","0","0","NA","0","0","2","0","0","0","2","20","20","20","20","20","Fri Nov  3 10:45:04 2017","Forced-choice identification task with a practice and an experimental phase","yes","NAP_GER_AA_4blocks_noglides.osexp","/Users/aviadalbert/Documents/Academisch/UoC/Dissertation/Experiment/OpenSesame/NAP-FC/NAP_GER_AA_4blocks_noglides","yes","no","sans","no","20","no","black","no","Weiter","yes","768","legacy","10","9","0","/Users/aviadalbert/Documents/Academisch/UoC/Dissertation/Experiment/OpenSesame/NAP-FC/NAP_GER_AA_4blocks_noglides/subject-38.csv","xpyriment","Jazzy James","3.1.9","yes","yes","59a800d99ad5a1025d81bb03","59a801616c613b0251691de0","no","no","0","f","f","space","NA","j","f","f","2289","2807","23005","NA","26299","12460","2289","2","legacy","1024","1","44100","-16","experiment","npal","2","0","0","1","1","Englisch, Spanisch, Schwedisch, (Dutch)","38","Niederdeutsch","even","2341840","2318308","NA","NA","2344648","2341837","NA","1351069","2341371","1351069","1351069","2243191","2269494","2377529","2376024","2379820","2285708","2282245","2318308","NA","2073688","2234535","2316650","2282021","2341840","2282249","NA","2377529","2377529","NA","NA","2376020","NAP perception","8","15635","11","yes","1024"
"66.6666666667","yes","66.6666666667","1490.91666667","1490.91666667","white","no","xpyriment","Ich habe die obigen Informationen gelesen und verstanden.","legacy","legacy","0","uniform","0","0","0","undefined","undefined","0","f","2","1","NA","0","1","0","0","0","0","0","0","0","0","21","21","21","0","0","0","NA","0","0","2","0","0","0","2","21","21","21","21","21","Fri Nov  3 10:45:04 2017","Forced-choice identification task with a practice and an experimental phase","yes","NAP_GER_AA_4blocks_noglides.osexp","/Users/aviadalbert/Documents/Academisch/UoC/Dissertation/Experiment/OpenSesame/NAP-FC/NAP_GER_AA_4blocks_noglides","yes","no","sans","no","20","no","black","no","Weiter","yes","768","legacy","11","9","0","/Users/aviadalbert/Documents/Academisch/UoC/Dissertation/Experiment/OpenSesame/NAP-FC/NAP_GER_AA_4blocks_noglides/subject-38.csv","xpyriment","Jazzy James","3.1.9","yes","yes","59a800d99ad5a1025d81bb03","59a801616c613b0251691de0","no","no","0","j","f","space","NA","j","f","j","2256","2807","23005","NA","26299","12460","2256","2","legacy","1024","1","44100","-16","experiment","mlal","2","0","0","1","1","Englisch, Spanisch, Schwedisch, (Dutch)","38","Niederdeutsch","even","2341840","2318308","NA","NA","2344648","2341837","NA","1351069","2341371","1351069","1351069","2243191","2269494","2381592","2380084","2383850","2285708","2282245","2318308","NA","2073688","2234535","2316650","2282021","2341840","2282249","NA","2381592","2381592","NA","NA","2380081","NAP perception","8","17891","12","yes","1024"
"69.2307692308","yes","69.2307692308","1445.92307692","1445.92307692","white","no","xpyriment","Ich habe die obigen Informationen gelesen und verstanden.","legacy","legacy","0","uniform","1","0","0","undefined","undefined","1","f","2","1","NA","0","1","0","0","0","0","0","0","0","0","22","22","22","0","0","0","NA","0","0","2","0","0","0","2","22","22","22","22","22","Fri Nov  3 10:45:04 2017","Forced-choice identification task with a practice and an experimental phase","yes","NAP_GER_AA_4blocks_noglides.osexp","/Users/aviadalbert/Documents/Academisch/UoC/Dissertation/Experiment/OpenSesame/NAP-FC/NAP_GER_AA_4blocks_noglides","yes","no","sans","no","20","no","black","no","Weiter","yes","768","legacy","12","9","0","/Users/aviadalbert/Documents/Academisch/UoC/Dissertation/Experiment/OpenSesame/NAP-FC/NAP_GER_AA_4blocks_noglides/subject-38.csv","xpyriment","Jazzy James","3.1.9","yes","yes","59a800d99ad5a1025d81bb03","59a801616c613b0251691de0","no","no","0","f","f","space","NA","j","f","f","906","2807","23005","NA","26299","12460","906","2","legacy","1024","1","44100","-16","experiment","ʃmal","2","0","0","1","1","Englisch, Spanisch, Schwedisch, (Dutch)","38","Niederdeutsch","even","2341840","2318308","NA","NA","2344648","2341837","NA","1351069","2341371","1351069","1351069","2243191","2269494","2385633","2384129","2386540","2285708","2282245","2318308","NA","2073688","2234535","2316650","2282021","2341840","2282249","NA","2385633","2385633","NA","NA","2384125","NAP perception","9","18797","13","yes","1024"
"71.4285714286","yes","71.4285714286","1411.92857143","1411.92857143","white","no","xpyriment","Ich habe die obigen Informationen gelesen und verstanden.","legacy","legacy","0","uniform","1","0","0","undefined","undefined","1","j","2","1","NA","0","1","0","0","0","0","0","0","0","0","23","23","23","0","0","0","NA","0","0","2","0","0","0","2","23","23","23","23","23","Fri Nov  3 10:45:04 2017","Forced-choice identification task with a practice and an experimental phase","yes","NAP_GER_AA_4blocks_noglides.osexp","/Users/aviadalbert/Documents/Academisch/UoC/Dissertation/Experiment/OpenSesame/NAP-FC/NAP_GER_AA_4blocks_noglides","yes","no","sans","no","20","no","black","no","Weiter","yes","768","legacy","13","9","0","/Users/aviadalbert/Documents/Academisch/UoC/Dissertation/Experiment/OpenSesame/NAP-FC/NAP_GER_AA_4blocks_noglides/subject-38.csv","xpyriment","Jazzy James","3.1.9","yes","yes","59a800d99ad5a1025d81bb03","59a801616c613b0251691de0","no","no","0","j","f","space","NA","j","f","j","970","2807","23005","NA","26299","12460","970","2","legacy","1024","1","44100","-16","experiment","ʃemal","2","0","0","1","1","Englisch, Spanisch, Schwedisch, (Dutch)","38","Niederdeutsch","even","2341840","2318308","NA","NA","2344648","2341837","NA","1351069","2341371","1351069","1351069","2243191","2269494","2388313","2386807","2389285","2285708","2282245","2318308","NA","2073688","2234535","2316650","2282021","2341840","2282249","NA","2388313","2388313","NA","NA","2386803","NAP perception","10","19767","14","yes","1024"
"66.6666666667","yes","66.6666666667","1442.4","1442.4","white","no","xpyriment","Ich habe die obigen Informationen gelesen und verstanden.","legacy","legacy","0","uniform","0","0","0","undefined","undefined","0","f","2","1","NA","0","1","0","0","0","0","0","0","0","0","24","24","24","0","0","0","NA","0","0","2","0","0","0","2","24","24","24","24","24","Fri Nov  3 10:45:04 2017","Forced-choice identification task with a practice and an experimental phase","yes","NAP_GER_AA_4blocks_noglides.osexp","/Users/aviadalbert/Documents/Academisch/UoC/Dissertation/Experiment/OpenSesame/NAP-FC/NAP_GER_AA_4blocks_noglides","yes","no","sans","no","20","no","black","no","Weiter","yes","768","legacy","14","9","0","/Users/aviadalbert/Documents/Academisch/UoC/Dissertation/Experiment/OpenSesame/NAP-FC/NAP_GER_AA_4blocks_noglides/subject-38.csv","xpyriment","Jazzy James","3.1.9","yes","yes","59a800d99ad5a1025d81bb03","59a801616c613b0251691de0","no","no","0","j","f","space","NA","j","f","j","1869","2807","23005","NA","26299","12460","1869","2","legacy","1024","1","44100","-16","experiment","mtal","2","0","0","1","1","Englisch, Spanisch, Schwedisch, (Dutch)","38","Niederdeutsch","even","2341840","2318308","NA","NA","2344648","2341837","NA","1351069","2341371","1351069","1351069","2243191","2269494","2391055","2389552","2392926","2285708","2282245","2318308","NA","2073688","2234535","2316650","2282021","2341840","2282249","NA","2391055","2391055","NA","NA","2389548","NAP perception","10","21636","15","yes","1024"
"68.75","yes","68.75","1431.3125","1431.3125","white","no","xpyriment","Ich habe die obigen Informationen gelesen und verstanden.","legacy","legacy","0","uniform","1","0","0","undefined","undefined","1","f","2","1","NA","0","1","0","0","0","0","0","0","0","0","25","25","25","0","0","0","NA","0","0","2","0","0","0","2","25","25","25","25","25","Fri Nov  3 10:45:04 2017","Forced-choice identification task with a practice and an experimental phase","yes","NAP_GER_AA_4blocks_noglides.osexp","/Users/aviadalbert/Documents/Academisch/UoC/Dissertation/Experiment/OpenSesame/NAP-FC/NAP_GER_AA_4blocks_noglides","yes","no","sans","no","20","no","black","no","Weiter","yes","768","legacy","15","9","0","/Users/aviadalbert/Documents/Academisch/UoC/Dissertation/Experiment/OpenSesame/NAP-FC/NAP_GER_AA_4blocks_noglides/subject-38.csv","xpyriment","Jazzy James","3.1.9","yes","yes","59a800d99ad5a1025d81bb03","59a801616c613b0251691de0","no","no","0","f","f","space","NA","j","f","f","1265","2807","23005","NA","26299","12460","1265","2","legacy","1024","1","44100","-16","experiment","zmal","2","0","0","1","1","Englisch, Spanisch, Schwedisch, (Dutch)","38","Niederdeutsch","even","2341840","2318308","NA","NA","2344648","2341837","NA","1351069","2341371","1351069","1351069","2243191","2269494","2394693","2393189","2395960","2285708","2282245","2318308","NA","2073688","2234535","2316650","2282021","2341840","2282249","NA","2394692","2394692","NA","NA","2393185","NAP perception","11","22901","16","yes","1024"
"70.5882352941","yes","70.5882352941","1438.23529412","1438.23529412","white","no","xpyriment","Ich habe die obigen Informationen gelesen und verstanden.","legacy","legacy","0","uniform","1","0","0","undefined","undefined","1","j","2","1","NA","0","1","0","0","0","0","0","0","0","0","26","26","26","0","0","0","NA","0","0","2","0","0","0","2","26","26","26","26","26","Fri Nov  3 10:45:04 2017","Forced-choice identification task with a practice and an experimental phase","yes","NAP_GER_AA_4blocks_noglides.osexp","/Users/aviadalbert/Documents/Academisch/UoC/Dissertation/Experiment/OpenSesame/NAP-FC/NAP_GER_AA_4blocks_noglides","yes","no","sans","no","20","no","black","no","Weiter","yes","768","legacy","16","9","0","/Users/aviadalbert/Documents/Academisch/UoC/Dissertation/Experiment/OpenSesame/NAP-FC/NAP_GER_AA_4blocks_noglides/subject-38.csv","xpyriment","Jazzy James","3.1.9","yes","yes","59a800d99ad5a1025d81bb03","59a801616c613b0251691de0","no","no","0","j","f","space","NA","j","f","j","1549","2807","23005","NA","26299","12460","1549","2","legacy","1024","1","44100","-16","experiment","venal","2","0","0","1","1","Englisch, Spanisch, Schwedisch, (Dutch)","38","Niederdeutsch","even","2341840","2318308","NA","NA","2344648","2341837","NA","1351069","2341371","1351069","1351069","2243191","2269494","2397719","2396215","2399269","2285708","2282245","2318308","NA","2073688","2234535","2316650","2282021","2341840","2282249","NA","2397719","2397719","NA","NA","2396211","NAP perception","12","24450","17","yes","1024"
"72.2222222222","yes","72.2222222222","1402.16666667","1402.16666667","white","no","xpyriment","Ich habe die obigen Informationen gelesen und verstanden.","legacy","legacy","0","uniform","1","0","0","undefined","undefined","1","j","2","1","NA","0","1","0","0","0","0","0","0","0","0","27","27","27","0","0","0","NA","0","0","2","0","0","0","2","27","27","27","27","27","Fri Nov  3 10:45:04 2017","Forced-choice identification task with a practice and an experimental phase","yes","NAP_GER_AA_4blocks_noglides.osexp","/Users/aviadalbert/Documents/Academisch/UoC/Dissertation/Experiment/OpenSesame/NAP-FC/NAP_GER_AA_4blocks_noglides","yes","no","sans","no","20","no","black","no","Weiter","yes","768","legacy","17","9","0","/Users/aviadalbert/Documents/Academisch/UoC/Dissertation/Experiment/OpenSesame/NAP-FC/NAP_GER_AA_4blocks_noglides/subject-38.csv","xpyriment","Jazzy James","3.1.9","yes","yes","59a800d99ad5a1025d81bb03","59a801616c613b0251691de0","no","no","0","j","f","space","NA","j","f","j","789","2807","23005","NA","26299","12460","789","2","legacy","1024","1","44100","-16","experiment","felal","2","0","0","1","1","Englisch, Spanisch, Schwedisch, (Dutch)","38","Niederdeutsch","even","2341840","2318308","NA","NA","2344648","2341837","NA","1351069","2341371","1351069","1351069","2243191","2269494","2401050","2399544","2401840","2285708","2282245","2318308","NA","2073688","2234535","2316650","2282021","2341840","2282249","NA","2401050","2401050","NA","NA","2399540","NAP perception","13","25239","18","yes","1024"
"73.6842105263","yes","73.6842105263","1403","1403","white","no","xpyriment","Ich habe die obigen Informationen gelesen und verstanden.","legacy","legacy","0","uniform","1","0","0","undefined","undefined","1","j","2","1","NA","0","1","0","0","0","0","0","0","0","0","28","28","28","0","0","0","NA","0","0","2","0","0","0","2","28","28","28","28","28","Fri Nov  3 10:45:04 2017","Forced-choice identification task with a practice and an experimental phase","yes","NAP_GER_AA_4blocks_noglides.osexp","/Users/aviadalbert/Documents/Academisch/UoC/Dissertation/Experiment/OpenSesame/NAP-FC/NAP_GER_AA_4blocks_noglides","yes","no","sans","no","20","no","black","no","Weiter","yes","768","legacy","18","9","0","/Users/aviadalbert/Documents/Academisch/UoC/Dissertation/Experiment/OpenSesame/NAP-FC/NAP_GER_AA_4blocks_noglides/subject-38.csv","xpyriment","Jazzy James","3.1.9","yes","yes","59a800d99ad5a1025d81bb03","59a801616c613b0251691de0","no","no","0","j","f","space","NA","j","f","j","1418","2807","23005","NA","26299","12460","1418","2","legacy","1024","1","44100","-16","experiment","zeval","2","0","0","1","1","Englisch, Spanisch, Schwedisch, (Dutch)","38","Niederdeutsch","even","2341840","2318308","NA","NA","2344648","2341837","NA","1351069","2341371","1351069","1351069","2243191","2269494","2403633","2402129","2405052","2285708","2282245","2318308","NA","2073688","2234535","2316650","2282021","2341840","2282249","NA","2403633","2403633","NA","NA","2402125","NAP perception","14","26657","19","yes","1024"
"75","yes","75","1439.7","1439.7","white","no","xpyriment","Ich habe die obigen Informationen gelesen und verstanden.","legacy","legacy","0","uniform","1","0","0","undefined","undefined","1","f","2","1","NA","0","1","0","0","0","0","0","0","0","0","29","29","29","0","0","0","NA","0","0","2","0","0","0","2","29","29","29","29","29","Fri Nov  3 10:45:04 2017","Forced-choice identification task with a practice and an experimental phase","yes","NAP_GER_AA_4blocks_noglides.osexp","/Users/aviadalbert/Documents/Academisch/UoC/Dissertation/Experiment/OpenSesame/NAP-FC/NAP_GER_AA_4blocks_noglides","yes","no","sans","no","20","no","black","no","Weiter","yes","768","legacy","19","9","0","/Users/aviadalbert/Documents/Academisch/UoC/Dissertation/Experiment/OpenSesame/NAP-FC/NAP_GER_AA_4blocks_noglides/subject-38.csv","xpyriment","Jazzy James","3.1.9","yes","yes","59a800d99ad5a1025d81bb03","59a801616c613b0251691de0","no","no","0","f","f","space","NA","j","f","f","2137","2807","23005","NA","26299","12460","2137","2","legacy","1024","1","44100","-16","experiment","msal","2","0","0","1","1","Englisch, Spanisch, Schwedisch, (Dutch)","38","Niederdeutsch","even","2341840","2318308","NA","NA","2344648","2341837","NA","1351069","2341371","1351069","1351069","2243191","2269494","2406827","2405323","2408965","2285708","2282245","2318308","NA","2073688","2234535","2316650","2282021","2341840","2282249","NA","2406827","2406827","NA","NA","2405319","NAP perception","15","28794","20","yes","1024"
"76.1904761905","yes","76.1904761905","1415.23809524","1415.23809524","white","no","xpyriment","Ich habe die obigen Informationen gelesen und verstanden.","legacy","legacy","0","uniform","1","0","0","undefined","undefined","1","f","2","1","NA","0","1","0","0","0","0","0","0","0","0","30","30","30","0","0","0","NA","0","0","2","0","0","0","2","30","30","30","30","30","Fri Nov  3 10:45:04 2017","Forced-choice identification task with a practice and an experimental phase","yes","NAP_GER_AA_4blocks_noglides.osexp","/Users/aviadalbert/Documents/Academisch/UoC/Dissertation/Experiment/OpenSesame/NAP-FC/NAP_GER_AA_4blocks_noglides","yes","no","sans","no","20","no","black","no","Weiter","yes","768","legacy","20","9","0","/Users/aviadalbert/Documents/Academisch/UoC/Dissertation/Experiment/OpenSesame/NAP-FC/NAP_GER_AA_4blocks_noglides/subject-38.csv","xpyriment","Jazzy James","3.1.9","yes","yes","59a800d99ad5a1025d81bb03","59a801616c613b0251691de0","no","no","0","f","f","space","NA","j","f","f","926","2807","23005","NA","26299","12460","926","2","legacy","1024","1","44100","-16","experiment","fsal","2","0","0","1","1","Englisch, Spanisch, Schwedisch, (Dutch)","38","Niederdeutsch","even","2341840","2318308","NA","NA","2344648","2341837","NA","1351069","2341371","1351069","1351069","2243191","2269494","2410747","2409239","2411674","2285708","2282245","2318308","NA","2073688","2234535","2316650","2282021","2341840","2282249","NA","2410747","2410747","NA","NA","2409235","NAP perception","16","29720","21","yes","1024"
"77.2727272727","yes","77.2727272727","1391.95454545","1391.95454545","white","no","xpyriment","Ich habe die obigen Informationen gelesen und verstanden.","legacy","legacy","0","uniform","1","0","0","undefined","undefined","1","j","2","1","NA","0","1","0","0","0","0","0","0","0","0","31","31","31","0","0","0","NA","0","0","2","0","0","0","2","31","31","31","31","31","Fri Nov  3 10:45:04 2017","Forced-choice identification task with a practice and an experimental phase","yes","NAP_GER_AA_4blocks_noglides.osexp","/Users/aviadalbert/Documents/Academisch/UoC/Dissertation/Experiment/OpenSesame/NAP-FC/NAP_GER_AA_4blocks_noglides","yes","no","sans","no","20","no","black","no","Weiter","yes","768","legacy","21","9","0","/Users/aviadalbert/Documents/Academisch/UoC/Dissertation/Experiment/OpenSesame/NAP-FC/NAP_GER_AA_4blocks_noglides/subject-38.csv","xpyriment","Jazzy James","3.1.9","yes","yes","59a800d99ad5a1025d81bb03","59a801616c613b0251691de0","no","no","0","j","f","space","NA","j","f","j","903","2807","23005","NA","26299","12460","903","2","legacy","1024","1","44100","-16","experiment","eʃmal","2","0","0","1","1","Englisch, Spanisch, Schwedisch, (Dutch)","38","Niederdeutsch","even","2341840","2318308","NA","NA","2344648","2341837","NA","1351069","2341371","1351069","1351069","2243191","2269494","2413450","2411947","2414354","2285708","2282245","2318308","NA","2073688","2234535","2316650","2282021","2341840","2282249","NA","2413450","2413450","NA","NA","2411943","NAP perception","17","30623","22","yes","1024"
"78.2608695652","yes","78.2608695652","1386.2173913","1386.2173913","white","no","xpyriment","Ich habe die obigen Informationen gelesen und verstanden.","legacy","legacy","0","uniform","1","0","0","undefined","undefined","1","j","2","1","NA","0","1","0","0","0","0","0","0","0","0","32","32","32","0","0","0","NA","0","0","2","0","0","0","2","32","32","32","32","32","Fri Nov  3 10:45:04 2017","Forced-choice identification task with a practice and an experimental phase","yes","NAP_GER_AA_4blocks_noglides.osexp","/Users/aviadalbert/Documents/Academisch/UoC/Dissertation/Experiment/OpenSesame/NAP-FC/NAP_GER_AA_4blocks_noglides","yes","no","sans","no","20","no","black","no","Weiter","yes","768","legacy","22","9","0","/Users/aviadalbert/Documents/Academisch/UoC/Dissertation/Experiment/OpenSesame/NAP-FC/NAP_GER_AA_4blocks_noglides/subject-38.csv","xpyriment","Jazzy James","3.1.9","yes","yes","59a800d99ad5a1025d81bb03","59a801616c613b0251691de0","no","no","0","j","f","space","NA","j","f","j","1260","2807","23005","NA","26299","12460","1260","2","legacy","1024","1","44100","-16","experiment","lekal","2","0","0","1","1","Englisch, Spanisch, Schwedisch, (Dutch)","38","Niederdeutsch","even","2341840","2318308","NA","NA","2344648","2341837","NA","1351069","2341371","1351069","1351069","2243191","2269494","2416147","2414644","2417408","2285708","2282245","2318308","NA","2073688","2234535","2316650","2282021","2341840","2282249","NA","2416147","2416147","NA","NA","2414640","NAP perception","18","31883","23","yes","1024"
"79.1666666667","yes","79.1666666667","1355.91666667","1355.91666667","white","no","xpyriment","Ich habe die obigen Informationen gelesen und verstanden.","legacy","legacy","0","uniform","1","0","0","undefined","undefined","1","j","2","1","NA","0","1","0","0","0","0","0","0","0","0","33","33","33","0","0","0","NA","0","0","2","0","0","0","2","33","33","33","33","33","Fri Nov  3 10:45:04 2017","Forced-choice identification task with a practice and an experimental phase","yes","NAP_GER_AA_4blocks_noglides.osexp","/Users/aviadalbert/Documents/Academisch/UoC/Dissertation/Experiment/OpenSesame/NAP-FC/NAP_GER_AA_4blocks_noglides","yes","no","sans","no","20","no","black","no","Weiter","yes","768","legacy","23","9","0","/Users/aviadalbert/Documents/Academisch/UoC/Dissertation/Experiment/OpenSesame/NAP-FC/NAP_GER_AA_4blocks_noglides/subject-38.csv","xpyriment","Jazzy James","3.1.9","yes","yes","59a800d99ad5a1025d81bb03","59a801616c613b0251691de0","no","no","0","j","f","space","NA","j","f","j","659","2807","23005","NA","26299","12460","659","2","legacy","1024","1","44100","-16","experiment","eʃfal","2","0","0","1","1","Englisch, Spanisch, Schwedisch, (Dutch)","38","Niederdeutsch","even","2341840","2318308","NA","NA","2344648","2341837","NA","1351069","2341371","1351069","1351069","2243191","2269494","2419188","2417685","2419848","2285708","2282245","2318308","NA","2073688","2234535","2316650","2282021","2341840","2282249","NA","2419188","2419188","NA","NA","2417681","NAP perception","19","32542","24","yes","1024"
"76","yes","76","1421.68","1421.68","white","no","xpyriment","Ich habe die obigen Informationen gelesen und verstanden.","legacy","legacy","0","uniform","0","0","0","undefined","undefined","0","f","2","1","NA","0","1","0","0","0","0","0","0","0","0","34","34","34","0","0","0","NA","0","0","2","0","0","0","2","34","34","34","34","34","Fri Nov  3 10:45:04 2017","Forced-choice identification task with a practice and an experimental phase","yes","NAP_GER_AA_4blocks_noglides.osexp","/Users/aviadalbert/Documents/Academisch/UoC/Dissertation/Experiment/OpenSesame/NAP-FC/NAP_GER_AA_4blocks_noglides","yes","no","sans","no","20","no","black","no","Weiter","yes","768","legacy","24","9","0","/Users/aviadalbert/Documents/Academisch/UoC/Dissertation/Experiment/OpenSesame/NAP-FC/NAP_GER_AA_4blocks_noglides/subject-38.csv","xpyriment","Jazzy James","3.1.9","yes","yes","59a800d99ad5a1025d81bb03","59a801616c613b0251691de0","no","no","0","None","f","space","NA","j","f","None","3000","2807","23005","NA","26299","12460","3000","2","legacy","1024","1","44100","-16","experiment","lfal","2","0","0","1","1","Englisch, Spanisch, Schwedisch, (Dutch)","38","Niederdeutsch","even","2341840","2318308","NA","NA","2344648","2341837","NA","1351069","2341371","1351069","1351069","2243191","2269494","2421629","2420125","2425633","2285708","2282245","2318308","NA","2073688","2234535","2316650","2282021","2341840","2282249","NA","2421629","2421629","2424633","2424629","2420121","NAP perception","19","35542","25","yes","1024"
"76.9230769231","yes","76.9230769231","1397.07692308","1397.07692308","white","no","xpyriment","Ich habe die obigen Informationen gelesen und verstanden.","legacy","legacy","0","uniform","1","0","0","undefined","undefined","1","j","2","1","NA","0","1","0","0","0","0","0","0","0","0","35","35","35","0","0","0","NA","0","0","2","0","0","0","2","35","35","35","35","35","Fri Nov  3 10:45:04 2017","Forced-choice identification task with a practice and an experimental phase","yes","NAP_GER_AA_4blocks_noglides.osexp","/Users/aviadalbert/Documents/Academisch/UoC/Dissertation/Experiment/OpenSesame/NAP-FC/NAP_GER_AA_4blocks_noglides","yes","no","sans","no","20","no","black","no","Weiter","yes","768","legacy","25","9","0","/Users/aviadalbert/Documents/Academisch/UoC/Dissertation/Experiment/OpenSesame/NAP-FC/NAP_GER_AA_4blocks_noglides/subject-38.csv","xpyriment","Jazzy James","3.1.9","yes","yes","59a800d99ad5a1025d81bb03","59a801616c613b0251691de0","no","no","0","j","f","space","NA","j","f","j","782","2807","23005","NA","26299","12460","782","2","legacy","1024","1","44100","-16","experiment","emtal","2","0","0","1","1","Englisch, Spanisch, Schwedisch, (Dutch)","38","Niederdeutsch","even","2341840","2318308","NA","NA","2344648","2341837","NA","1351069","2341371","1351069","1351069","2243191","2269494","2427402","2425897","2428185","2285708","2282245","2318308","NA","2073688","2234535","2316650","2282021","2341840","2282249","NA","2427402","2427402","2424633","2424629","2425894","NAP perception","20","36324","26","yes","1024"
"77.7777777778","yes","77.7777777778","1378.81481481","1378.81481481","white","no","xpyriment","Ich habe die obigen Informationen gelesen und verstanden.","legacy","legacy","0","uniform","1","0","0","undefined","undefined","1","f","2","1","NA","0","1","0","0","0","0","0","0","0","0","36","36","36","0","0","0","NA","0","0","2","0","0","0","2","36","36","36","36","36","Fri Nov  3 10:45:04 2017","Forced-choice identification task with a practice and an experimental phase","yes","NAP_GER_AA_4blocks_noglides.osexp","/Users/aviadalbert/Documents/Academisch/UoC/Dissertation/Experiment/OpenSesame/NAP-FC/NAP_GER_AA_4blocks_noglides","yes","no","sans","no","20","no","black","no","Weiter","yes","768","legacy","26","9","0","/Users/aviadalbert/Documents/Academisch/UoC/Dissertation/Experiment/OpenSesame/NAP-FC/NAP_GER_AA_4blocks_noglides/subject-38.csv","xpyriment","Jazzy James","3.1.9","yes","yes","59a800d99ad5a1025d81bb03","59a801616c613b0251691de0","no","no","0","f","f","space","NA","j","f","f","904","2807","23005","NA","26299","12460","904","2","legacy","1024","1","44100","-16","experiment","fnal","2","0","0","1","1","Englisch, Spanisch, Schwedisch, (Dutch)","38","Niederdeutsch","even","2341840","2318308","NA","NA","2344648","2341837","NA","1351069","2341371","1351069","1351069","2243191","2269494","2429965","2428461","2430870","2285708","2282245","2318308","NA","2073688","2234535","2316650","2282021","2341840","2282249","NA","2429965","2429965","2424633","2424629","2428457","NAP perception","21","37228","27","yes","1024"
"78.5714285714","yes","78.5714285714","1373.46428571","1373.46428571","white","no","xpyriment","Ich habe die obigen Informationen gelesen und verstanden.","legacy","legacy","0","uniform","1","0","0","undefined","undefined","1","f","2","1","NA","0","1","0","0","0","0","0","0","0","0","37","37","37","0","0","0","NA","0","0","2","0","0","0","2","37","37","37","37","37","Fri Nov  3 10:45:04 2017","Forced-choice identification task with a practice and an experimental phase","yes","NAP_GER_AA_4blocks_noglides.osexp","/Users/aviadalbert/Documents/Academisch/UoC/Dissertation/Experiment/OpenSesame/NAP-FC/NAP_GER_AA_4blocks_noglides","yes","no","sans","no","20","no","black","no","Weiter","yes","768","legacy","27","9","0","/Users/aviadalbert/Documents/Academisch/UoC/Dissertation/Experiment/OpenSesame/NAP-FC/NAP_GER_AA_4blocks_noglides/subject-38.csv","xpyriment","Jazzy James","3.1.9","yes","yes","59a800d99ad5a1025d81bb03","59a801616c613b0251691de0","no","no","0","f","f","space","NA","j","f","f","1229","2807","23005","NA","26299","12460","1229","2","legacy","1024","1","44100","-16","experiment","fnal","2","0","0","1","1","Englisch, Spanisch, Schwedisch, (Dutch)","38","Niederdeutsch","even","2341840","2318308","NA","NA","2344648","2341837","NA","1351069","2341371","1351069","1351069","2243191","2269494","2432646","2431142","2433876","2285708","2282245","2318308","NA","2073688","2234535","2316650","2282021","2341840","2282249","NA","2432645","2432645","2424633","2424629","2431138","NAP perception","22","38457","28","yes","1024"
"79.3103448276","yes","79.3103448276","1362","1362","white","no","xpyriment","Ich habe die obigen Informationen gelesen und verstanden.","legacy","legacy","0","uniform","1","0","0","undefined","undefined","1","j","2","1","NA","0","1","0","0","0","0","0","0","0","0","38","38","38","0","0","0","NA","0","0","2","0","0","0","2","38","38","38","38","38","Fri Nov  3 10:45:04 2017","Forced-choice identification task with a practice and an experimental phase","yes","NAP_GER_AA_4blocks_noglides.osexp","/Users/aviadalbert/Documents/Academisch/UoC/Dissertation/Experiment/OpenSesame/NAP-FC/NAP_GER_AA_4blocks_noglides","yes","no","sans","no","20","no","black","no","Weiter","yes","768","legacy","28","9","0","/Users/aviadalbert/Documents/Academisch/UoC/Dissertation/Experiment/OpenSesame/NAP-FC/NAP_GER_AA_4blocks_noglides/subject-38.csv","xpyriment","Jazzy James","3.1.9","yes","yes","59a800d99ad5a1025d81bb03","59a801616c613b0251691de0","no","no","0","j","f","space","NA","j","f","j","1041","2807","23005","NA","26299","12460","1041","2","legacy","1024","1","44100","-16","experiment","enfal","2","0","0","1","1","Englisch, Spanisch, Schwedisch, (Dutch)","38","Niederdeutsch","even","2341840","2318308","NA","NA","2344648","2341837","NA","1351069","2341371","1351069","1351069","2243191","2269494","2435651","2434148","2436694","2285708","2282245","2318308","NA","2073688","2234535","2316650","2282021","2341840","2282249","NA","2435651","2435651","2424633","2424629","2434144","NAP perception","23","39498","29","yes","1024"
"80","yes","80","1339.53333333","1339.53333333","white","no","xpyriment","Ich habe die obigen Informationen gelesen und verstanden.","legacy","legacy","0","uniform","1","0","0","undefined","undefined","1","f","2","1","NA","0","1","0","0","0","0","0","0","0","0","39","39","39","0","0","0","NA","0","0","2","0","0","0","2","39","39","39","39","39","Fri Nov  3 10:45:04 2017","Forced-choice identification task with a practice and an experimental phase","yes","NAP_GER_AA_4blocks_noglides.osexp","/Users/aviadalbert/Documents/Academisch/UoC/Dissertation/Experiment/OpenSesame/NAP-FC/NAP_GER_AA_4blocks_noglides","yes","no","sans","no","20","no","black","no","Weiter","yes","768","legacy","29","9","0","/Users/aviadalbert/Documents/Academisch/UoC/Dissertation/Experiment/OpenSesame/NAP-FC/NAP_GER_AA_4blocks_noglides/subject-38.csv","xpyriment","Jazzy James","3.1.9","yes","yes","59a800d99ad5a1025d81bb03","59a801616c613b0251691de0","no","no","0","f","f","space","NA","j","f","f","688","2807","23005","NA","26299","12460","688","2","legacy","1024","1","44100","-16","experiment","smal","2","0","0","1","1","Englisch, Spanisch, Schwedisch, (Dutch)","38","Niederdeutsch","even","2341840","2318308","NA","NA","2344648","2341837","NA","1351069","2341371","1351069","1351069","2243191","2269494","2438471","2436966","2439161","2285708","2282245","2318308","NA","2073688","2234535","2316650","2282021","2341840","2282249","NA","2438470","2438470","2424633","2424629","2436962","NAP perception","24","40186","30","yes","1024"
"80.6451612903","yes","80.6451612903","1314.32258065","1314.32258065","white","no","xpyriment","Ich habe die obigen Informationen gelesen und verstanden.","legacy","legacy","0","uniform","1","0","0","undefined","undefined","1","f","2","1","NA","0","1","0","0","0","0","0","0","0","0","40","40","40","0","0","0","NA","0","0","2","0","0","0","2","40","40","40","40","40","Fri Nov  3 10:45:04 2017","Forced-choice identification task with a practice and an experimental phase","yes","NAP_GER_AA_4blocks_noglides.osexp","/Users/aviadalbert/Documents/Academisch/UoC/Dissertation/Experiment/OpenSesame/NAP-FC/NAP_GER_AA_4blocks_noglides","yes","no","sans","no","20","no","black","no","Weiter","yes","768","legacy","30","9","0","/Users/aviadalbert/Documents/Academisch/UoC/Dissertation/Experiment/OpenSesame/NAP-FC/NAP_GER_AA_4blocks_noglides/subject-38.csv","xpyriment","Jazzy James","3.1.9","yes","yes","59a800d99ad5a1025d81bb03","59a801616c613b0251691de0","no","no","0","f","f","space","NA","j","f","f","558","2807","23005","NA","26299","12460","558","2","legacy","1024","1","44100","-16","experiment","spal","2","0","0","1","1","Englisch, Spanisch, Schwedisch, (Dutch)","38","Niederdeutsch","even","2341840","2318308","NA","NA","2344648","2341837","NA","1351069","2341371","1351069","1351069","2243191","2269494","2440943","2439440","2441503","2285708","2282245","2318308","NA","2073688","2234535","2316650","2282021","2341840","2282249","NA","2440943","2440943","2424633","2424629","2439436","NAP perception","25","40744","31","yes","1024"
"81.25","yes","81.25","1316.375","1316.375","white","no","xpyriment","Ich habe die obigen Informationen gelesen und verstanden.","legacy","legacy","0","uniform","1","0","0","undefined","undefined","1","f","2","1","NA","0","1","0","0","0","0","0","0","0","0","41","41","41","0","0","0","NA","0","0","2","0","0","0","2","41","41","41","41","41","Fri Nov  3 10:45:04 2017","Forced-choice identification task with a practice and an experimental phase","yes","NAP_GER_AA_4blocks_noglides.osexp","/Users/aviadalbert/Documents/Academisch/UoC/Dissertation/Experiment/OpenSesame/NAP-FC/NAP_GER_AA_4blocks_noglides","yes","no","sans","no","20","no","black","no","Weiter","yes","768","legacy","31","9","0","/Users/aviadalbert/Documents/Academisch/UoC/Dissertation/Experiment/OpenSesame/NAP-FC/NAP_GER_AA_4blocks_noglides/subject-38.csv","xpyriment","Jazzy James","3.1.9","yes","yes","59a800d99ad5a1025d81bb03","59a801616c613b0251691de0","no","no","0","f","f","space","NA","j","f","f","1380","2807","23005","NA","26299","12460","1380","2","legacy","1024","1","44100","-16","experiment","vzal","2","0","0","1","1","Englisch, Spanisch, Schwedisch, (Dutch)","38","Niederdeutsch","even","2341840","2318308","NA","NA","2344648","2341837","NA","1351069","2341371","1351069","1351069","2243191","2269494","2443265","2441762","2444647","2285708","2282245","2318308","NA","2073688","2234535","2316650","2282021","2341840","2282249","NA","2443265","2443265","2424633","2424629","2441758","NAP perception","26","42124","32","yes","1024"
"81.8181818182","yes","81.8181818182","1300.33333333","1300.33333333","white","no","xpyriment","Ich habe die obigen Informationen gelesen und verstanden.","legacy","legacy","0","uniform","1","0","0","undefined","undefined","1","j","2","1","NA","0","1","0","0","0","0","0","0","0","0","42","42","42","0","0","0","NA","0","0","2","0","0","0","2","42","42","42","42","42","Fri Nov  3 10:45:04 2017","Forced-choice identification task with a practice and an experimental phase","yes","NAP_GER_AA_4blocks_noglides.osexp","/Users/aviadalbert/Documents/Academisch/UoC/Dissertation/Experiment/OpenSesame/NAP-FC/NAP_GER_AA_4blocks_noglides","yes","no","sans","no","20","no","black","no","Weiter","yes","768","legacy","32","9","0","/Users/aviadalbert/Documents/Academisch/UoC/Dissertation/Experiment/OpenSesame/NAP-FC/NAP_GER_AA_4blocks_noglides/subject-38.csv","xpyriment","Jazzy James","3.1.9","yes","yes","59a800d99ad5a1025d81bb03","59a801616c613b0251691de0","no","no","0","j","f","space","NA","j","f","j","787","2807","23005","NA","26299","12460","787","2","legacy","1024","1","44100","-16","experiment","nemal","2","0","0","1","1","Englisch, Spanisch, Schwedisch, (Dutch)","38","Niederdeutsch","even","2341840","2318308","NA","NA","2344648","2341837","NA","1351069","2341371","1351069","1351069","2243191","2269494","2446426","2444923","2447215","2285708","2282245","2318308","NA","2073688","2234535","2316650","2282021","2341840","2282249","NA","2446426","2446426","2424633","2424629","2444919","NAP perception","27","42911","33","yes","1024"
"79.4117647059","yes","79.4117647059","1294.08823529","1294.08823529","white","no","xpyriment","Ich habe die obigen Informationen gelesen und verstanden.","legacy","legacy","0","uniform","0","0","0","undefined","undefined","0","f","2","1","NA","0","1","0","0","0","0","0","0","0","0","43","43","43","0","0","0","NA","0","0","2","0","0","0","2","43","43","43","43","43","Fri Nov  3 10:45:04 2017","Forced-choice identification task with a practice and an experimental phase","yes","NAP_GER_AA_4blocks_noglides.osexp","/Users/aviadalbert/Documents/Academisch/UoC/Dissertation/Experiment/OpenSesame/NAP-FC/NAP_GER_AA_4blocks_noglides","yes","no","sans","no","20","no","black","no","Weiter","yes","768","legacy","33","9","0","/Users/aviadalbert/Documents/Academisch/UoC/Dissertation/Experiment/OpenSesame/NAP-FC/NAP_GER_AA_4blocks_noglides/subject-38.csv","xpyriment","Jazzy James","3.1.9","yes","yes","59a800d99ad5a1025d81bb03","59a801616c613b0251691de0","no","no","0","j","f","space","NA","j","f","j","1088","2807","23005","NA","26299","12460","1088","2","legacy","1024","1","44100","-16","experiment","msal","2","0","0","1","1","Englisch, Spanisch, Schwedisch, (Dutch)","38","Niederdeutsch","even","2341840","2318308","NA","NA","2344648","2341837","NA","1351069","2341371","1351069","1351069","2243191","2269494","2448991","2447487","2450080","2285708","2282245","2318308","NA","2073688","2234535","2316650","2282021","2341840","2282249","NA","2448991","2448991","2424633","2424629","2447483","NAP perception","27","43999","34","yes","1024"
"77.1428571429","yes","77.1428571429","1290.08571429","1290.08571429","white","no","xpyriment","Ich habe die obigen Informationen gelesen und verstanden.","legacy","legacy","0","uniform","0","0","0","undefined","undefined","0","f","2","1","NA","0","1","0","0","0","0","0","0","0","0","44","44","44","0","0","0","NA","0","0","2","0","0","0","2","44","44","44","44","44","Fri Nov  3 10:45:04 2017","Forced-choice identification task with a practice and an experimental phase","yes","NAP_GER_AA_4blocks_noglides.osexp","/Users/aviadalbert/Documents/Academisch/UoC/Dissertation/Experiment/OpenSesame/NAP-FC/NAP_GER_AA_4blocks_noglides","yes","no","sans","no","20","no","black","no","Weiter","yes","768","legacy","34","9","0","/Users/aviadalbert/Documents/Academisch/UoC/Dissertation/Experiment/OpenSesame/NAP-FC/NAP_GER_AA_4blocks_noglides/subject-38.csv","xpyriment","Jazzy James","3.1.9","yes","yes","59a800d99ad5a1025d81bb03","59a801616c613b0251691de0","no","no","0","j","f","space","NA","j","f","j","1154","2807","23005","NA","26299","12460","1154","2","legacy","1024","1","44100","-16","experiment","lfal","2","0","0","1","1","Englisch, Spanisch, Schwedisch, (Dutch)","38","Niederdeutsch","even","2341840","2318308","NA","NA","2344648","2341837","NA","1351069","2341371","1351069","1351069","2243191","2269494","2451846","2450343","2453000","2285708","2282245","2318308","NA","2073688","2234535","2316650","2282021","2341840","2282249","NA","2451846","2451846","2424633","2424629","2450339","NAP perception","27","45153","35","yes","1024"
"77.7777777778","yes","77.7777777778","1274.25","1274.25","white","no","xpyriment","Ich habe die obigen Informationen gelesen und verstanden.","legacy","legacy","0","uniform","1","0","0","undefined","undefined","1","j","2","1","NA","0","1","0","0","0","0","0","0","0","0","45","45","45","0","0","0","NA","0","0","2","0","0","0","2","45","45","45","45","45","Fri Nov  3 10:45:04 2017","Forced-choice identification task with a practice and an experimental phase","yes","NAP_GER_AA_4blocks_noglides.osexp","/Users/aviadalbert/Documents/Academisch/UoC/Dissertation/Experiment/OpenSesame/NAP-FC/NAP_GER_AA_4blocks_noglides","yes","no","sans","no","20","no","black","no","Weiter","yes","768","legacy","35","9","0","/Users/aviadalbert/Documents/Academisch/UoC/Dissertation/Experiment/OpenSesame/NAP-FC/NAP_GER_AA_4blocks_noglides/subject-38.csv","xpyriment","Jazzy James","3.1.9","yes","yes","59a800d99ad5a1025d81bb03","59a801616c613b0251691de0","no","no","0","j","f","space","NA","j","f","j","720","2807","23005","NA","26299","12460","720","2","legacy","1024","1","44100","-16","experiment","emlal","2","0","0","1","1","Englisch, Spanisch, Schwedisch, (Dutch)","38","Niederdeutsch","even","2341840","2318308","NA","NA","2344648","2341837","NA","1351069","2341371","1351069","1351069","2243191","2269494","2454782","2453278","2455503","2285708","2282245","2318308","NA","2073688","2234535","2316650","2282021","2341840","2282249","NA","2454782","2454782","2424633","2424629","2453274","NAP perception","28","45873","36","yes","1024"
"78.3783783784","yes","78.3783783784","1266.16216216","1266.16216216","white","no","xpyriment","Ich habe die obigen Informationen gelesen und verstanden.","legacy","legacy","0","uniform","1","0","0","undefined","undefined","1","j","2","1","NA","0","1","0","0","0","0","0","0","0","0","46","46","46","0","0","0","NA","0","0","2","0","0","0","2","46","46","46","46","46","Fri Nov  3 10:45:04 2017","Forced-choice identification task with a practice and an experimental phase","yes","NAP_GER_AA_4blocks_noglides.osexp","/Users/aviadalbert/Documents/Academisch/UoC/Dissertation/Experiment/OpenSesame/NAP-FC/NAP_GER_AA_4blocks_noglides","yes","no","sans","no","20","no","black","no","Weiter","yes","768","legacy","36","9","0","/Users/aviadalbert/Documents/Academisch/UoC/Dissertation/Experiment/OpenSesame/NAP-FC/NAP_GER_AA_4blocks_noglides/subject-38.csv","xpyriment","Jazzy James","3.1.9","yes","yes","59a800d99ad5a1025d81bb03","59a801616c613b0251691de0","no","no","0","j","f","space","NA","j","f","j","975","2807","23005","NA","26299","12460","975","2","legacy","1024","1","44100","-16","experiment","fesal","2","0","0","1","1","Englisch, Spanisch, Schwedisch, (Dutch)","38","Niederdeutsch","even","2341840","2318308","NA","NA","2344648","2341837","NA","1351069","2341371","1351069","1351069","2243191","2269494","2457284","2455781","2458260","2285708","2282245","2318308","NA","2073688","2234535","2316650","2282021","2341840","2282249","NA","2457284","2457284","2424633","2424629","2455777","NAP perception","29","46848","37","yes","1024"
"78.9473684211","yes","78.9473684211","1257.76315789","1257.76315789","white","no","xpyriment","Ich habe die obigen Informationen gelesen und verstanden.","legacy","legacy","0","uniform","1","0","0","undefined","undefined","1","j","2","1","NA","0","1","0","0","0","0","0","0","0","0","47","47","47","0","0","0","NA","0","0","2","0","0","0","2","47","47","47","47","47","Fri Nov  3 10:45:04 2017","Forced-choice identification task with a practice and an experimental phase","yes","NAP_GER_AA_4blocks_noglides.osexp","/Users/aviadalbert/Documents/Academisch/UoC/Dissertation/Experiment/OpenSesame/NAP-FC/NAP_GER_AA_4blocks_noglides","yes","no","sans","no","20","no","black","no","Weiter","yes","768","legacy","37","9","0","/Users/aviadalbert/Documents/Academisch/UoC/Dissertation/Experiment/OpenSesame/NAP-FC/NAP_GER_AA_4blocks_noglides/subject-38.csv","xpyriment","Jazzy James","3.1.9","yes","yes","59a800d99ad5a1025d81bb03","59a801616c613b0251691de0","no","no","0","j","f","space","NA","j","f","j","947","2807","23005","NA","26299","12460","947","2","legacy","1024","1","44100","-16","experiment","sefal","2","0","0","1","1","Englisch, Spanisch, Schwedisch, (Dutch)","38","Niederdeutsch","even","2341840","2318308","NA","NA","2344648","2341837","NA","1351069","2341371","1351069","1351069","2243191","2269494","2460041","2458535","2460989","2285708","2282245","2318308","NA","2073688","2234535","2316650","2282021","2341840","2282249","NA","2460040","2460041","2424633","2424629","2458531","NAP perception","30","47795","38","yes","1024"
"79.4871794872","yes","79.4871794872","1258.79487179","1258.79487179","white","no","xpyriment","Ich habe die obigen Informationen gelesen und verstanden.","legacy","legacy","0","uniform","1","0","0","undefined","undefined","1","j","2","1","NA","0","1","0","0","0","0","0","0","0","0","48","48","48","0","0","0","NA","0","0","2","0","0","0","2","48","48","48","48","48","Fri Nov  3 10:45:04 2017","Forced-choice identification task with a practice and an experimental phase","yes","NAP_GER_AA_4blocks_noglides.osexp","/Users/aviadalbert/Documents/Academisch/UoC/Dissertation/Experiment/OpenSesame/NAP-FC/NAP_GER_AA_4blocks_noglides","yes","no","sans","no","20","no","black","no","Weiter","yes","768","legacy","38","9","0","/Users/aviadalbert/Documents/Academisch/UoC/Dissertation/Experiment/OpenSesame/NAP-FC/NAP_GER_AA_4blocks_noglides/subject-38.csv","xpyriment","Jazzy James","3.1.9","yes","yes","59a800d99ad5a1025d81bb03","59a801616c613b0251691de0","no","no","0","j","f","space","NA","j","f","j","1298","2807","23005","NA","26299","12460","1298","2","legacy","1024","1","44100","-16","experiment","evnal","2","0","0","1","1","Englisch, Spanisch, Schwedisch, (Dutch)","38","Niederdeutsch","even","2341840","2318308","NA","NA","2344648","2341837","NA","1351069","2341371","1351069","1351069","2243191","2269494","2462771","2461264","2464070","2285708","2282245","2318308","NA","2073688","2234535","2316650","2282021","2341840","2282249","NA","2462771","2462771","2424633","2424629","2461260","NAP perception","31","49093","39","yes","1024"
"80","yes","80","1247.175","1247.175","white","no","xpyriment","Ich habe die obigen Informationen gelesen und verstanden.","legacy","legacy","0","uniform","1","0","0","undefined","undefined","1","j","2","1","NA","0","1","0","0","0","0","0","0","0","0","49","49","49","0","0","0","NA","0","0","2","0","0","0","2","49","49","49","49","49","Fri Nov  3 10:45:04 2017","Forced-choice identification task with a practice and an experimental phase","yes","NAP_GER_AA_4blocks_noglides.osexp","/Users/aviadalbert/Documents/Academisch/UoC/Dissertation/Experiment/OpenSesame/NAP-FC/NAP_GER_AA_4blocks_noglides","yes","no","sans","no","20","no","black","no","Weiter","yes","768","legacy","39","9","0","/Users/aviadalbert/Documents/Academisch/UoC/Dissertation/Experiment/OpenSesame/NAP-FC/NAP_GER_AA_4blocks_noglides/subject-38.csv","xpyriment","Jazzy James","3.1.9","yes","yes","59a800d99ad5a1025d81bb03","59a801616c613b0251691de0","no","no","0","j","f","space","NA","j","f","j","794","2807","23005","NA","26299","12460","794","2","legacy","1024","1","44100","-16","experiment","ezmal","2","0","0","1","1","Englisch, Spanisch, Schwedisch, (Dutch)","38","Niederdeutsch","even","2341840","2318308","NA","NA","2344648","2341837","NA","1351069","2341371","1351069","1351069","2243191","2269494","2465858","2464353","2466654","2285708","2282245","2318308","NA","2073688","2234535","2316650","2282021","2341840","2282249","NA","2465858","2465858","2424633","2424629","2464349","NAP perception","32","49887","40","yes","1024"
"80.487804878","yes","80.487804878","1239.65853659","1239.65853659","white","no","xpyriment","Ich habe die obigen Informationen gelesen und verstanden.","legacy","legacy","0","uniform","1","0","0","undefined","undefined","1","f","2","1","NA","0","1","0","0","0","0","0","0","0","0","50","50","50","0","0","0","NA","0","0","2","0","0","0","2","50","50","50","50","50","Fri Nov  3 10:45:04 2017","Forced-choice identification task with a practice and an experimental phase","yes","NAP_GER_AA_4blocks_noglides.osexp","/Users/aviadalbert/Documents/Academisch/UoC/Dissertation/Experiment/OpenSesame/NAP-FC/NAP_GER_AA_4blocks_noglides","yes","no","sans","no","20","no","black","no","Weiter","yes","768","legacy","40","9","0","/Users/aviadalbert/Documents/Academisch/UoC/Dissertation/Experiment/OpenSesame/NAP-FC/NAP_GER_AA_4blocks_noglides/subject-38.csv","xpyriment","Jazzy James","3.1.9","yes","yes","59a800d99ad5a1025d81bb03","59a801616c613b0251691de0","no","no","0","f","f","space","NA","j","f","f","939","2807","23005","NA","26299","12460","939","2","legacy","1024","1","44100","-16","experiment","ftal","2","0","0","1","1","Englisch, Spanisch, Schwedisch, (Dutch)","38","Niederdeutsch","even","2341840","2318308","NA","NA","2344648","2341837","NA","1351069","2341371","1351069","1351069","2243191","2269494","2468435","2466928","2469376","2285708","2282245","2318308","NA","2073688","2234535","2316650","2282021","2341840","2282249","NA","2468435","2468435","2424633","2424629","2466924","NAP perception","33","50826","41","yes","1024"
"80.9523809524","yes","80.9523809524","1238.02380952","1238.02380952","white","no","xpyriment","Ich habe die obigen Informationen gelesen und verstanden.","legacy","legacy","0","uniform","1","0","0","undefined","undefined","1","f","2","1","NA","0","1","0","0","0","0","0","0","0","0","51","51","51","0","0","0","NA","0","0","2","0","0","0","2","51","51","51","51","51","Fri Nov  3 10:45:04 2017","Forced-choice identification task with a practice and an experimental phase","yes","NAP_GER_AA_4blocks_noglides.osexp","/Users/aviadalbert/Documents/Academisch/UoC/Dissertation/Experiment/OpenSesame/NAP-FC/NAP_GER_AA_4blocks_noglides","yes","no","sans","no","20","no","black","no","Weiter","yes","768","legacy","41","9","0","/Users/aviadalbert/Documents/Academisch/UoC/Dissertation/Experiment/OpenSesame/NAP-FC/NAP_GER_AA_4blocks_noglides/subject-38.csv","xpyriment","Jazzy James","3.1.9","yes","yes","59a800d99ad5a1025d81bb03","59a801616c613b0251691de0","no","no","0","f","f","space","NA","j","f","f","1171","2807","23005","NA","26299","12460","1171","2","legacy","1024","1","44100","-16","experiment","ʃfal","2","0","0","1","1","Englisch, Spanisch, Schwedisch, (Dutch)","38","Niederdeutsch","even","2341840","2318308","NA","NA","2344648","2341837","NA","1351069","2341371","1351069","1351069","2243191","2269494","2471154","2469650","2472327","2285708","2282245","2318308","NA","2073688","2234535","2316650","2282021","2341840","2282249","NA","2471154","2471154","2424633","2424629","2469646","NAP perception","34","51997","42","yes","1024"
"81.3953488372","yes","81.3953488372","1228.09302326","1228.09302326","white","no","xpyriment","Ich habe die obigen Informationen gelesen und verstanden.","legacy","legacy","0","uniform","1","0","0","undefined","undefined","1","j","2","1","NA","0","1","0","0","0","0","0","0","0","0","52","52","52","0","0","0","NA","0","0","2","0","0","0","2","52","52","52","52","52","Fri Nov  3 10:45:04 2017","Forced-choice identification task with a practice and an experimental phase","yes","NAP_GER_AA_4blocks_noglides.osexp","/Users/aviadalbert/Documents/Academisch/UoC/Dissertation/Experiment/OpenSesame/NAP-FC/NAP_GER_AA_4blocks_noglides","yes","no","sans","no","20","no","black","no","Weiter","yes","768","legacy","42","9","0","/Users/aviadalbert/Documents/Academisch/UoC/Dissertation/Experiment/OpenSesame/NAP-FC/NAP_GER_AA_4blocks_noglides/subject-38.csv","xpyriment","Jazzy James","3.1.9","yes","yes","59a800d99ad5a1025d81bb03","59a801616c613b0251691de0","no","no","0","j","f","space","NA","j","f","j","811","2807","23005","NA","26299","12460","811","2","legacy","1024","1","44100","-16","experiment","mezal","2","0","0","1","1","Englisch, Spanisch, Schwedisch, (Dutch)","38","Niederdeutsch","even","2341840","2318308","NA","NA","2344648","2341837","NA","1351069","2341371","1351069","1351069","2243191","2269494","2474103","2472600","2474916","2285708","2282245","2318308","NA","2073688","2234535","2316650","2282021","2341840","2282249","NA","2474103","2474103","2424633","2424629","2472596","NAP perception","35","52808","43","yes","1024"
"81.8181818182","yes","81.8181818182","1216.56818182","1216.56818182","white","no","xpyriment","Ich habe die obigen Informationen gelesen und verstanden.","legacy","legacy","0","uniform","1","0","0","undefined","undefined","1","j","2","1","NA","0","1","0","0","0","0","0","0","0","0","53","53","53","0","0","0","NA","0","0","2","0","0","0","2","53","53","53","53","53","Fri Nov  3 10:45:04 2017","Forced-choice identification task with a practice and an experimental phase","yes","NAP_GER_AA_4blocks_noglides.osexp","/Users/aviadalbert/Documents/Academisch/UoC/Dissertation/Experiment/OpenSesame/NAP-FC/NAP_GER_AA_4blocks_noglides","yes","no","sans","no","20","no","black","no","Weiter","yes","768","legacy","43","9","0","/Users/aviadalbert/Documents/Academisch/UoC/Dissertation/Experiment/OpenSesame/NAP-FC/NAP_GER_AA_4blocks_noglides/subject-38.csv","xpyriment","Jazzy James","3.1.9","yes","yes","59a800d99ad5a1025d81bb03","59a801616c613b0251691de0","no","no","0","j","f","space","NA","j","f","j","721","2807","23005","NA","26299","12460","721","2","legacy","1024","1","44100","-16","experiment","sepal","2","0","0","1","1","Englisch, Spanisch, Schwedisch, (Dutch)","38","Niederdeutsch","even","2341840","2318308","NA","NA","2344648","2341837","NA","1351069","2341371","1351069","1351069","2243191","2269494","2476702","2475194","2477424","2285708","2282245","2318308","NA","2073688","2234535","2316650","2282021","2341840","2282249","NA","2476702","2476702","2424633","2424629","2475191","NAP perception","36","53529","44","yes","1024"
"80","yes","80","1209.64444444","1209.64444444","white","no","xpyriment","Ich habe die obigen Informationen gelesen und verstanden.","legacy","legacy","0","uniform","0","0","0","undefined","undefined","0","f","2","1","NA","0","1","0","0","0","0","0","0","0","0","54","54","54","0","0","0","NA","0","0","2","0","0","0","2","54","54","54","54","54","Fri Nov  3 10:45:04 2017","Forced-choice identification task with a practice and an experimental phase","yes","NAP_GER_AA_4blocks_noglides.osexp","/Users/aviadalbert/Documents/Academisch/UoC/Dissertation/Experiment/OpenSesame/NAP-FC/NAP_GER_AA_4blocks_noglides","yes","no","sans","no","20","no","black","no","Weiter","yes","768","legacy","44","9","0","/Users/aviadalbert/Documents/Academisch/UoC/Dissertation/Experiment/OpenSesame/NAP-FC/NAP_GER_AA_4blocks_noglides/subject-38.csv","xpyriment","Jazzy James","3.1.9","yes","yes","59a800d99ad5a1025d81bb03","59a801616c613b0251691de0","no","no","0","j","f","space","NA","j","f","j","905","2807","23005","NA","26299","12460","905","2","legacy","1024","1","44100","-16","experiment","nmal","2","0","0","1","1","Englisch, Spanisch, Schwedisch, (Dutch)","38","Niederdeutsch","even","2341840","2318308","NA","NA","2344648","2341837","NA","1351069","2341371","1351069","1351069","2243191","2269494","2479193","2477690","2480100","2285708","2282245","2318308","NA","2073688","2234535","2316650","2282021","2341840","2282249","NA","2479193","2479193","2424633","2424629","2477687","NAP perception","36","54434","45","yes","1024"
"80.4347826087","yes","80.4347826087","1197.69565217","1197.69565217","white","no","xpyriment","Ich habe die obigen Informationen gelesen und verstanden.","legacy","legacy","0","uniform","1","0","0","undefined","undefined","1","j","2","1","NA","0","1","0","0","0","0","0","0","0","0","55","55","55","0","0","0","NA","0","0","2","0","0","0","2","55","55","55","55","55","Fri Nov  3 10:45:04 2017","Forced-choice identification task with a practice and an experimental phase","yes","NAP_GER_AA_4blocks_noglides.osexp","/Users/aviadalbert/Documents/Academisch/UoC/Dissertation/Experiment/OpenSesame/NAP-FC/NAP_GER_AA_4blocks_noglides","yes","no","sans","no","20","no","black","no","Weiter","yes","768","legacy","45","9","0","/Users/aviadalbert/Documents/Academisch/UoC/Dissertation/Experiment/OpenSesame/NAP-FC/NAP_GER_AA_4blocks_noglides/subject-38.csv","xpyriment","Jazzy James","3.1.9","yes","yes","59a800d99ad5a1025d81bb03","59a801616c613b0251691de0","no","no","0","j","f","space","NA","j","f","j","660","2807","23005","NA","26299","12460","660","2","legacy","1024","1","44100","-16","experiment","zemal","2","0","0","1","1","Englisch, Spanisch, Schwedisch, (Dutch)","38","Niederdeutsch","even","2341840","2318308","NA","NA","2344648","2341837","NA","1351069","2341371","1351069","1351069","2243191","2269494","2481892","2480388","2482553","2285708","2282245","2318308","NA","2073688","2234535","2316650","2282021","2341840","2282249","NA","2481892","2481892","2424633","2424629","2480384","NAP perception","37","55094","46","yes","1024"
"80.8510638298","yes","80.8510638298","1186.29787234","1186.29787234","white","no","xpyriment","Ich habe die obigen Informationen gelesen und verstanden.","legacy","legacy","0","uniform","1","0","0","undefined","undefined","1","j","2","1","NA","0","1","0","0","0","0","0","0","0","0","56","56","56","0","0","0","NA","0","0","2","0","0","0","2","56","56","56","56","56","Fri Nov  3 10:45:04 2017","Forced-choice identification task with a practice and an experimental phase","yes","NAP_GER_AA_4blocks_noglides.osexp","/Users/aviadalbert/Documents/Academisch/UoC/Dissertation/Experiment/OpenSesame/NAP-FC/NAP_GER_AA_4blocks_noglides","yes","no","sans","no","20","no","black","no","Weiter","yes","768","legacy","46","9","0","/Users/aviadalbert/Documents/Academisch/UoC/Dissertation/Experiment/OpenSesame/NAP-FC/NAP_GER_AA_4blocks_noglides/subject-38.csv","xpyriment","Jazzy James","3.1.9","yes","yes","59a800d99ad5a1025d81bb03","59a801616c613b0251691de0","no","no","0","j","f","space","NA","j","f","j","662","2807","23005","NA","26299","12460","662","2","legacy","1024","1","44100","-16","experiment","fetal","2","0","0","1","1","Englisch, Spanisch, Schwedisch, (Dutch)","38","Niederdeutsch","even","2341840","2318308","NA","NA","2344648","2341837","NA","1351069","2341371","1351069","1351069","2243191","2269494","2484337","2482834","2485000","2285708","2282245","2318308","NA","2073688","2234535","2316650","2282021","2341840","2282249","NA","2484337","2484337","2424633","2424629","2482830","NAP perception","38","55756","47","yes","1024"
"81.25","yes","81.25","1172.52083333","1172.52083333","white","no","xpyriment","Ich habe die obigen Informationen gelesen und verstanden.","legacy","legacy","0","uniform","1","0","0","undefined","undefined","1","j","2","1","NA","0","1","0","0","0","0","0","0","0","0","57","57","57","0","0","0","NA","0","0","2","0","0","0","2","57","57","57","57","57","Fri Nov  3 10:45:04 2017","Forced-choice identification task with a practice and an experimental phase","yes","NAP_GER_AA_4blocks_noglides.osexp","/Users/aviadalbert/Documents/Academisch/UoC/Dissertation/Experiment/OpenSesame/NAP-FC/NAP_GER_AA_4blocks_noglides","yes","no","sans","no","20","no","black","no","Weiter","yes","768","legacy","47","9","0","/Users/aviadalbert/Documents/Academisch/UoC/Dissertation/Experiment/OpenSesame/NAP-FC/NAP_GER_AA_4blocks_noglides/subject-38.csv","xpyriment","Jazzy James","3.1.9","yes","yes","59a800d99ad5a1025d81bb03","59a801616c613b0251691de0","no","no","0","j","f","space","NA","j","f","j","525","2807","23005","NA","26299","12460","525","2","legacy","1024","1","44100","-16","experiment","ʃefal","2","0","0","1","1","Englisch, Spanisch, Schwedisch, (Dutch)","38","Niederdeutsch","even","2341840","2318308","NA","NA","2344648","2341837","NA","1351069","2341371","1351069","1351069","2243191","2269494","2486782","2485277","2487308","2285708","2282245","2318308","NA","2073688","2234535","2316650","2282021","2341840","2282249","NA","2486782","2486782","2424633","2424629","2485273","NAP perception","39","56281","48","yes","1024"
"81.6326530612","yes","81.6326530612","1159.95918367","1159.95918367","white","no","xpyriment","Ich habe die obigen Informationen gelesen und verstanden.","legacy","legacy","0","uniform","1","0","0","undefined","undefined","1","j","2","1","NA","0","1","0","0","0","0","0","0","0","0","58","58","58","0","0","0","NA","0","0","2","0","0","0","2","58","58","58","58","58","Fri Nov  3 10:45:04 2017","Forced-choice identification task with a practice and an experimental phase","yes","NAP_GER_AA_4blocks_noglides.osexp","/Users/aviadalbert/Documents/Academisch/UoC/Dissertation/Experiment/OpenSesame/NAP-FC/NAP_GER_AA_4blocks_noglides","yes","no","sans","no","20","no","black","no","Weiter","yes","768","legacy","48","9","0","/Users/aviadalbert/Documents/Academisch/UoC/Dissertation/Experiment/OpenSesame/NAP-FC/NAP_GER_AA_4blocks_noglides/subject-38.csv","xpyriment","Jazzy James","3.1.9","yes","yes","59a800d99ad5a1025d81bb03","59a801616c613b0251691de0","no","no","0","j","f","space","NA","j","f","j","557","2807","23005","NA","26299","12460","557","2","legacy","1024","1","44100","-16","experiment","vezal","2","0","0","1","1","Englisch, Spanisch, Schwedisch, (Dutch)","38","Niederdeutsch","even","2341840","2318308","NA","NA","2344648","2341837","NA","1351069","2341371","1351069","1351069","2243191","2269494","2489090","2487587","2489649","2285708","2282245","2318308","NA","2073688","2234535","2316650","2282021","2341840","2282249","NA","2489090","2489090","2424633","2424629","2487583","NAP perception","40","56838","49","yes","1024"
"82","yes","82","1152.82","1152.82","white","no","xpyriment","Ich habe die obigen Informationen gelesen und verstanden.","legacy","legacy","0","uniform","1","0","0","undefined","undefined","1","f","2","1","NA","0","1","0","0","0","0","0","0","0","0","59","59","59","0","0","0","NA","0","0","2","0","0","0","2","59","59","59","59","59","Fri Nov  3 10:45:04 2017","Forced-choice identification task with a practice and an experimental phase","yes","NAP_GER_AA_4blocks_noglides.osexp","/Users/aviadalbert/Documents/Academisch/UoC/Dissertation/Experiment/OpenSesame/NAP-FC/NAP_GER_AA_4blocks_noglides","yes","no","sans","no","20","no","black","no","Weiter","yes","768","legacy","49","9","0","/Users/aviadalbert/Documents/Academisch/UoC/Dissertation/Experiment/OpenSesame/NAP-FC/NAP_GER_AA_4blocks_noglides/subject-38.csv","xpyriment","Jazzy James","3.1.9","yes","yes","59a800d99ad5a1025d81bb03","59a801616c613b0251691de0","no","no","0","f","f","space","NA","j","f","f","803","2807","23005","NA","26299","12460","803","2","legacy","1024","1","44100","-16","experiment","ʃpal","2","0","0","1","1","Englisch, Spanisch, Schwedisch, (Dutch)","38","Niederdeutsch","even","2341840","2318308","NA","NA","2344648","2341837","NA","1351069","2341371","1351069","1351069","2243191","2269494","2491436","2489930","2492240","2285708","2282245","2318308","NA","2073688","2234535","2316650","2282021","2341840","2282249","NA","2491436","2491436","2424633","2424629","2489926","NAP perception","41","57641","50","yes","1024"
"82.3529411765","yes","82.3529411765","1144.49019608","1144.49019608","white","no","xpyriment","Ich habe die obigen Informationen gelesen und verstanden.","legacy","legacy","0","uniform","1","0","0","undefined","undefined","1","j","2","1","NA","0","1","0","0","0","0","0","0","0","0","60","60","60","0","0","0","NA","0","0","2","0","0","0","2","60","60","60","60","60","Fri Nov  3 10:45:04 2017","Forced-choice identification task with a practice and an experimental phase","yes","NAP_GER_AA_4blocks_noglides.osexp","/Users/aviadalbert/Documents/Academisch/UoC/Dissertation/Experiment/OpenSesame/NAP-FC/NAP_GER_AA_4blocks_noglides","yes","no","sans","no","20","no","black","no","Weiter","yes","768","legacy","50","9","0","/Users/aviadalbert/Documents/Academisch/UoC/Dissertation/Experiment/OpenSesame/NAP-FC/NAP_GER_AA_4blocks_noglides/subject-38.csv","xpyriment","Jazzy James","3.1.9","yes","yes","59a800d99ad5a1025d81bb03","59a801616c613b0251691de0","no","no","0","j","f","space","NA","j","f","j","728","2807","23005","NA","26299","12460","728","2","legacy","1024","1","44100","-16","experiment","ezval","2","0","0","1","1","Englisch, Spanisch, Schwedisch, (Dutch)","38","Niederdeutsch","even","2341840","2318308","NA","NA","2344648","2341837","NA","1351069","2341371","1351069","1351069","2243191","2269494","2494015","2492512","2494745","2285708","2282245","2318308","NA","2073688","2234535","2316650","2282021","2341840","2282249","NA","2494015","2494015","2424633","2424629","2492508","NAP perception","42","58369","51","yes","1024"
"82.6923076923","yes","82.6923076923","1148.46153846","1148.46153846","white","no","xpyriment","Ich habe die obigen Informationen gelesen und verstanden.","legacy","legacy","0","uniform","1","0","0","undefined","undefined","1","f","2","1","NA","0","1","0","0","0","0","0","0","0","0","61","61","61","0","0","0","NA","0","0","2","0","0","0","2","61","61","61","61","61","Fri Nov  3 10:45:04 2017","Forced-choice identification task with a practice and an experimental phase","yes","NAP_GER_AA_4blocks_noglides.osexp","/Users/aviadalbert/Documents/Academisch/UoC/Dissertation/Experiment/OpenSesame/NAP-FC/NAP_GER_AA_4blocks_noglides","yes","no","sans","no","20","no","black","no","Weiter","yes","768","legacy","51","9","0","/Users/aviadalbert/Documents/Academisch/UoC/Dissertation/Experiment/OpenSesame/NAP-FC/NAP_GER_AA_4blocks_noglides/subject-38.csv","xpyriment","Jazzy James","3.1.9","yes","yes","59a800d99ad5a1025d81bb03","59a801616c613b0251691de0","no","no","0","f","f","space","NA","j","f","f","1351","2807","23005","NA","26299","12460","1351","2","legacy","1024","1","44100","-16","experiment","vlal","2","0","0","1","1","Englisch, Spanisch, Schwedisch, (Dutch)","38","Niederdeutsch","even","2341840","2318308","NA","NA","2344648","2341837","NA","1351069","2341371","1351069","1351069","2243191","2269494","2496524","2495020","2497877","2285708","2282245","2318308","NA","2073688","2234535","2316650","2282021","2341840","2282249","NA","2496524","2496524","2424633","2424629","2495016","NAP perception","43","59720","52","yes","1024"
"83.0188679245","yes","83.0188679245","1141.79245283","1141.79245283","white","no","xpyriment","Ich habe die obigen Informationen gelesen und verstanden.","legacy","legacy","0","uniform","1","0","0","undefined","undefined","1","f","2","1","NA","0","1","0","0","0","0","0","0","0","0","62","62","62","0","0","0","NA","0","0","2","0","0","0","2","62","62","62","62","62","Fri Nov  3 10:45:04 2017","Forced-choice identification task with a practice and an experimental phase","yes","NAP_GER_AA_4blocks_noglides.osexp","/Users/aviadalbert/Documents/Academisch/UoC/Dissertation/Experiment/OpenSesame/NAP-FC/NAP_GER_AA_4blocks_noglides","yes","no","sans","no","20","no","black","no","Weiter","yes","768","legacy","52","9","0","/Users/aviadalbert/Documents/Academisch/UoC/Dissertation/Experiment/OpenSesame/NAP-FC/NAP_GER_AA_4blocks_noglides/subject-38.csv","xpyriment","Jazzy James","3.1.9","yes","yes","59a800d99ad5a1025d81bb03","59a801616c613b0251691de0","no","no","0","f","f","space","NA","j","f","f","795","2807","23005","NA","26299","12460","795","2","legacy","1024","1","44100","-16","experiment","ʃmal","2","0","0","1","1","Englisch, Spanisch, Schwedisch, (Dutch)","38","Niederdeutsch","even","2341840","2318308","NA","NA","2344648","2341837","NA","1351069","2341371","1351069","1351069","2243191","2269494","2499647","2498143","2500444","2285708","2282245","2318308","NA","2073688","2234535","2316650","2282021","2341840","2282249","NA","2499646","2499646","2424633","2424629","2498139","NAP perception","44","60515","53","yes","1024"
"83.3333333333","yes","83.3333333333","1133.48148148","1133.48148148","white","no","xpyriment","Ich habe die obigen Informationen gelesen und verstanden.","legacy","legacy","0","uniform","1","0","0","undefined","undefined","1","j","2","1","NA","0","1","0","0","0","0","0","0","0","0","63","63","63","0","0","0","NA","0","0","2","0","0","0","2","63","63","63","63","63","Fri Nov  3 10:45:04 2017","Forced-choice identification task with a practice and an experimental phase","yes","NAP_GER_AA_4blocks_noglides.osexp","/Users/aviadalbert/Documents/Academisch/UoC/Dissertation/Experiment/OpenSesame/NAP-FC/NAP_GER_AA_4blocks_noglides","yes","no","sans","no","20","no","black","no","Weiter","yes","768","legacy","53","9","0","/Users/aviadalbert/Documents/Academisch/UoC/Dissertation/Experiment/OpenSesame/NAP-FC/NAP_GER_AA_4blocks_noglides/subject-38.csv","xpyriment","Jazzy James","3.1.9","yes","yes","59a800d99ad5a1025d81bb03","59a801616c613b0251691de0","no","no","0","j","f","space","NA","j","f","j","693","2807","23005","NA","26299","12460","693","2","legacy","1024","1","44100","-16","experiment","emsal","2","0","0","1","1","Englisch, Spanisch, Schwedisch, (Dutch)","38","Niederdeutsch","even","2341840","2318308","NA","NA","2344648","2341837","NA","1351069","2341371","1351069","1351069","2243191","2269494","2502215","2500711","2502910","2285708","2282245","2318308","NA","2073688","2234535","2316650","2282021","2341840","2282249","NA","2502214","2502215","2424633","2424629","2500708","NAP perception","45","61208","54","yes","1024"
