"acc","accept_status","accuracy","average_response_time","avg_rt","background","bidi","canvas_backend","checkbox_status","clock_backend","color_backend","compensation","coordinates","correct","correct_block_activation","correct_block_exit","correct_instructions_1","correct_instructions_2","correct_keyboard_response","correct_response","count_block_activation","count_block_exit","count_block_info_QA","count_cont_e_block_message","count_e_block_loop","count_e_block_sequence","count_end_of_experiment","count_experiment","count_experimental_loop","count_form_consent","count_info_forms","count_instructions_1","count_instructions_2","count_keyboard_response","count_listen_message","count_logger","count_p_block_loop","count_p_block_sequence","count_p_feedback","count_pause_feedback","count_personal_details_form_1","count_personal_details_form_2","count_post_loop_blank","count_practice_loop","count_pre_e_block_message","count_pre_p_block_message","count_reset_feedback","count_stimulus_image","count_stimulus_sound","count_timeout_message","count_timeout_sound","count_trial_sequence","datetime","description","disable_garbage_collection","experiment_file","experiment_path","expyriment_opengl","font_bold","font_family","font_italic","font_size","font_underline","foreground","form_clicks","form_response","fullscreen","height","keyboard_backend","live_row","live_row_p_block_loop","live_row_practice_loop","logfile","mouse_backend","opensesame_codename","opensesame_version","osf_always_upload_data","osf_always_upload_experiment","osf_datanode_id","osf_id","practice","pygame_doublebuf","repeat_cycle","response","response_block_activation","response_block_exit","response_block_info_QA","response_instructions_1","response_instructions_2","response_keyboard_response","response_time","response_time_block_activation","response_time_block_exit","response_time_block_info_QA","response_time_instructions_1","response_time_instructions_2","response_time_keyboard_response","round_decimals","sampler_backend","sound_buf_size","sound_channels","sound_freq","sound_sample_size","start","stimulus","subject_age","subject_education","subject_gender","subject_german_native","subject_handedness","subject_language_other","subject_nr","subject_other_native_lang","subject_parity","time_block_activation","time_block_exit","time_block_info_QA","time_cont_e_block_message","time_e_block_loop","time_e_block_sequence","time_end_of_experiment","time_experiment","time_experimental_loop","time_form_consent","time_info_forms","time_instructions_1","time_instructions_2","time_keyboard_response","time_listen_message","time_logger","time_p_block_loop","time_p_block_sequence","time_p_feedback","time_pause_feedback","time_personal_details_form_1","time_personal_details_form_2","time_post_loop_blank","time_practice_loop","time_pre_e_block_message","time_pre_p_block_message","time_reset_feedback","time_stimulus_image","time_stimulus_sound","time_timeout_message","time_timeout_sound","time_trial_sequence","title","total_correct","total_response_time","total_responses","uniform_coordinates","width"
"100","yes","100","1943","1943","white","no","xpyriment","Ich habe die obigen Informationen gelesen und verstanden.","legacy","legacy","0","uniform","1","0","NA","undefined","undefined","1","f","0","0","NA","NA","NA","NA","NA","0","0","0","0","0","0","0","0","0","0","0","NA","NA","0","0","0","0","NA","0","0","0","0","0","0","0","Fri Oct 27 09:51:57 2017","Forced-choice identification task with a practice and an experimental phase","yes","NAP_GER_AA_4blocks_noglides.osexp","/Users/aviadalbert/Documents/Academisch/UoC/Dissertation/Experiment/OpenSesame/NAP-FC/NAP_GER_AA_4blocks_noglides","yes","no","sans","no","20","no","black","no","Weiter","yes","768","legacy","0","0","0","/Users/aviadalbert/Documents/Academisch/UoC/Dissertation/Experiment/OpenSesame/NAP-FC/NAP_GER_AA_4blocks_noglides/subject-28.csv","xpyriment","Jazzy James","3.1.9","yes","yes","59a800d99ad5a1025d81bb03","59a801616c613b0251691de0","yes","no","0","f","f","NA","NA","space","space","f","1943","2757","NA","NA","43046","7838","1943","2","legacy","1024","1","44100","-16","experiment","flal","2","0","1","0","1","eng spanish arabic","28","","even","321802","NA","NA","NA","NA","NA","NA","1796","NA","1797","1796","270631","313681","326285","324778","328229","324561","321798","NA","NA","199631","251750","NA","321584","NA","321802","NA","326285","326285","NA","NA","324774","NAP perception","1","1943","1","yes","1024"
"100","yes","100","1380","1380","white","no","xpyriment","Ich habe die obigen Informationen gelesen und verstanden.","legacy","legacy","0","uniform","1","0","NA","undefined","undefined","1","j","0","0","NA","NA","NA","NA","NA","0","0","0","0","0","0","1","1","1","0","0","NA","NA","0","0","0","0","NA","0","0","1","1","1","1","1","Fri Oct 27 09:51:57 2017","Forced-choice identification task with a practice and an experimental phase","yes","NAP_GER_AA_4blocks_noglides.osexp","/Users/aviadalbert/Documents/Academisch/UoC/Dissertation/Experiment/OpenSesame/NAP-FC/NAP_GER_AA_4blocks_noglides","yes","no","sans","no","20","no","black","no","Weiter","yes","768","legacy","1","1","0","/Users/aviadalbert/Documents/Academisch/UoC/Dissertation/Experiment/OpenSesame/NAP-FC/NAP_GER_AA_4blocks_noglides/subject-28.csv","xpyriment","Jazzy James","3.1.9","yes","yes","59a800d99ad5a1025d81bb03","59a801616c613b0251691de0","yes","no","0","j","f","NA","NA","space","space","j","817","2757","NA","NA","43046","7838","817","2","legacy","1024","1","44100","-16","experiment","lepal","2","0","1","0","1","eng spanish arabic","28","","even","321802","NA","NA","NA","NA","NA","NA","1796","NA","1797","1796","270631","313681","330012","328509","330830","324561","321798","NA","NA","199631","251750","NA","321584","NA","321802","NA","330012","330012","NA","NA","328505","NAP perception","2","2760","2","yes","1024"
"100","yes","100","1191","1191","white","no","xpyriment","Ich habe die obigen Informationen gelesen und verstanden.","legacy","legacy","0","uniform","1","0","NA","undefined","undefined","1","j","0","0","NA","NA","NA","NA","NA","0","0","0","0","0","0","2","2","2","0","0","NA","NA","0","0","0","0","NA","0","0","2","2","2","2","2","Fri Oct 27 09:51:57 2017","Forced-choice identification task with a practice and an experimental phase","yes","NAP_GER_AA_4blocks_noglides.osexp","/Users/aviadalbert/Documents/Academisch/UoC/Dissertation/Experiment/OpenSesame/NAP-FC/NAP_GER_AA_4blocks_noglides","yes","no","sans","no","20","no","black","no","Weiter","yes","768","legacy","2","2","0","/Users/aviadalbert/Documents/Academisch/UoC/Dissertation/Experiment/OpenSesame/NAP-FC/NAP_GER_AA_4blocks_noglides/subject-28.csv","xpyriment","Jazzy James","3.1.9","yes","yes","59a800d99ad5a1025d81bb03","59a801616c613b0251691de0","yes","no","0","j","f","NA","NA","space","space","j","813","2757","NA","NA","43046","7838","813","2","legacy","1024","1","44100","-16","experiment","emtal","2","0","1","0","1","eng spanish arabic","28","","even","321802","NA","NA","NA","NA","NA","NA","1796","NA","1797","1796","270631","313681","332614","331110","333428","324561","321798","NA","NA","199631","251750","NA","321584","NA","321802","NA","332614","332614","NA","NA","331106","NAP perception","3","3573","3","yes","1024"
"100","yes","100","1108.25","1108.25","white","no","xpyriment","Ich habe die obigen Informationen gelesen und verstanden.","legacy","legacy","0","uniform","1","0","NA","undefined","undefined","1","f","0","0","NA","NA","NA","NA","NA","0","0","0","0","0","0","3","3","3","0","0","NA","NA","0","0","0","0","NA","0","0","3","3","3","3","3","Fri Oct 27 09:51:57 2017","Forced-choice identification task with a practice and an experimental phase","yes","NAP_GER_AA_4blocks_noglides.osexp","/Users/aviadalbert/Documents/Academisch/UoC/Dissertation/Experiment/OpenSesame/NAP-FC/NAP_GER_AA_4blocks_noglides","yes","no","sans","no","20","no","black","no","Weiter","yes","768","legacy","3","3","0","/Users/aviadalbert/Documents/Academisch/UoC/Dissertation/Experiment/OpenSesame/NAP-FC/NAP_GER_AA_4blocks_noglides/subject-28.csv","xpyriment","Jazzy James","3.1.9","yes","yes","59a800d99ad5a1025d81bb03","59a801616c613b0251691de0","yes","no","0","f","f","NA","NA","space","space","f","860","2757","NA","NA","43046","7838","860","2","legacy","1024","1","44100","-16","experiment","ʃpal","2","0","1","0","1","eng spanish arabic","28","","even","321802","NA","NA","NA","NA","NA","NA","1796","NA","1797","1796","270631","313681","335220","333713","336081","324561","321798","NA","NA","199631","251750","NA","321584","NA","321802","NA","335220","335220","NA","NA","333710","NAP perception","4","4433","4","yes","1024"
"100","yes","100","1064","1064","white","no","xpyriment","Ich habe die obigen Informationen gelesen und verstanden.","legacy","legacy","0","uniform","1","0","NA","undefined","undefined","1","j","0","0","NA","NA","NA","NA","NA","0","0","0","0","0","0","4","4","4","0","0","NA","NA","0","0","0","0","NA","0","0","4","4","4","4","4","Fri Oct 27 09:51:57 2017","Forced-choice identification task with a practice and an experimental phase","yes","NAP_GER_AA_4blocks_noglides.osexp","/Users/aviadalbert/Documents/Academisch/UoC/Dissertation/Experiment/OpenSesame/NAP-FC/NAP_GER_AA_4blocks_noglides","yes","no","sans","no","20","no","black","no","Weiter","yes","768","legacy","4","4","0","/Users/aviadalbert/Documents/Academisch/UoC/Dissertation/Experiment/OpenSesame/NAP-FC/NAP_GER_AA_4blocks_noglides/subject-28.csv","xpyriment","Jazzy James","3.1.9","yes","yes","59a800d99ad5a1025d81bb03","59a801616c613b0251691de0","yes","no","0","j","f","NA","NA","space","space","j","887","2757","NA","NA","43046","7838","887","2","legacy","1024","1","44100","-16","experiment","nefal","2","0","1","0","1","eng spanish arabic","28","","even","321802","NA","NA","NA","NA","NA","NA","1796","NA","1797","1796","270631","313681","337873","336368","338761","324561","321798","NA","NA","199631","251750","NA","321584","NA","321802","NA","337873","337873","NA","NA","336364","NAP perception","5","5320","5","yes","1024"
"100","yes","100","1073.5","1073.5","white","no","xpyriment","Ich habe die obigen Informationen gelesen und verstanden.","legacy","legacy","0","uniform","1","0","NA","undefined","undefined","1","f","0","0","NA","NA","NA","NA","NA","0","0","0","0","0","0","5","5","5","0","0","NA","NA","0","0","0","0","NA","0","0","5","5","5","5","5","Fri Oct 27 09:51:57 2017","Forced-choice identification task with a practice and an experimental phase","yes","NAP_GER_AA_4blocks_noglides.osexp","/Users/aviadalbert/Documents/Academisch/UoC/Dissertation/Experiment/OpenSesame/NAP-FC/NAP_GER_AA_4blocks_noglides","yes","no","sans","no","20","no","black","no","Weiter","yes","768","legacy","5","5","0","/Users/aviadalbert/Documents/Academisch/UoC/Dissertation/Experiment/OpenSesame/NAP-FC/NAP_GER_AA_4blocks_noglides/subject-28.csv","xpyriment","Jazzy James","3.1.9","yes","yes","59a800d99ad5a1025d81bb03","59a801616c613b0251691de0","yes","no","0","f","f","NA","NA","space","space","f","1121","2757","NA","NA","43046","7838","1121","2","legacy","1024","1","44100","-16","experiment","sfal","2","0","1","0","1","eng spanish arabic","28","","even","321802","NA","NA","NA","NA","NA","NA","1796","NA","1797","1796","270631","313681","340539","339033","341661","324561","321798","NA","NA","199631","251750","NA","321584","NA","321802","NA","340539","340539","NA","NA","339029","NAP perception","6","6441","6","yes","1024"
"85.7142857143","yes","85.7142857143","1202","1202","white","no","xpyriment","Ich habe die obigen Informationen gelesen und verstanden.","legacy","legacy","0","uniform","0","0","NA","undefined","undefined","0","f","0","0","NA","NA","NA","NA","NA","0","0","0","0","0","0","6","6","6","0","0","NA","NA","0","0","0","0","NA","0","0","6","6","6","6","6","Fri Oct 27 09:51:57 2017","Forced-choice identification task with a practice and an experimental phase","yes","NAP_GER_AA_4blocks_noglides.osexp","/Users/aviadalbert/Documents/Academisch/UoC/Dissertation/Experiment/OpenSesame/NAP-FC/NAP_GER_AA_4blocks_noglides","yes","no","sans","no","20","no","black","no","Weiter","yes","768","legacy","6","6","0","/Users/aviadalbert/Documents/Academisch/UoC/Dissertation/Experiment/OpenSesame/NAP-FC/NAP_GER_AA_4blocks_noglides/subject-28.csv","xpyriment","Jazzy James","3.1.9","yes","yes","59a800d99ad5a1025d81bb03","59a801616c613b0251691de0","yes","no","0","j","f","NA","NA","space","space","j","1973","2757","NA","NA","43046","7838","1973","2","legacy","1024","1","44100","-16","experiment","zmal","2","0","1","0","1","eng spanish arabic","28","","even","321802","NA","NA","NA","NA","NA","NA","1796","NA","1797","1796","270631","313681","343433","341927","345407","324561","321798","NA","NA","199631","251750","NA","321584","NA","321802","NA","343433","343433","NA","NA","341923","NAP perception","6","8414","7","yes","1024"
"87.5","yes","87.5","1163.5","1163.5","white","no","xpyriment","Ich habe die obigen Informationen gelesen und verstanden.","legacy","legacy","0","uniform","1","0","NA","undefined","undefined","1","j","0","0","NA","NA","NA","NA","NA","0","0","0","0","0","0","7","7","7","0","0","NA","NA","0","0","0","0","NA","0","0","7","7","7","7","7","Fri Oct 27 09:51:57 2017","Forced-choice identification task with a practice and an experimental phase","yes","NAP_GER_AA_4blocks_noglides.osexp","/Users/aviadalbert/Documents/Academisch/UoC/Dissertation/Experiment/OpenSesame/NAP-FC/NAP_GER_AA_4blocks_noglides","yes","no","sans","no","20","no","black","no","Weiter","yes","768","legacy","7","7","0","/Users/aviadalbert/Documents/Academisch/UoC/Dissertation/Experiment/OpenSesame/NAP-FC/NAP_GER_AA_4blocks_noglides/subject-28.csv","xpyriment","Jazzy James","3.1.9","yes","yes","59a800d99ad5a1025d81bb03","59a801616c613b0251691de0","yes","no","0","j","f","NA","NA","space","space","j","894","2757","NA","NA","43046","7838","894","2","legacy","1024","1","44100","-16","experiment","mesal","2","0","1","0","1","eng spanish arabic","28","","even","321802","NA","NA","NA","NA","NA","NA","1796","NA","1797","1796","270631","313681","347198","345691","348094","324561","321798","NA","NA","199631","251750","NA","321584","NA","321802","NA","347197","347198","NA","NA","345688","NAP perception","7","9308","8","yes","1024"
"88.8888888889","yes","88.8888888889","1135.44444444","1135.44444444","white","no","xpyriment","Ich habe die obigen Informationen gelesen und verstanden.","legacy","legacy","0","uniform","1","0","NA","undefined","undefined","1","j","0","0","NA","NA","NA","NA","NA","0","0","0","0","0","0","8","8","8","0","0","NA","NA","0","0","0","0","NA","0","0","8","8","8","8","8","Fri Oct 27 09:51:57 2017","Forced-choice identification task with a practice and an experimental phase","yes","NAP_GER_AA_4blocks_noglides.osexp","/Users/aviadalbert/Documents/Academisch/UoC/Dissertation/Experiment/OpenSesame/NAP-FC/NAP_GER_AA_4blocks_noglides","yes","no","sans","no","20","no","black","no","Weiter","yes","768","legacy","8","8","0","/Users/aviadalbert/Documents/Academisch/UoC/Dissertation/Experiment/OpenSesame/NAP-FC/NAP_GER_AA_4blocks_noglides/subject-28.csv","xpyriment","Jazzy James","3.1.9","yes","yes","59a800d99ad5a1025d81bb03","59a801616c613b0251691de0","yes","no","0","j","f","NA","NA","space","space","j","911","2757","NA","NA","43046","7838","911","2","legacy","1024","1","44100","-16","experiment","enval","2","0","1","0","1","eng spanish arabic","28","","even","321802","NA","NA","NA","NA","NA","NA","1796","NA","1797","1796","270631","313681","349867","348363","350780","324561","321798","NA","NA","199631","251750","NA","321584","NA","321802","NA","349867","349867","NA","NA","348359","NAP perception","8","10219","9","yes","1024"
"90","yes","90","1106.8","1106.8","white","no","xpyriment","Ich habe die obigen Informationen gelesen und verstanden.","legacy","legacy","0","uniform","1","0","NA","undefined","undefined","1","f","0","0","NA","NA","NA","NA","NA","0","0","0","0","0","0","9","9","9","0","0","NA","NA","0","0","0","0","NA","0","0","9","9","9","9","9","Fri Oct 27 09:51:57 2017","Forced-choice identification task with a practice and an experimental phase","yes","NAP_GER_AA_4blocks_noglides.osexp","/Users/aviadalbert/Documents/Academisch/UoC/Dissertation/Experiment/OpenSesame/NAP-FC/NAP_GER_AA_4blocks_noglides","yes","no","sans","no","20","no","black","no","Weiter","yes","768","legacy","9","9","0","/Users/aviadalbert/Documents/Academisch/UoC/Dissertation/Experiment/OpenSesame/NAP-FC/NAP_GER_AA_4blocks_noglides/subject-28.csv","xpyriment","Jazzy James","3.1.9","yes","yes","59a800d99ad5a1025d81bb03","59a801616c613b0251691de0","yes","no","0","f","f","NA","NA","space","space","f","849","2757","NA","NA","43046","7838","849","2","legacy","1024","1","44100","-16","experiment","vlal","2","0","1","0","1","eng spanish arabic","28","","even","321802","NA","NA","NA","NA","NA","NA","1796","NA","1797","1796","270631","313681","352567","351060","353417","324561","321798","NA","NA","199631","251750","NA","321584","NA","321802","NA","352566","352567","NA","NA","351056","NAP perception","9","11068","10","yes","1024"
"100","yes","100","688","688","white","no","xpyriment","Ich habe die obigen Informationen gelesen und verstanden.","legacy","legacy","0","uniform","1","0","0","undefined","undefined","1","j","2","1","NA","0","1","0","0","0","0","0","0","0","0","10","10","10","0","0","0","NA","0","0","2","0","0","0","2","10","10","10","10","10","Fri Oct 27 09:51:57 2017","Forced-choice identification task with a practice and an experimental phase","yes","NAP_GER_AA_4blocks_noglides.osexp","/Users/aviadalbert/Documents/Academisch/UoC/Dissertation/Experiment/OpenSesame/NAP-FC/NAP_GER_AA_4blocks_noglides","yes","no","sans","no","20","no","black","no","Weiter","yes","768","legacy","0","9","0","/Users/aviadalbert/Documents/Academisch/UoC/Dissertation/Experiment/OpenSesame/NAP-FC/NAP_GER_AA_4blocks_noglides/subject-28.csv","xpyriment","Jazzy James","3.1.9","yes","yes","59a800d99ad5a1025d81bb03","59a801616c613b0251691de0","no","no","0","j","f","space","NA","space","space","j","688","4821","22663","NA","43046","7838","688","2","legacy","1024","1","44100","-16","experiment","emtal","2","0","1","0","1","eng spanish arabic","28","","even","378321","355139","NA","NA","383143","378318","NA","1796","377856","1797","1796","270631","313681","384854","383349","385543","324561","321798","355139","NA","199631","251750","353481","321584","378321","321802","NA","384854","384854","NA","NA","383345","NAP perception","1","688","1","yes","1024"
"50","yes","50","786","786","white","no","xpyriment","Ich habe die obigen Informationen gelesen und verstanden.","legacy","legacy","0","uniform","0","0","0","undefined","undefined","0","f","2","1","NA","0","1","0","0","0","0","0","0","0","0","11","11","11","0","0","0","NA","0","0","2","0","0","0","2","11","11","11","11","11","Fri Oct 27 09:51:57 2017","Forced-choice identification task with a practice and an experimental phase","yes","NAP_GER_AA_4blocks_noglides.osexp","/Users/aviadalbert/Documents/Academisch/UoC/Dissertation/Experiment/OpenSesame/NAP-FC/NAP_GER_AA_4blocks_noglides","yes","no","sans","no","20","no","black","no","Weiter","yes","768","legacy","1","9","0","/Users/aviadalbert/Documents/Academisch/UoC/Dissertation/Experiment/OpenSesame/NAP-FC/NAP_GER_AA_4blocks_noglides/subject-28.csv","xpyriment","Jazzy James","3.1.9","yes","yes","59a800d99ad5a1025d81bb03","59a801616c613b0251691de0","no","no","0","j","f","space","NA","space","space","j","884","4821","22663","NA","43046","7838","884","2","legacy","1024","1","44100","-16","experiment","ftal","2","0","1","0","1","eng spanish arabic","28","","even","378321","355139","NA","NA","383143","378318","NA","1796","377856","1797","1796","270631","313681","387333","385829","388219","324561","321798","355139","NA","199631","251750","353481","321584","378321","321802","NA","387333","387333","NA","NA","385825","NAP perception","1","1572","2","yes","1024"
"66.6666666667","yes","66.6666666667","758.333333333","758.333333333","white","no","xpyriment","Ich habe die obigen Informationen gelesen und verstanden.","legacy","legacy","0","uniform","1","0","0","undefined","undefined","1","j","2","1","NA","0","1","0","0","0","0","0","0","0","0","12","12","12","0","0","0","NA","0","0","2","0","0","0","2","12","12","12","12","12","Fri Oct 27 09:51:57 2017","Forced-choice identification task with a practice and an experimental phase","yes","NAP_GER_AA_4blocks_noglides.osexp","/Users/aviadalbert/Documents/Academisch/UoC/Dissertation/Experiment/OpenSesame/NAP-FC/NAP_GER_AA_4blocks_noglides","yes","no","sans","no","20","no","black","no","Weiter","yes","768","legacy","2","9","0","/Users/aviadalbert/Documents/Academisch/UoC/Dissertation/Experiment/OpenSesame/NAP-FC/NAP_GER_AA_4blocks_noglides/subject-28.csv","xpyriment","Jazzy James","3.1.9","yes","yes","59a800d99ad5a1025d81bb03","59a801616c613b0251691de0","no","no","0","j","f","space","NA","space","space","j","703","4821","22663","NA","43046","7838","703","2","legacy","1024","1","44100","-16","experiment","nepal","2","0","1","0","1","eng spanish arabic","28","","even","378321","355139","NA","NA","383143","378318","NA","1796","377856","1797","1796","270631","313681","389999","388494","390703","324561","321798","355139","NA","199631","251750","353481","321584","378321","321802","NA","389999","389999","NA","NA","388490","NAP perception","2","2275","3","yes","1024"
"50","yes","50","854","854","white","no","xpyriment","Ich habe die obigen Informationen gelesen und verstanden.","legacy","legacy","0","uniform","0","0","0","undefined","undefined","0","f","2","1","NA","0","1","0","0","0","0","0","0","0","0","13","13","13","0","0","0","NA","0","0","2","0","0","0","2","13","13","13","13","13","Fri Oct 27 09:51:57 2017","Forced-choice identification task with a practice and an experimental phase","yes","NAP_GER_AA_4blocks_noglides.osexp","/Users/aviadalbert/Documents/Academisch/UoC/Dissertation/Experiment/OpenSesame/NAP-FC/NAP_GER_AA_4blocks_noglides","yes","no","sans","no","20","no","black","no","Weiter","yes","768","legacy","3","9","0","/Users/aviadalbert/Documents/Academisch/UoC/Dissertation/Experiment/OpenSesame/NAP-FC/NAP_GER_AA_4blocks_noglides/subject-28.csv","xpyriment","Jazzy James","3.1.9","yes","yes","59a800d99ad5a1025d81bb03","59a801616c613b0251691de0","no","no","0","j","f","space","NA","space","space","j","1141","4821","22663","NA","43046","7838","1141","2","legacy","1024","1","44100","-16","experiment","lval","2","0","1","0","1","eng spanish arabic","28","","even","378321","355139","NA","NA","383143","378318","NA","1796","377856","1797","1796","270631","313681","392478","390972","393620","324561","321798","355139","NA","199631","251750","353481","321584","378321","321802","NA","392478","392478","NA","NA","390968","NAP perception","2","3416","4","yes","1024"
"40","yes","40","848.8","848.8","white","no","xpyriment","Ich habe die obigen Informationen gelesen und verstanden.","legacy","legacy","0","uniform","0","0","0","undefined","undefined","0","f","2","1","NA","0","1","0","0","0","0","0","0","0","0","14","14","14","0","0","0","NA","0","0","2","0","0","0","2","14","14","14","14","14","Fri Oct 27 09:51:57 2017","Forced-choice identification task with a practice and an experimental phase","yes","NAP_GER_AA_4blocks_noglides.osexp","/Users/aviadalbert/Documents/Academisch/UoC/Dissertation/Experiment/OpenSesame/NAP-FC/NAP_GER_AA_4blocks_noglides","yes","no","sans","no","20","no","black","no","Weiter","yes","768","legacy","4","9","0","/Users/aviadalbert/Documents/Academisch/UoC/Dissertation/Experiment/OpenSesame/NAP-FC/NAP_GER_AA_4blocks_noglides/subject-28.csv","xpyriment","Jazzy James","3.1.9","yes","yes","59a800d99ad5a1025d81bb03","59a801616c613b0251691de0","no","no","0","j","f","space","NA","space","space","j","828","4821","22663","NA","43046","7838","828","2","legacy","1024","1","44100","-16","experiment","lpal","2","0","1","0","1","eng spanish arabic","28","","even","378321","355139","NA","NA","383143","378318","NA","1796","377856","1797","1796","270631","313681","395421","393916","396250","324561","321798","355139","NA","199631","251750","353481","321584","378321","321802","NA","395420","395420","NA","NA","393912","NAP perception","2","4244","5","yes","1024"
"50","yes","50","833.666666667","833.666666667","white","no","xpyriment","Ich habe die obigen Informationen gelesen und verstanden.","legacy","legacy","0","uniform","1","0","0","undefined","undefined","1","j","2","1","NA","0","1","0","0","0","0","0","0","0","0","15","15","15","0","0","0","NA","0","0","2","0","0","0","2","15","15","15","15","15","Fri Oct 27 09:51:57 2017","Forced-choice identification task with a practice and an experimental phase","yes","NAP_GER_AA_4blocks_noglides.osexp","/Users/aviadalbert/Documents/Academisch/UoC/Dissertation/Experiment/OpenSesame/NAP-FC/NAP_GER_AA_4blocks_noglides","yes","no","sans","no","20","no","black","no","Weiter","yes","768","legacy","5","9","0","/Users/aviadalbert/Documents/Academisch/UoC/Dissertation/Experiment/OpenSesame/NAP-FC/NAP_GER_AA_4blocks_noglides/subject-28.csv","xpyriment","Jazzy James","3.1.9","yes","yes","59a800d99ad5a1025d81bb03","59a801616c613b0251691de0","no","no","0","j","f","space","NA","space","space","j","758","4821","22663","NA","43046","7838","758","2","legacy","1024","1","44100","-16","experiment","lemal","2","0","1","0","1","eng spanish arabic","28","","even","378321","355139","NA","NA","383143","378318","NA","1796","377856","1797","1796","270631","313681","398033","396530","398792","324561","321798","355139","NA","199631","251750","353481","321584","378321","321802","NA","398033","398033","NA","NA","396526","NAP perception","3","5002","6","yes","1024"
"57.1428571429","yes","57.1428571429","856.285714286","856.285714286","white","no","xpyriment","Ich habe die obigen Informationen gelesen und verstanden.","legacy","legacy","0","uniform","1","0","0","undefined","undefined","1","f","2","1","NA","0","1","0","0","0","0","0","0","0","0","16","16","16","0","0","0","NA","0","0","2","0","0","0","2","16","16","16","16","16","Fri Oct 27 09:51:57 2017","Forced-choice identification task with a practice and an experimental phase","yes","NAP_GER_AA_4blocks_noglides.osexp","/Users/aviadalbert/Documents/Academisch/UoC/Dissertation/Experiment/OpenSesame/NAP-FC/NAP_GER_AA_4blocks_noglides","yes","no","sans","no","20","no","black","no","Weiter","yes","768","legacy","6","9","0","/Users/aviadalbert/Documents/Academisch/UoC/Dissertation/Experiment/OpenSesame/NAP-FC/NAP_GER_AA_4blocks_noglides/subject-28.csv","xpyriment","Jazzy James","3.1.9","yes","yes","59a800d99ad5a1025d81bb03","59a801616c613b0251691de0","no","no","0","f","f","space","NA","space","space","f","992","4821","22663","NA","43046","7838","992","2","legacy","1024","1","44100","-16","experiment","vzal","2","0","1","0","1","eng spanish arabic","28","","even","378321","355139","NA","NA","383143","378318","NA","1796","377856","1797","1796","270631","313681","400576","399070","401570","324561","321798","355139","NA","199631","251750","353481","321584","378321","321802","NA","400576","400576","NA","NA","399066","NAP perception","4","5994","7","yes","1024"
"62.5","yes","62.5","895.75","895.75","white","no","xpyriment","Ich habe die obigen Informationen gelesen und verstanden.","legacy","legacy","0","uniform","1","0","0","undefined","undefined","1","j","2","1","NA","0","1","0","0","0","0","0","0","0","0","17","17","17","0","0","0","NA","0","0","2","0","0","0","2","17","17","17","17","17","Fri Oct 27 09:51:57 2017","Forced-choice identification task with a practice and an experimental phase","yes","NAP_GER_AA_4blocks_noglides.osexp","/Users/aviadalbert/Documents/Academisch/UoC/Dissertation/Experiment/OpenSesame/NAP-FC/NAP_GER_AA_4blocks_noglides","yes","no","sans","no","20","no","black","no","Weiter","yes","768","legacy","7","9","0","/Users/aviadalbert/Documents/Academisch/UoC/Dissertation/Experiment/OpenSesame/NAP-FC/NAP_GER_AA_4blocks_noglides/subject-28.csv","xpyriment","Jazzy James","3.1.9","yes","yes","59a800d99ad5a1025d81bb03","59a801616c613b0251691de0","no","no","0","j","f","space","NA","space","space","j","1172","4821","22663","NA","43046","7838","1172","2","legacy","1024","1","44100","-16","experiment","eʃpal","2","0","1","0","1","eng spanish arabic","28","","even","378321","355139","NA","NA","383143","378318","NA","1796","377856","1797","1796","270631","313681","403350","401847","404524","324561","321798","355139","NA","199631","251750","353481","321584","378321","321802","NA","403350","403350","NA","NA","401843","NAP perception","5","7166","8","yes","1024"
"55.5555555556","yes","55.5555555556","961.777777778","961.777777778","white","no","xpyriment","Ich habe die obigen Informationen gelesen und verstanden.","legacy","legacy","0","uniform","0","0","0","undefined","undefined","0","f","2","1","NA","0","1","0","0","0","0","0","0","0","0","18","18","18","0","0","0","NA","0","0","2","0","0","0","2","18","18","18","18","18","Fri Oct 27 09:51:57 2017","Forced-choice identification task with a practice and an experimental phase","yes","NAP_GER_AA_4blocks_noglides.osexp","/Users/aviadalbert/Documents/Academisch/UoC/Dissertation/Experiment/OpenSesame/NAP-FC/NAP_GER_AA_4blocks_noglides","yes","no","sans","no","20","no","black","no","Weiter","yes","768","legacy","8","9","0","/Users/aviadalbert/Documents/Academisch/UoC/Dissertation/Experiment/OpenSesame/NAP-FC/NAP_GER_AA_4blocks_noglides/subject-28.csv","xpyriment","Jazzy James","3.1.9","yes","yes","59a800d99ad5a1025d81bb03","59a801616c613b0251691de0","no","no","0","j","f","space","NA","space","space","j","1490","4821","22663","NA","43046","7838","1490","2","legacy","1024","1","44100","-16","experiment","lmal","2","0","1","0","1","eng spanish arabic","28","","even","378321","355139","NA","NA","383143","378318","NA","1796","377856","1797","1796","270631","313681","406305","404801","407796","324561","321798","355139","NA","199631","251750","353481","321584","378321","321802","NA","406304","406305","NA","NA","404797","NAP perception","5","8656","9","yes","1024"
"60","yes","60","994.3","994.3","white","no","xpyriment","Ich habe die obigen Informationen gelesen und verstanden.","legacy","legacy","0","uniform","1","0","0","undefined","undefined","1","j","2","1","NA","0","1","0","0","0","0","0","0","0","0","19","19","19","0","0","0","NA","0","0","2","0","0","0","2","19","19","19","19","19","Fri Oct 27 09:51:57 2017","Forced-choice identification task with a practice and an experimental phase","yes","NAP_GER_AA_4blocks_noglides.osexp","/Users/aviadalbert/Documents/Academisch/UoC/Dissertation/Experiment/OpenSesame/NAP-FC/NAP_GER_AA_4blocks_noglides","yes","no","sans","no","20","no","black","no","Weiter","yes","768","legacy","9","9","0","/Users/aviadalbert/Documents/Academisch/UoC/Dissertation/Experiment/OpenSesame/NAP-FC/NAP_GER_AA_4blocks_noglides/subject-28.csv","xpyriment","Jazzy James","3.1.9","yes","yes","59a800d99ad5a1025d81bb03","59a801616c613b0251691de0","no","no","0","j","f","space","NA","space","space","j","1287","4821","22663","NA","43046","7838","1287","2","legacy","1024","1","44100","-16","experiment","elmal","2","0","1","0","1","eng spanish arabic","28","","even","378321","355139","NA","NA","383143","378318","NA","1796","377856","1797","1796","270631","313681","409573","408068","410861","324561","321798","355139","NA","199631","251750","353481","321584","378321","321802","NA","409572","409573","NA","NA","408064","NAP perception","6","9943","10","yes","1024"
"63.6363636364","yes","63.6363636364","976.818181818","976.818181818","white","no","xpyriment","Ich habe die obigen Informationen gelesen und verstanden.","legacy","legacy","0","uniform","1","0","0","undefined","undefined","1","j","2","1","NA","0","1","0","0","0","0","0","0","0","0","20","20","20","0","0","0","NA","0","0","2","0","0","0","2","20","20","20","20","20","Fri Oct 27 09:51:57 2017","Forced-choice identification task with a practice and an experimental phase","yes","NAP_GER_AA_4blocks_noglides.osexp","/Users/aviadalbert/Documents/Academisch/UoC/Dissertation/Experiment/OpenSesame/NAP-FC/NAP_GER_AA_4blocks_noglides","yes","no","sans","no","20","no","black","no","Weiter","yes","768","legacy","10","9","0","/Users/aviadalbert/Documents/Academisch/UoC/Dissertation/Experiment/OpenSesame/NAP-FC/NAP_GER_AA_4blocks_noglides/subject-28.csv","xpyriment","Jazzy James","3.1.9","yes","yes","59a800d99ad5a1025d81bb03","59a801616c613b0251691de0","no","no","0","j","f","space","NA","space","space","j","802","4821","22663","NA","43046","7838","802","2","legacy","1024","1","44100","-16","experiment","emzal","2","0","1","0","1","eng spanish arabic","28","","even","378321","355139","NA","NA","383143","378318","NA","1796","377856","1797","1796","270631","313681","412629","411125","413432","324561","321798","355139","NA","199631","251750","353481","321584","378321","321802","NA","412629","412629","NA","NA","411121","NAP perception","7","10745","11","yes","1024"
"66.6666666667","yes","66.6666666667","974.25","974.25","white","no","xpyriment","Ich habe die obigen Informationen gelesen und verstanden.","legacy","legacy","0","uniform","1","0","0","undefined","undefined","1","j","2","1","NA","0","1","0","0","0","0","0","0","0","0","21","21","21","0","0","0","NA","0","0","2","0","0","0","2","21","21","21","21","21","Fri Oct 27 09:51:57 2017","Forced-choice identification task with a practice and an experimental phase","yes","NAP_GER_AA_4blocks_noglides.osexp","/Users/aviadalbert/Documents/Academisch/UoC/Dissertation/Experiment/OpenSesame/NAP-FC/NAP_GER_AA_4blocks_noglides","yes","no","sans","no","20","no","black","no","Weiter","yes","768","legacy","11","9","0","/Users/aviadalbert/Documents/Academisch/UoC/Dissertation/Experiment/OpenSesame/NAP-FC/NAP_GER_AA_4blocks_noglides/subject-28.csv","xpyriment","Jazzy James","3.1.9","yes","yes","59a800d99ad5a1025d81bb03","59a801616c613b0251691de0","no","no","0","j","f","space","NA","space","space","j","946","4821","22663","NA","43046","7838","946","2","legacy","1024","1","44100","-16","experiment","elfal","2","0","1","0","1","eng spanish arabic","28","","even","378321","355139","NA","NA","383143","378318","NA","1796","377856","1797","1796","270631","313681","415210","413707","416157","324561","321798","355139","NA","199631","251750","353481","321584","378321","321802","NA","415210","415210","NA","NA","413703","NAP perception","8","11691","12","yes","1024"
"61.5384615385","yes","61.5384615385","971.923076923","971.923076923","white","no","xpyriment","Ich habe die obigen Informationen gelesen und verstanden.","legacy","legacy","0","uniform","0","0","0","undefined","undefined","0","f","2","1","NA","0","1","0","0","0","0","0","0","0","0","22","22","22","0","0","0","NA","0","0","2","0","0","0","2","22","22","22","22","22","Fri Oct 27 09:51:57 2017","Forced-choice identification task with a practice and an experimental phase","yes","NAP_GER_AA_4blocks_noglides.osexp","/Users/aviadalbert/Documents/Academisch/UoC/Dissertation/Experiment/OpenSesame/NAP-FC/NAP_GER_AA_4blocks_noglides","yes","no","sans","no","20","no","black","no","Weiter","yes","768","legacy","12","9","0","/Users/aviadalbert/Documents/Academisch/UoC/Dissertation/Experiment/OpenSesame/NAP-FC/NAP_GER_AA_4blocks_noglides/subject-28.csv","xpyriment","Jazzy James","3.1.9","yes","yes","59a800d99ad5a1025d81bb03","59a801616c613b0251691de0","no","no","0","j","f","space","NA","space","space","j","944","4821","22663","NA","43046","7838","944","2","legacy","1024","1","44100","-16","experiment","mzal","2","0","1","0","1","eng spanish arabic","28","","even","378321","355139","NA","NA","383143","378318","NA","1796","377856","1797","1796","270631","313681","417939","416433","418884","324561","321798","355139","NA","199631","251750","353481","321584","378321","321802","NA","417939","417939","NA","NA","416429","NAP perception","8","12635","13","yes","1024"
"57.1428571429","yes","57.1428571429","986.5","986.5","white","no","xpyriment","Ich habe die obigen Informationen gelesen und verstanden.","legacy","legacy","0","uniform","0","0","0","undefined","undefined","0","f","2","1","NA","0","1","0","0","0","0","0","0","0","0","23","23","23","0","0","0","NA","0","0","2","0","0","0","2","23","23","23","23","23","Fri Oct 27 09:51:57 2017","Forced-choice identification task with a practice and an experimental phase","yes","NAP_GER_AA_4blocks_noglides.osexp","/Users/aviadalbert/Documents/Academisch/UoC/Dissertation/Experiment/OpenSesame/NAP-FC/NAP_GER_AA_4blocks_noglides","yes","no","sans","no","20","no","black","no","Weiter","yes","768","legacy","13","9","0","/Users/aviadalbert/Documents/Academisch/UoC/Dissertation/Experiment/OpenSesame/NAP-FC/NAP_GER_AA_4blocks_noglides/subject-28.csv","xpyriment","Jazzy James","3.1.9","yes","yes","59a800d99ad5a1025d81bb03","59a801616c613b0251691de0","no","no","0","j","f","space","NA","space","space","j","1176","4821","22663","NA","43046","7838","1176","2","legacy","1024","1","44100","-16","experiment","mlal","2","0","1","0","1","eng spanish arabic","28","","even","378321","355139","NA","NA","383143","378318","NA","1796","377856","1797","1796","270631","313681","420680","419176","421857","324561","321798","355139","NA","199631","251750","353481","321584","378321","321802","NA","420680","420680","NA","NA","419172","NAP perception","8","13811","14","yes","1024"
"53.3333333333","yes","53.3333333333","989.133333333","989.133333333","white","no","xpyriment","Ich habe die obigen Informationen gelesen und verstanden.","legacy","legacy","0","uniform","0","0","0","undefined","undefined","0","j","2","1","NA","0","1","0","0","0","0","0","0","0","0","24","24","24","0","0","0","NA","0","0","2","0","0","0","2","24","24","24","24","24","Fri Oct 27 09:51:57 2017","Forced-choice identification task with a practice and an experimental phase","yes","NAP_GER_AA_4blocks_noglides.osexp","/Users/aviadalbert/Documents/Academisch/UoC/Dissertation/Experiment/OpenSesame/NAP-FC/NAP_GER_AA_4blocks_noglides","yes","no","sans","no","20","no","black","no","Weiter","yes","768","legacy","14","9","0","/Users/aviadalbert/Documents/Academisch/UoC/Dissertation/Experiment/OpenSesame/NAP-FC/NAP_GER_AA_4blocks_noglides/subject-28.csv","xpyriment","Jazzy James","3.1.9","yes","yes","59a800d99ad5a1025d81bb03","59a801616c613b0251691de0","no","no","0","f","f","space","NA","space","space","f","1026","4821","22663","NA","43046","7838","1026","2","legacy","1024","1","44100","-16","experiment","sepal","2","0","1","0","1","eng spanish arabic","28","","even","378321","355139","NA","NA","383143","378318","NA","1796","377856","1797","1796","270631","313681","423638","422134","424665","324561","321798","355139","NA","199631","251750","353481","321584","378321","321802","NA","423638","423638","NA","NA","422130","NAP perception","8","14837","15","yes","1024"
"56.25","yes","56.25","1003.1875","1003.1875","white","no","xpyriment","Ich habe die obigen Informationen gelesen und verstanden.","legacy","legacy","0","uniform","1","0","0","undefined","undefined","1","j","2","1","NA","0","1","0","0","0","0","0","0","0","0","25","25","25","0","0","0","NA","0","0","2","0","0","0","2","25","25","25","25","25","Fri Oct 27 09:51:57 2017","Forced-choice identification task with a practice and an experimental phase","yes","NAP_GER_AA_4blocks_noglides.osexp","/Users/aviadalbert/Documents/Academisch/UoC/Dissertation/Experiment/OpenSesame/NAP-FC/NAP_GER_AA_4blocks_noglides","yes","no","sans","no","20","no","black","no","Weiter","yes","768","legacy","15","9","0","/Users/aviadalbert/Documents/Academisch/UoC/Dissertation/Experiment/OpenSesame/NAP-FC/NAP_GER_AA_4blocks_noglides/subject-28.csv","xpyriment","Jazzy James","3.1.9","yes","yes","59a800d99ad5a1025d81bb03","59a801616c613b0251691de0","no","no","0","j","f","space","NA","space","space","j","1214","4821","22663","NA","43046","7838","1214","2","legacy","1024","1","44100","-16","experiment","elval","2","0","1","0","1","eng spanish arabic","28","","even","378321","355139","NA","NA","383143","378318","NA","1796","377856","1797","1796","270631","313681","426443","424940","427658","324561","321798","355139","NA","199631","251750","353481","321584","378321","321802","NA","426443","426443","NA","NA","424936","NAP perception","9","16051","16","yes","1024"
"58.8235294118","yes","58.8235294118","991.117647059","991.117647059","white","no","xpyriment","Ich habe die obigen Informationen gelesen und verstanden.","legacy","legacy","0","uniform","1","0","0","undefined","undefined","1","f","2","1","NA","0","1","0","0","0","0","0","0","0","0","26","26","26","0","0","0","NA","0","0","2","0","0","0","2","26","26","26","26","26","Fri Oct 27 09:51:57 2017","Forced-choice identification task with a practice and an experimental phase","yes","NAP_GER_AA_4blocks_noglides.osexp","/Users/aviadalbert/Documents/Academisch/UoC/Dissertation/Experiment/OpenSesame/NAP-FC/NAP_GER_AA_4blocks_noglides","yes","no","sans","no","20","no","black","no","Weiter","yes","768","legacy","16","9","0","/Users/aviadalbert/Documents/Academisch/UoC/Dissertation/Experiment/OpenSesame/NAP-FC/NAP_GER_AA_4blocks_noglides/subject-28.csv","xpyriment","Jazzy James","3.1.9","yes","yes","59a800d99ad5a1025d81bb03","59a801616c613b0251691de0","no","no","0","f","f","space","NA","space","space","f","798","4821","22663","NA","43046","7838","798","2","legacy","1024","1","44100","-16","experiment","mnal","2","0","1","0","1","eng spanish arabic","28","","even","378321","355139","NA","NA","383143","378318","NA","1796","377856","1797","1796","270631","313681","429432","427928","430231","324561","321798","355139","NA","199631","251750","353481","321584","378321","321802","NA","429431","429431","NA","NA","427924","NAP perception","10","16849","17","yes","1024"
"61.1111111111","yes","61.1111111111","1006.44444444","1006.44444444","white","no","xpyriment","Ich habe die obigen Informationen gelesen und verstanden.","legacy","legacy","0","uniform","1","0","0","undefined","undefined","1","f","2","1","NA","0","1","0","0","0","0","0","0","0","0","27","27","27","0","0","0","NA","0","0","2","0","0","0","2","27","27","27","27","27","Fri Oct 27 09:51:57 2017","Forced-choice identification task with a practice and an experimental phase","yes","NAP_GER_AA_4blocks_noglides.osexp","/Users/aviadalbert/Documents/Academisch/UoC/Dissertation/Experiment/OpenSesame/NAP-FC/NAP_GER_AA_4blocks_noglides","yes","no","sans","no","20","no","black","no","Weiter","yes","768","legacy","17","9","0","/Users/aviadalbert/Documents/Academisch/UoC/Dissertation/Experiment/OpenSesame/NAP-FC/NAP_GER_AA_4blocks_noglides/subject-28.csv","xpyriment","Jazzy James","3.1.9","yes","yes","59a800d99ad5a1025d81bb03","59a801616c613b0251691de0","no","no","0","f","f","space","NA","space","space","f","1267","4821","22663","NA","43046","7838","1267","2","legacy","1024","1","44100","-16","experiment","spal","2","0","1","0","1","eng spanish arabic","28","","even","378321","355139","NA","NA","383143","378318","NA","1796","377856","1797","1796","270631","313681","432033","430528","433301","324561","321798","355139","NA","199631","251750","353481","321584","378321","321802","NA","432033","432033","NA","NA","430524","NAP perception","11","18116","18","yes","1024"
"63.1578947368","yes","63.1578947368","1002.52631579","1002.52631579","white","no","xpyriment","Ich habe die obigen Informationen gelesen und verstanden.","legacy","legacy","0","uniform","1","0","0","undefined","undefined","1","j","2","1","NA","0","1","0","0","0","0","0","0","0","0","28","28","28","0","0","0","NA","0","0","2","0","0","0","2","28","28","28","28","28","Fri Oct 27 09:51:57 2017","Forced-choice identification task with a practice and an experimental phase","yes","NAP_GER_AA_4blocks_noglides.osexp","/Users/aviadalbert/Documents/Academisch/UoC/Dissertation/Experiment/OpenSesame/NAP-FC/NAP_GER_AA_4blocks_noglides","yes","no","sans","no","20","no","black","no","Weiter","yes","768","legacy","18","9","0","/Users/aviadalbert/Documents/Academisch/UoC/Dissertation/Experiment/OpenSesame/NAP-FC/NAP_GER_AA_4blocks_noglides/subject-28.csv","xpyriment","Jazzy James","3.1.9","yes","yes","59a800d99ad5a1025d81bb03","59a801616c613b0251691de0","no","no","0","j","f","space","NA","space","space","j","932","4821","22663","NA","43046","7838","932","2","legacy","1024","1","44100","-16","experiment","lefal","2","0","1","0","1","eng spanish arabic","28","","even","378321","355139","NA","NA","383143","378318","NA","1796","377856","1797","1796","270631","313681","435076","433573","436010","324561","321798","355139","NA","199631","251750","353481","321584","378321","321802","NA","435076","435076","NA","NA","433569","NAP perception","12","19048","19","yes","1024"
"65","yes","65","992.25","992.25","white","no","xpyriment","Ich habe die obigen Informationen gelesen und verstanden.","legacy","legacy","0","uniform","1","0","0","undefined","undefined","1","j","2","1","NA","0","1","0","0","0","0","0","0","0","0","29","29","29","0","0","0","NA","0","0","2","0","0","0","2","29","29","29","29","29","Fri Oct 27 09:51:57 2017","Forced-choice identification task with a practice and an experimental phase","yes","NAP_GER_AA_4blocks_noglides.osexp","/Users/aviadalbert/Documents/Academisch/UoC/Dissertation/Experiment/OpenSesame/NAP-FC/NAP_GER_AA_4blocks_noglides","yes","no","sans","no","20","no","black","no","Weiter","yes","768","legacy","19","9","0","/Users/aviadalbert/Documents/Academisch/UoC/Dissertation/Experiment/OpenSesame/NAP-FC/NAP_GER_AA_4blocks_noglides/subject-28.csv","xpyriment","Jazzy James","3.1.9","yes","yes","59a800d99ad5a1025d81bb03","59a801616c613b0251691de0","no","no","0","j","f","space","NA","space","space","j","797","4821","22663","NA","43046","7838","797","2","legacy","1024","1","44100","-16","experiment","zemal","2","0","1","0","1","eng spanish arabic","28","","even","378321","355139","NA","NA","383143","378318","NA","1796","377856","1797","1796","270631","313681","437798","436291","438597","324561","321798","355139","NA","199631","251750","353481","321584","378321","321802","NA","437797","437798","NA","NA","436287","NAP perception","13","19845","20","yes","1024"
"66.6666666667","yes","66.6666666667","1005.42857143","1005.42857143","white","no","xpyriment","Ich habe die obigen Informationen gelesen und verstanden.","legacy","legacy","0","uniform","1","0","0","undefined","undefined","1","j","2","1","NA","0","1","0","0","0","0","0","0","0","0","30","30","30","0","0","0","NA","0","0","2","0","0","0","2","30","30","30","30","30","Fri Oct 27 09:51:57 2017","Forced-choice identification task with a practice and an experimental phase","yes","NAP_GER_AA_4blocks_noglides.osexp","/Users/aviadalbert/Documents/Academisch/UoC/Dissertation/Experiment/OpenSesame/NAP-FC/NAP_GER_AA_4blocks_noglides","yes","no","sans","no","20","no","black","no","Weiter","yes","768","legacy","20","9","0","/Users/aviadalbert/Documents/Academisch/UoC/Dissertation/Experiment/OpenSesame/NAP-FC/NAP_GER_AA_4blocks_noglides/subject-28.csv","xpyriment","Jazzy James","3.1.9","yes","yes","59a800d99ad5a1025d81bb03","59a801616c613b0251691de0","no","no","0","j","f","space","NA","space","space","j","1269","4821","22663","NA","43046","7838","1269","2","legacy","1024","1","44100","-16","experiment","ʃefal","2","0","1","0","1","eng spanish arabic","28","","even","378321","355139","NA","NA","383143","378318","NA","1796","377856","1797","1796","270631","313681","440378","438874","441649","324561","321798","355139","NA","199631","251750","353481","321584","378321","321802","NA","440378","440378","NA","NA","438870","NAP perception","14","21114","21","yes","1024"
"68.1818181818","yes","68.1818181818","1015.31818182","1015.31818182","white","no","xpyriment","Ich habe die obigen Informationen gelesen und verstanden.","legacy","legacy","0","uniform","1","0","0","undefined","undefined","1","j","2","1","NA","0","1","0","0","0","0","0","0","0","0","31","31","31","0","0","0","NA","0","0","2","0","0","0","2","31","31","31","31","31","Fri Oct 27 09:51:57 2017","Forced-choice identification task with a practice and an experimental phase","yes","NAP_GER_AA_4blocks_noglides.osexp","/Users/aviadalbert/Documents/Academisch/UoC/Dissertation/Experiment/OpenSesame/NAP-FC/NAP_GER_AA_4blocks_noglides","yes","no","sans","no","20","no","black","no","Weiter","yes","768","legacy","21","9","0","/Users/aviadalbert/Documents/Academisch/UoC/Dissertation/Experiment/OpenSesame/NAP-FC/NAP_GER_AA_4blocks_noglides/subject-28.csv","xpyriment","Jazzy James","3.1.9","yes","yes","59a800d99ad5a1025d81bb03","59a801616c613b0251691de0","no","no","0","j","f","space","NA","space","space","j","1223","4821","22663","NA","43046","7838","1223","2","legacy","1024","1","44100","-16","experiment","emnal","2","0","1","0","1","eng spanish arabic","28","","even","378321","355139","NA","NA","383143","378318","NA","1796","377856","1797","1796","270631","313681","443429","441923","444653","324561","321798","355139","NA","199631","251750","353481","321584","378321","321802","NA","443429","443429","NA","NA","441919","NAP perception","15","22337","22","yes","1024"
"69.5652173913","yes","69.5652173913","1005.56521739","1005.56521739","white","no","xpyriment","Ich habe die obigen Informationen gelesen und verstanden.","legacy","legacy","0","uniform","1","0","0","undefined","undefined","1","f","2","1","NA","0","1","0","0","0","0","0","0","0","0","32","32","32","0","0","0","NA","0","0","2","0","0","0","2","32","32","32","32","32","Fri Oct 27 09:51:57 2017","Forced-choice identification task with a practice and an experimental phase","yes","NAP_GER_AA_4blocks_noglides.osexp","/Users/aviadalbert/Documents/Academisch/UoC/Dissertation/Experiment/OpenSesame/NAP-FC/NAP_GER_AA_4blocks_noglides","yes","no","sans","no","20","no","black","no","Weiter","yes","768","legacy","22","9","0","/Users/aviadalbert/Documents/Academisch/UoC/Dissertation/Experiment/OpenSesame/NAP-FC/NAP_GER_AA_4blocks_noglides/subject-28.csv","xpyriment","Jazzy James","3.1.9","yes","yes","59a800d99ad5a1025d81bb03","59a801616c613b0251691de0","no","no","0","f","f","space","NA","space","space","f","791","4821","22663","NA","43046","7838","791","2","legacy","1024","1","44100","-16","experiment","fsal","2","0","1","0","1","eng spanish arabic","28","","even","378321","355139","NA","NA","383143","378318","NA","1796","377856","1797","1796","270631","313681","446430","444927","447222","324561","321798","355139","NA","199631","251750","353481","321584","378321","321802","NA","446430","446430","NA","NA","444923","NAP perception","16","23128","23","yes","1024"
"70.8333333333","yes","70.8333333333","1008.91666667","1008.91666667","white","no","xpyriment","Ich habe die obigen Informationen gelesen und verstanden.","legacy","legacy","0","uniform","1","0","0","undefined","undefined","1","j","2","1","NA","0","1","0","0","0","0","0","0","0","0","33","33","33","0","0","0","NA","0","0","2","0","0","0","2","33","33","33","33","33","Fri Oct 27 09:51:57 2017","Forced-choice identification task with a practice and an experimental phase","yes","NAP_GER_AA_4blocks_noglides.osexp","/Users/aviadalbert/Documents/Academisch/UoC/Dissertation/Experiment/OpenSesame/NAP-FC/NAP_GER_AA_4blocks_noglides","yes","no","sans","no","20","no","black","no","Weiter","yes","768","legacy","23","9","0","/Users/aviadalbert/Documents/Academisch/UoC/Dissertation/Experiment/OpenSesame/NAP-FC/NAP_GER_AA_4blocks_noglides/subject-28.csv","xpyriment","Jazzy James","3.1.9","yes","yes","59a800d99ad5a1025d81bb03","59a801616c613b0251691de0","no","no","0","j","f","space","NA","space","space","j","1086","4821","22663","NA","43046","7838","1086","2","legacy","1024","1","44100","-16","experiment","velal","2","0","1","0","1","eng spanish arabic","28","","even","378321","355139","NA","NA","383143","378318","NA","1796","377856","1797","1796","270631","313681","449007","447504","450095","324561","321798","355139","NA","199631","251750","353481","321584","378321","321802","NA","449007","449007","NA","NA","447500","NAP perception","17","24214","24","yes","1024"
"68","yes","68","1011","1011","white","no","xpyriment","Ich habe die obigen Informationen gelesen und verstanden.","legacy","legacy","0","uniform","0","0","0","undefined","undefined","0","f","2","1","NA","0","1","0","0","0","0","0","0","0","0","34","34","34","0","0","0","NA","0","0","2","0","0","0","2","34","34","34","34","34","Fri Oct 27 09:51:57 2017","Forced-choice identification task with a practice and an experimental phase","yes","NAP_GER_AA_4blocks_noglides.osexp","/Users/aviadalbert/Documents/Academisch/UoC/Dissertation/Experiment/OpenSesame/NAP-FC/NAP_GER_AA_4blocks_noglides","yes","no","sans","no","20","no","black","no","Weiter","yes","768","legacy","24","9","0","/Users/aviadalbert/Documents/Academisch/UoC/Dissertation/Experiment/OpenSesame/NAP-FC/NAP_GER_AA_4blocks_noglides/subject-28.csv","xpyriment","Jazzy James","3.1.9","yes","yes","59a800d99ad5a1025d81bb03","59a801616c613b0251691de0","no","no","0","j","f","space","NA","space","space","j","1061","4821","22663","NA","43046","7838","1061","2","legacy","1024","1","44100","-16","experiment","nmal","2","0","1","0","1","eng spanish arabic","28","","even","378321","355139","NA","NA","383143","378318","NA","1796","377856","1797","1796","270631","313681","451881","450376","452944","324561","321798","355139","NA","199631","251750","353481","321584","378321","321802","NA","451881","451881","NA","NA","450372","NAP perception","17","25275","25","yes","1024"
"69.2307692308","yes","69.2307692308","1018.96153846","1018.96153846","white","no","xpyriment","Ich habe die obigen Informationen gelesen und verstanden.","legacy","legacy","0","uniform","1","0","0","undefined","undefined","1","j","2","1","NA","0","1","0","0","0","0","0","0","0","0","35","35","35","0","0","0","NA","0","0","2","0","0","0","2","35","35","35","35","35","Fri Oct 27 09:51:57 2017","Forced-choice identification task with a practice and an experimental phase","yes","NAP_GER_AA_4blocks_noglides.osexp","/Users/aviadalbert/Documents/Academisch/UoC/Dissertation/Experiment/OpenSesame/NAP-FC/NAP_GER_AA_4blocks_noglides","yes","no","sans","no","20","no","black","no","Weiter","yes","768","legacy","25","9","0","/Users/aviadalbert/Documents/Academisch/UoC/Dissertation/Experiment/OpenSesame/NAP-FC/NAP_GER_AA_4blocks_noglides/subject-28.csv","xpyriment","Jazzy James","3.1.9","yes","yes","59a800d99ad5a1025d81bb03","59a801616c613b0251691de0","no","no","0","j","f","space","NA","space","space","j","1218","4821","22663","NA","43046","7838","1218","2","legacy","1024","1","44100","-16","experiment","emlal","2","0","1","0","1","eng spanish arabic","28","","even","378321","355139","NA","NA","383143","378318","NA","1796","377856","1797","1796","270631","313681","454733","453229","455952","324561","321798","355139","NA","199631","251750","353481","321584","378321","321802","NA","454733","454733","NA","NA","453225","NAP perception","18","26493","26","yes","1024"
"70.3703703704","yes","70.3703703704","1018.03703704","1018.03703704","white","no","xpyriment","Ich habe die obigen Informationen gelesen und verstanden.","legacy","legacy","0","uniform","1","0","0","undefined","undefined","1","f","2","1","NA","0","1","0","0","0","0","0","0","0","0","36","36","36","0","0","0","NA","0","0","2","0","0","0","2","36","36","36","36","36","Fri Oct 27 09:51:57 2017","Forced-choice identification task with a practice and an experimental phase","yes","NAP_GER_AA_4blocks_noglides.osexp","/Users/aviadalbert/Documents/Academisch/UoC/Dissertation/Experiment/OpenSesame/NAP-FC/NAP_GER_AA_4blocks_noglides","yes","no","sans","no","20","no","black","no","Weiter","yes","768","legacy","26","9","0","/Users/aviadalbert/Documents/Academisch/UoC/Dissertation/Experiment/OpenSesame/NAP-FC/NAP_GER_AA_4blocks_noglides/subject-28.csv","xpyriment","Jazzy James","3.1.9","yes","yes","59a800d99ad5a1025d81bb03","59a801616c613b0251691de0","no","no","0","f","f","space","NA","space","space","f","994","4821","22663","NA","43046","7838","994","2","legacy","1024","1","44100","-16","experiment","fnal","2","0","1","0","1","eng spanish arabic","28","","even","378321","355139","NA","NA","383143","378318","NA","1796","377856","1797","1796","270631","313681","457737","456234","458732","324561","321798","355139","NA","199631","251750","353481","321584","378321","321802","NA","457737","457737","NA","NA","456230","NAP perception","19","27487","27","yes","1024"
"71.4285714286","yes","71.4285714286","1046","1046","white","no","xpyriment","Ich habe die obigen Informationen gelesen und verstanden.","legacy","legacy","0","uniform","1","0","0","undefined","undefined","1","f","2","1","NA","0","1","0","0","0","0","0","0","0","0","37","37","37","0","0","0","NA","0","0","2","0","0","0","2","37","37","37","37","37","Fri Oct 27 09:51:57 2017","Forced-choice identification task with a practice and an experimental phase","yes","NAP_GER_AA_4blocks_noglides.osexp","/Users/aviadalbert/Documents/Academisch/UoC/Dissertation/Experiment/OpenSesame/NAP-FC/NAP_GER_AA_4blocks_noglides","yes","no","sans","no","20","no","black","no","Weiter","yes","768","legacy","27","9","0","/Users/aviadalbert/Documents/Academisch/UoC/Dissertation/Experiment/OpenSesame/NAP-FC/NAP_GER_AA_4blocks_noglides/subject-28.csv","xpyriment","Jazzy James","3.1.9","yes","yes","59a800d99ad5a1025d81bb03","59a801616c613b0251691de0","no","no","0","f","f","space","NA","space","space","f","1801","4821","22663","NA","43046","7838","1801","2","legacy","1024","1","44100","-16","experiment","lpal","2","0","1","0","1","eng spanish arabic","28","","even","378321","355139","NA","NA","383143","378318","NA","1796","377856","1797","1796","270631","313681","460518","459012","462320","324561","321798","355139","NA","199631","251750","353481","321584","378321","321802","NA","460518","460518","NA","NA","459008","NAP perception","20","29288","28","yes","1024"
"72.4137931034","yes","72.4137931034","1043.06896552","1043.06896552","white","no","xpyriment","Ich habe die obigen Informationen gelesen und verstanden.","legacy","legacy","0","uniform","1","0","0","undefined","undefined","1","j","2","1","NA","0","1","0","0","0","0","0","0","0","0","38","38","38","0","0","0","NA","0","0","2","0","0","0","2","38","38","38","38","38","Fri Oct 27 09:51:57 2017","Forced-choice identification task with a practice and an experimental phase","yes","NAP_GER_AA_4blocks_noglides.osexp","/Users/aviadalbert/Documents/Academisch/UoC/Dissertation/Experiment/OpenSesame/NAP-FC/NAP_GER_AA_4blocks_noglides","yes","no","sans","no","20","no","black","no","Weiter","yes","768","legacy","28","9","0","/Users/aviadalbert/Documents/Academisch/UoC/Dissertation/Experiment/OpenSesame/NAP-FC/NAP_GER_AA_4blocks_noglides/subject-28.csv","xpyriment","Jazzy James","3.1.9","yes","yes","59a800d99ad5a1025d81bb03","59a801616c613b0251691de0","no","no","0","j","f","space","NA","space","space","j","961","4821","22663","NA","43046","7838","961","2","legacy","1024","1","44100","-16","experiment","lepal","2","0","1","0","1","eng spanish arabic","28","","even","378321","355139","NA","NA","383143","378318","NA","1796","377856","1797","1796","270631","313681","464100","462595","465062","324561","321798","355139","NA","199631","251750","353481","321584","378321","321802","NA","464099","464100","NA","NA","462592","NAP perception","21","30249","29","yes","1024"
"73.3333333333","yes","73.3333333333","1055.83333333","1055.83333333","white","no","xpyriment","Ich habe die obigen Informationen gelesen und verstanden.","legacy","legacy","0","uniform","1","0","0","undefined","undefined","1","j","2","1","NA","0","1","0","0","0","0","0","0","0","0","39","39","39","0","0","0","NA","0","0","2","0","0","0","2","39","39","39","39","39","Fri Oct 27 09:51:57 2017","Forced-choice identification task with a practice and an experimental phase","yes","NAP_GER_AA_4blocks_noglides.osexp","/Users/aviadalbert/Documents/Academisch/UoC/Dissertation/Experiment/OpenSesame/NAP-FC/NAP_GER_AA_4blocks_noglides","yes","no","sans","no","20","no","black","no","Weiter","yes","768","legacy","29","9","0","/Users/aviadalbert/Documents/Academisch/UoC/Dissertation/Experiment/OpenSesame/NAP-FC/NAP_GER_AA_4blocks_noglides/subject-28.csv","xpyriment","Jazzy James","3.1.9","yes","yes","59a800d99ad5a1025d81bb03","59a801616c613b0251691de0","no","no","0","j","f","space","NA","space","space","j","1426","4821","22663","NA","43046","7838","1426","2","legacy","1024","1","44100","-16","experiment","elkal","2","0","1","0","1","eng spanish arabic","28","","even","378321","355139","NA","NA","383143","378318","NA","1796","377856","1797","1796","270631","313681","466829","465326","468256","324561","321798","355139","NA","199631","251750","353481","321584","378321","321802","NA","466829","466829","NA","NA","465322","NAP perception","22","31675","30","yes","1024"
"74.1935483871","yes","74.1935483871","1057.32258065","1057.32258065","white","no","xpyriment","Ich habe die obigen Informationen gelesen und verstanden.","legacy","legacy","0","uniform","1","0","0","undefined","undefined","1","j","2","1","NA","0","1","0","0","0","0","0","0","0","0","40","40","40","0","0","0","NA","0","0","2","0","0","0","2","40","40","40","40","40","Fri Oct 27 09:51:57 2017","Forced-choice identification task with a practice and an experimental phase","yes","NAP_GER_AA_4blocks_noglides.osexp","/Users/aviadalbert/Documents/Academisch/UoC/Dissertation/Experiment/OpenSesame/NAP-FC/NAP_GER_AA_4blocks_noglides","yes","no","sans","no","20","no","black","no","Weiter","yes","768","legacy","30","9","0","/Users/aviadalbert/Documents/Academisch/UoC/Dissertation/Experiment/OpenSesame/NAP-FC/NAP_GER_AA_4blocks_noglides/subject-28.csv","xpyriment","Jazzy James","3.1.9","yes","yes","59a800d99ad5a1025d81bb03","59a801616c613b0251691de0","no","no","0","j","f","space","NA","space","space","j","1102","4821","22663","NA","43046","7838","1102","2","legacy","1024","1","44100","-16","experiment","melal","2","0","1","0","1","eng spanish arabic","28","","even","378321","355139","NA","NA","383143","378318","NA","1796","377856","1797","1796","270631","313681","470051","468544","471154","324561","321798","355139","NA","199631","251750","353481","321584","378321","321802","NA","470050","470050","NA","NA","468540","NAP perception","23","32777","31","yes","1024"
"75","yes","75","1066.71875","1066.71875","white","no","xpyriment","Ich habe die obigen Informationen gelesen und verstanden.","legacy","legacy","0","uniform","1","0","0","undefined","undefined","1","j","2","1","NA","0","1","0","0","0","0","0","0","0","0","41","41","41","0","0","0","NA","0","0","2","0","0","0","2","41","41","41","41","41","Fri Oct 27 09:51:57 2017","Forced-choice identification task with a practice and an experimental phase","yes","NAP_GER_AA_4blocks_noglides.osexp","/Users/aviadalbert/Documents/Academisch/UoC/Dissertation/Experiment/OpenSesame/NAP-FC/NAP_GER_AA_4blocks_noglides","yes","no","sans","no","20","no","black","no","Weiter","yes","768","legacy","31","9","0","/Users/aviadalbert/Documents/Academisch/UoC/Dissertation/Experiment/OpenSesame/NAP-FC/NAP_GER_AA_4blocks_noglides/subject-28.csv","xpyriment","Jazzy James","3.1.9","yes","yes","59a800d99ad5a1025d81bb03","59a801616c613b0251691de0","no","no","0","j","f","space","NA","space","space","j","1358","4821","22663","NA","43046","7838","1358","2","legacy","1024","1","44100","-16","experiment","fetal","2","0","1","0","1","eng spanish arabic","28","","even","378321","355139","NA","NA","383143","378318","NA","1796","377856","1797","1796","270631","313681","472934","471429","474294","324561","321798","355139","NA","199631","251750","353481","321584","378321","321802","NA","472934","472934","NA","NA","471425","NAP perception","24","34135","32","yes","1024"
"75.7575757576","yes","75.7575757576","1070.27272727","1070.27272727","white","no","xpyriment","Ich habe die obigen Informationen gelesen und verstanden.","legacy","legacy","0","uniform","1","0","0","undefined","undefined","1","j","2","1","NA","0","1","0","0","0","0","0","0","0","0","42","42","42","0","0","0","NA","0","0","2","0","0","0","2","42","42","42","42","42","Fri Oct 27 09:51:57 2017","Forced-choice identification task with a practice and an experimental phase","yes","NAP_GER_AA_4blocks_noglides.osexp","/Users/aviadalbert/Documents/Academisch/UoC/Dissertation/Experiment/OpenSesame/NAP-FC/NAP_GER_AA_4blocks_noglides","yes","no","sans","no","20","no","black","no","Weiter","yes","768","legacy","32","9","0","/Users/aviadalbert/Documents/Academisch/UoC/Dissertation/Experiment/OpenSesame/NAP-FC/NAP_GER_AA_4blocks_noglides/subject-28.csv","xpyriment","Jazzy James","3.1.9","yes","yes","59a800d99ad5a1025d81bb03","59a801616c613b0251691de0","no","no","0","j","f","space","NA","space","space","j","1184","4821","22663","NA","43046","7838","1184","2","legacy","1024","1","44100","-16","experiment","nemal","2","0","1","0","1","eng spanish arabic","28","","even","378321","355139","NA","NA","383143","378318","NA","1796","377856","1797","1796","270631","313681","476070","474566","477256","324561","321798","355139","NA","199631","251750","353481","321584","378321","321802","NA","476070","476070","NA","NA","474562","NAP perception","25","35319","33","yes","1024"
"76.4705882353","yes","76.4705882353","1075.67647059","1075.67647059","white","no","xpyriment","Ich habe die obigen Informationen gelesen und verstanden.","legacy","legacy","0","uniform","1","0","0","undefined","undefined","1","j","2","1","NA","0","1","0","0","0","0","0","0","0","0","43","43","43","0","0","0","NA","0","0","2","0","0","0","2","43","43","43","43","43","Fri Oct 27 09:51:57 2017","Forced-choice identification task with a practice and an experimental phase","yes","NAP_GER_AA_4blocks_noglides.osexp","/Users/aviadalbert/Documents/Academisch/UoC/Dissertation/Experiment/OpenSesame/NAP-FC/NAP_GER_AA_4blocks_noglides","yes","no","sans","no","20","no","black","no","Weiter","yes","768","legacy","33","9","0","/Users/aviadalbert/Documents/Academisch/UoC/Dissertation/Experiment/OpenSesame/NAP-FC/NAP_GER_AA_4blocks_noglides/subject-28.csv","xpyriment","Jazzy James","3.1.9","yes","yes","59a800d99ad5a1025d81bb03","59a801616c613b0251691de0","no","no","0","j","f","space","NA","space","space","j","1254","4821","22663","NA","43046","7838","1254","2","legacy","1024","1","44100","-16","experiment","espal","2","0","1","0","1","eng spanish arabic","28","","even","378321","355139","NA","NA","383143","378318","NA","1796","377856","1797","1796","270631","313681","479049","477544","480305","324561","321798","355139","NA","199631","251750","353481","321584","378321","321802","NA","479049","479049","NA","NA","477540","NAP perception","26","36573","34","yes","1024"
"74.2857142857","yes","74.2857142857","1078.02857143","1078.02857143","white","no","xpyriment","Ich habe die obigen Informationen gelesen und verstanden.","legacy","legacy","0","uniform","0","0","0","undefined","undefined","0","f","2","1","NA","0","1","0","0","0","0","0","0","0","0","44","44","44","0","0","0","NA","0","0","2","0","0","0","2","44","44","44","44","44","Fri Oct 27 09:51:57 2017","Forced-choice identification task with a practice and an experimental phase","yes","NAP_GER_AA_4blocks_noglides.osexp","/Users/aviadalbert/Documents/Academisch/UoC/Dissertation/Experiment/OpenSesame/NAP-FC/NAP_GER_AA_4blocks_noglides","yes","no","sans","no","20","no","black","no","Weiter","yes","768","legacy","34","9","0","/Users/aviadalbert/Documents/Academisch/UoC/Dissertation/Experiment/OpenSesame/NAP-FC/NAP_GER_AA_4blocks_noglides/subject-28.csv","xpyriment","Jazzy James","3.1.9","yes","yes","59a800d99ad5a1025d81bb03","59a801616c613b0251691de0","no","no","0","j","f","space","NA","space","space","j","1158","4821","22663","NA","43046","7838","1158","2","legacy","1024","1","44100","-16","experiment","nval","2","0","1","0","1","eng spanish arabic","28","","even","378321","355139","NA","NA","383143","378318","NA","1796","377856","1797","1796","270631","313681","482091","480587","483251","324561","321798","355139","NA","199631","251750","353481","321584","378321","321802","NA","482090","482090","NA","NA","480583","NAP perception","26","37731","35","yes","1024"
"75","yes","75","1078.02777778","1078.02777778","white","no","xpyriment","Ich habe die obigen Informationen gelesen und verstanden.","legacy","legacy","0","uniform","1","0","0","undefined","undefined","1","j","2","1","NA","0","1","0","0","0","0","0","0","0","0","45","45","45","0","0","0","NA","0","0","2","0","0","0","2","45","45","45","45","45","Fri Oct 27 09:51:57 2017","Forced-choice identification task with a practice and an experimental phase","yes","NAP_GER_AA_4blocks_noglides.osexp","/Users/aviadalbert/Documents/Academisch/UoC/Dissertation/Experiment/OpenSesame/NAP-FC/NAP_GER_AA_4blocks_noglides","yes","no","sans","no","20","no","black","no","Weiter","yes","768","legacy","35","9","0","/Users/aviadalbert/Documents/Academisch/UoC/Dissertation/Experiment/OpenSesame/NAP-FC/NAP_GER_AA_4blocks_noglides/subject-28.csv","xpyriment","Jazzy James","3.1.9","yes","yes","59a800d99ad5a1025d81bb03","59a801616c613b0251691de0","no","no","0","j","f","space","NA","space","space","j","1078","4821","22663","NA","43046","7838","1078","2","legacy","1024","1","44100","-16","experiment","ezmal","2","0","1","0","1","eng spanish arabic","28","","even","378321","355139","NA","NA","383143","378318","NA","1796","377856","1797","1796","270631","313681","485040","483535","486120","324561","321798","355139","NA","199631","251750","353481","321584","378321","321802","NA","485040","485040","NA","NA","483531","NAP perception","27","38809","36","yes","1024"
"75.6756756757","yes","75.6756756757","1083.75675676","1083.75675676","white","no","xpyriment","Ich habe die obigen Informationen gelesen und verstanden.","legacy","legacy","0","uniform","1","0","0","undefined","undefined","1","f","2","1","NA","0","1","0","0","0","0","0","0","0","0","46","46","46","0","0","0","NA","0","0","2","0","0","0","2","46","46","46","46","46","Fri Oct 27 09:51:57 2017","Forced-choice identification task with a practice and an experimental phase","yes","NAP_GER_AA_4blocks_noglides.osexp","/Users/aviadalbert/Documents/Academisch/UoC/Dissertation/Experiment/OpenSesame/NAP-FC/NAP_GER_AA_4blocks_noglides","yes","no","sans","no","20","no","black","no","Weiter","yes","768","legacy","36","9","0","/Users/aviadalbert/Documents/Academisch/UoC/Dissertation/Experiment/OpenSesame/NAP-FC/NAP_GER_AA_4blocks_noglides/subject-28.csv","xpyriment","Jazzy James","3.1.9","yes","yes","59a800d99ad5a1025d81bb03","59a801616c613b0251691de0","no","no","0","f","f","space","NA","space","space","f","1290","4821","22663","NA","43046","7838","1290","2","legacy","1024","1","44100","-16","experiment","spal","2","0","1","0","1","eng spanish arabic","28","","even","378321","355139","NA","NA","383143","378318","NA","1796","377856","1797","1796","270631","313681","487909","486401","489201","324561","321798","355139","NA","199631","251750","353481","321584","378321","321802","NA","487909","487909","NA","NA","486397","NAP perception","28","40099","37","yes","1024"
"76.3157894737","yes","76.3157894737","1089.18421053","1089.18421053","white","no","xpyriment","Ich habe die obigen Informationen gelesen und verstanden.","legacy","legacy","0","uniform","1","0","0","undefined","undefined","1","j","2","1","NA","0","1","0","0","0","0","0","0","0","0","47","47","47","0","0","0","NA","0","0","2","0","0","0","2","47","47","47","47","47","Fri Oct 27 09:51:57 2017","Forced-choice identification task with a practice and an experimental phase","yes","NAP_GER_AA_4blocks_noglides.osexp","/Users/aviadalbert/Documents/Academisch/UoC/Dissertation/Experiment/OpenSesame/NAP-FC/NAP_GER_AA_4blocks_noglides","yes","no","sans","no","20","no","black","no","Weiter","yes","768","legacy","37","9","0","/Users/aviadalbert/Documents/Academisch/UoC/Dissertation/Experiment/OpenSesame/NAP-FC/NAP_GER_AA_4blocks_noglides/subject-28.csv","xpyriment","Jazzy James","3.1.9","yes","yes","59a800d99ad5a1025d81bb03","59a801616c613b0251691de0","no","no","0","j","f","space","NA","space","space","j","1290","4821","22663","NA","43046","7838","1290","2","legacy","1024","1","44100","-16","experiment","elpal","2","0","1","0","1","eng spanish arabic","28","","even","378321","355139","NA","NA","383143","378318","NA","1796","377856","1797","1796","270631","313681","490982","489477","492273","324561","321798","355139","NA","199631","251750","353481","321584","378321","321802","NA","490981","490981","NA","NA","489473","NAP perception","29","41389","38","yes","1024"
"76.9230769231","yes","76.9230769231","1088.05128205","1088.05128205","white","no","xpyriment","Ich habe die obigen Informationen gelesen und verstanden.","legacy","legacy","0","uniform","1","0","0","undefined","undefined","1","j","2","1","NA","0","1","0","0","0","0","0","0","0","0","48","48","48","0","0","0","NA","0","0","2","0","0","0","2","48","48","48","48","48","Fri Oct 27 09:51:57 2017","Forced-choice identification task with a practice and an experimental phase","yes","NAP_GER_AA_4blocks_noglides.osexp","/Users/aviadalbert/Documents/Academisch/UoC/Dissertation/Experiment/OpenSesame/NAP-FC/NAP_GER_AA_4blocks_noglides","yes","no","sans","no","20","no","black","no","Weiter","yes","768","legacy","38","9","0","/Users/aviadalbert/Documents/Academisch/UoC/Dissertation/Experiment/OpenSesame/NAP-FC/NAP_GER_AA_4blocks_noglides/subject-28.csv","xpyriment","Jazzy James","3.1.9","yes","yes","59a800d99ad5a1025d81bb03","59a801616c613b0251691de0","no","no","0","j","f","space","NA","space","space","j","1045","4821","22663","NA","43046","7838","1045","2","legacy","1024","1","44100","-16","experiment","evlal","2","0","1","0","1","eng spanish arabic","28","","even","378321","355139","NA","NA","383143","378318","NA","1796","377856","1797","1796","270631","313681","494053","492549","495099","324561","321798","355139","NA","199631","251750","353481","321584","378321","321802","NA","494053","494053","NA","NA","492546","NAP perception","30","42434","39","yes","1024"
"75","yes","75","1092.775","1092.775","white","no","xpyriment","Ich habe die obigen Informationen gelesen und verstanden.","legacy","legacy","0","uniform","0","0","0","undefined","undefined","0","f","2","1","NA","0","1","0","0","0","0","0","0","0","0","49","49","49","0","0","0","NA","0","0","2","0","0","0","2","49","49","49","49","49","Fri Oct 27 09:51:57 2017","Forced-choice identification task with a practice and an experimental phase","yes","NAP_GER_AA_4blocks_noglides.osexp","/Users/aviadalbert/Documents/Academisch/UoC/Dissertation/Experiment/OpenSesame/NAP-FC/NAP_GER_AA_4blocks_noglides","yes","no","sans","no","20","no","black","no","Weiter","yes","768","legacy","39","9","0","/Users/aviadalbert/Documents/Academisch/UoC/Dissertation/Experiment/OpenSesame/NAP-FC/NAP_GER_AA_4blocks_noglides/subject-28.csv","xpyriment","Jazzy James","3.1.9","yes","yes","59a800d99ad5a1025d81bb03","59a801616c613b0251691de0","no","no","0","j","f","space","NA","space","space","j","1277","4821","22663","NA","43046","7838","1277","2","legacy","1024","1","44100","-16","experiment","nfal","2","0","1","0","1","eng spanish arabic","28","","even","378321","355139","NA","NA","383143","378318","NA","1796","377856","1797","1796","270631","313681","496894","495387","498173","324561","321798","355139","NA","199631","251750","353481","321584","378321","321802","NA","496893","496894","NA","NA","495383","NAP perception","30","43711","40","yes","1024"
"75.6097560976","yes","75.6097560976","1095.82926829","1095.82926829","white","no","xpyriment","Ich habe die obigen Informationen gelesen und verstanden.","legacy","legacy","0","uniform","1","0","0","undefined","undefined","1","j","2","1","NA","0","1","0","0","0","0","0","0","0","0","50","50","50","0","0","0","NA","0","0","2","0","0","0","2","50","50","50","50","50","Fri Oct 27 09:51:57 2017","Forced-choice identification task with a practice and an experimental phase","yes","NAP_GER_AA_4blocks_noglides.osexp","/Users/aviadalbert/Documents/Academisch/UoC/Dissertation/Experiment/OpenSesame/NAP-FC/NAP_GER_AA_4blocks_noglides","yes","no","sans","no","20","no","black","no","Weiter","yes","768","legacy","40","9","0","/Users/aviadalbert/Documents/Academisch/UoC/Dissertation/Experiment/OpenSesame/NAP-FC/NAP_GER_AA_4blocks_noglides/subject-28.csv","xpyriment","Jazzy James","3.1.9","yes","yes","59a800d99ad5a1025d81bb03","59a801616c613b0251691de0","no","no","0","j","f","space","NA","space","space","j","1218","4821","22663","NA","43046","7838","1218","2","legacy","1024","1","44100","-16","experiment","esfal","2","0","1","0","1","eng spanish arabic","28","","even","378321","355139","NA","NA","383143","378318","NA","1796","377856","1797","1796","270631","313681","499965","498460","501184","324561","321798","355139","NA","199631","251750","353481","321584","378321","321802","NA","499965","499965","NA","NA","498456","NAP perception","31","44929","41","yes","1024"
"76.1904761905","yes","76.1904761905","1092.42857143","1092.42857143","white","no","xpyriment","Ich habe die obigen Informationen gelesen und verstanden.","legacy","legacy","0","uniform","1","0","0","undefined","undefined","1","f","2","1","NA","0","1","0","0","0","0","0","0","0","0","51","51","51","0","0","0","NA","0","0","2","0","0","0","2","51","51","51","51","51","Fri Oct 27 09:51:57 2017","Forced-choice identification task with a practice and an experimental phase","yes","NAP_GER_AA_4blocks_noglides.osexp","/Users/aviadalbert/Documents/Academisch/UoC/Dissertation/Experiment/OpenSesame/NAP-FC/NAP_GER_AA_4blocks_noglides","yes","no","sans","no","20","no","black","no","Weiter","yes","768","legacy","41","9","0","/Users/aviadalbert/Documents/Academisch/UoC/Dissertation/Experiment/OpenSesame/NAP-FC/NAP_GER_AA_4blocks_noglides/subject-28.csv","xpyriment","Jazzy James","3.1.9","yes","yes","59a800d99ad5a1025d81bb03","59a801616c613b0251691de0","no","no","0","f","f","space","NA","space","space","f","953","4821","22663","NA","43046","7838","953","2","legacy","1024","1","44100","-16","experiment","zval","2","0","1","0","1","eng spanish arabic","28","","even","378321","355139","NA","NA","383143","378318","NA","1796","377856","1797","1796","270631","313681","502967","501460","503921","324561","321798","355139","NA","199631","251750","353481","321584","378321","321802","NA","502967","502967","NA","NA","501456","NAP perception","32","45882","42","yes","1024"
"76.7441860465","yes","76.7441860465","1098.30232558","1098.30232558","white","no","xpyriment","Ich habe die obigen Informationen gelesen und verstanden.","legacy","legacy","0","uniform","1","0","0","undefined","undefined","1","f","2","1","NA","0","1","0","0","0","0","0","0","0","0","52","52","52","0","0","0","NA","0","0","2","0","0","0","2","52","52","52","52","52","Fri Oct 27 09:51:57 2017","Forced-choice identification task with a practice and an experimental phase","yes","NAP_GER_AA_4blocks_noglides.osexp","/Users/aviadalbert/Documents/Academisch/UoC/Dissertation/Experiment/OpenSesame/NAP-FC/NAP_GER_AA_4blocks_noglides","yes","no","sans","no","20","no","black","no","Weiter","yes","768","legacy","42","9","0","/Users/aviadalbert/Documents/Academisch/UoC/Dissertation/Experiment/OpenSesame/NAP-FC/NAP_GER_AA_4blocks_noglides/subject-28.csv","xpyriment","Jazzy James","3.1.9","yes","yes","59a800d99ad5a1025d81bb03","59a801616c613b0251691de0","no","no","0","f","f","space","NA","space","space","f","1345","4821","22663","NA","43046","7838","1345","2","legacy","1024","1","44100","-16","experiment","sfal","2","0","1","0","1","eng spanish arabic","28","","even","378321","355139","NA","NA","383143","378318","NA","1796","377856","1797","1796","270631","313681","505707","504200","507053","324561","321798","355139","NA","199631","251750","353481","321584","378321","321802","NA","505707","505707","NA","NA","504196","NAP perception","33","47227","43","yes","1024"
"77.2727272727","yes","77.2727272727","1101.43181818","1101.43181818","white","no","xpyriment","Ich habe die obigen Informationen gelesen und verstanden.","legacy","legacy","0","uniform","1","0","0","undefined","undefined","1","j","2","1","NA","0","1","0","0","0","0","0","0","0","0","53","53","53","0","0","0","NA","0","0","2","0","0","0","2","53","53","53","53","53","Fri Oct 27 09:51:57 2017","Forced-choice identification task with a practice and an experimental phase","yes","NAP_GER_AA_4blocks_noglides.osexp","/Users/aviadalbert/Documents/Academisch/UoC/Dissertation/Experiment/OpenSesame/NAP-FC/NAP_GER_AA_4blocks_noglides","yes","no","sans","no","20","no","black","no","Weiter","yes","768","legacy","43","9","0","/Users/aviadalbert/Documents/Academisch/UoC/Dissertation/Experiment/OpenSesame/NAP-FC/NAP_GER_AA_4blocks_noglides/subject-28.csv","xpyriment","Jazzy James","3.1.9","yes","yes","59a800d99ad5a1025d81bb03","59a801616c613b0251691de0","no","no","0","j","f","space","NA","space","space","j","1236","4821","22663","NA","43046","7838","1236","2","legacy","1024","1","44100","-16","experiment","mesal","2","0","1","0","1","eng spanish arabic","28","","even","378321","355139","NA","NA","383143","378318","NA","1796","377856","1797","1796","270631","313681","508821","507318","510059","324561","321798","355139","NA","199631","251750","353481","321584","378321","321802","NA","508821","508821","NA","NA","507314","NAP perception","34","48463","44","yes","1024"
"75.5555555556","yes","75.5555555556","1100.66666667","1100.66666667","white","no","xpyriment","Ich habe die obigen Informationen gelesen und verstanden.","legacy","legacy","0","uniform","0","0","0","undefined","undefined","0","f","2","1","NA","0","1","0","0","0","0","0","0","0","0","54","54","54","0","0","0","NA","0","0","2","0","0","0","2","54","54","54","54","54","Fri Oct 27 09:51:57 2017","Forced-choice identification task with a practice and an experimental phase","yes","NAP_GER_AA_4blocks_noglides.osexp","/Users/aviadalbert/Documents/Academisch/UoC/Dissertation/Experiment/OpenSesame/NAP-FC/NAP_GER_AA_4blocks_noglides","yes","no","sans","no","20","no","black","no","Weiter","yes","768","legacy","44","9","0","/Users/aviadalbert/Documents/Academisch/UoC/Dissertation/Experiment/OpenSesame/NAP-FC/NAP_GER_AA_4blocks_noglides/subject-28.csv","xpyriment","Jazzy James","3.1.9","yes","yes","59a800d99ad5a1025d81bb03","59a801616c613b0251691de0","no","no","0","j","f","space","NA","space","space","j","1067","4821","22663","NA","43046","7838","1067","2","legacy","1024","1","44100","-16","experiment","msal","2","0","1","0","1","eng spanish arabic","28","","even","378321","355139","NA","NA","383143","378318","NA","1796","377856","1797","1796","270631","313681","511831","510325","512901","324561","321798","355139","NA","199631","251750","353481","321584","378321","321802","NA","511830","511831","NA","NA","510321","NAP perception","34","49530","45","yes","1024"
"76.0869565217","yes","76.0869565217","1106.04347826","1106.04347826","white","no","xpyriment","Ich habe die obigen Informationen gelesen und verstanden.","legacy","legacy","0","uniform","1","0","0","undefined","undefined","1","j","2","1","NA","0","1","0","0","0","0","0","0","0","0","55","55","55","0","0","0","NA","0","0","2","0","0","0","2","55","55","55","55","55","Fri Oct 27 09:51:57 2017","Forced-choice identification task with a practice and an experimental phase","yes","NAP_GER_AA_4blocks_noglides.osexp","/Users/aviadalbert/Documents/Academisch/UoC/Dissertation/Experiment/OpenSesame/NAP-FC/NAP_GER_AA_4blocks_noglides","yes","no","sans","no","20","no","black","no","Weiter","yes","768","legacy","45","9","0","/Users/aviadalbert/Documents/Academisch/UoC/Dissertation/Experiment/OpenSesame/NAP-FC/NAP_GER_AA_4blocks_noglides/subject-28.csv","xpyriment","Jazzy James","3.1.9","yes","yes","59a800d99ad5a1025d81bb03","59a801616c613b0251691de0","no","no","0","j","f","space","NA","space","space","j","1348","4821","22663","NA","43046","7838","1348","2","legacy","1024","1","44100","-16","experiment","enval","2","0","1","0","1","eng spanish arabic","28","","even","378321","355139","NA","NA","383143","378318","NA","1796","377856","1797","1796","270631","313681","514675","513172","516025","324561","321798","355139","NA","199631","251750","353481","321584","378321","321802","NA","514675","514675","NA","NA","513168","NAP perception","35","50878","46","yes","1024"
"74.4680851064","yes","74.4680851064","1112.27659574","1112.27659574","white","no","xpyriment","Ich habe die obigen Informationen gelesen und verstanden.","legacy","legacy","0","uniform","0","0","0","undefined","undefined","0","f","2","1","NA","0","1","0","0","0","0","0","0","0","0","56","56","56","0","0","0","NA","0","0","2","0","0","0","2","56","56","56","56","56","Fri Oct 27 09:51:57 2017","Forced-choice identification task with a practice and an experimental phase","yes","NAP_GER_AA_4blocks_noglides.osexp","/Users/aviadalbert/Documents/Academisch/UoC/Dissertation/Experiment/OpenSesame/NAP-FC/NAP_GER_AA_4blocks_noglides","yes","no","sans","no","20","no","black","no","Weiter","yes","768","legacy","46","9","0","/Users/aviadalbert/Documents/Academisch/UoC/Dissertation/Experiment/OpenSesame/NAP-FC/NAP_GER_AA_4blocks_noglides/subject-28.csv","xpyriment","Jazzy James","3.1.9","yes","yes","59a800d99ad5a1025d81bb03","59a801616c613b0251691de0","no","no","0","j","f","space","NA","space","space","j","1399","4821","22663","NA","43046","7838","1399","2","legacy","1024","1","44100","-16","experiment","lkal","2","0","1","0","1","eng spanish arabic","28","","even","378321","355139","NA","NA","383143","378318","NA","1796","377856","1797","1796","270631","313681","517809","516305","519210","324561","321798","355139","NA","199631","251750","353481","321584","378321","321802","NA","517809","517809","NA","NA","516302","NAP perception","35","52277","47","yes","1024"
"75","yes","75","1129.27083333","1129.27083333","white","no","xpyriment","Ich habe die obigen Informationen gelesen und verstanden.","legacy","legacy","0","uniform","1","0","0","undefined","undefined","1","f","2","1","NA","0","1","0","0","0","0","0","0","0","0","57","57","57","0","0","0","NA","0","0","2","0","0","0","2","57","57","57","57","57","Fri Oct 27 09:51:57 2017","Forced-choice identification task with a practice and an experimental phase","yes","NAP_GER_AA_4blocks_noglides.osexp","/Users/aviadalbert/Documents/Academisch/UoC/Dissertation/Experiment/OpenSesame/NAP-FC/NAP_GER_AA_4blocks_noglides","yes","no","sans","no","20","no","black","no","Weiter","yes","768","legacy","47","9","0","/Users/aviadalbert/Documents/Academisch/UoC/Dissertation/Experiment/OpenSesame/NAP-FC/NAP_GER_AA_4blocks_noglides/subject-28.csv","xpyriment","Jazzy James","3.1.9","yes","yes","59a800d99ad5a1025d81bb03","59a801616c613b0251691de0","no","no","0","f","f","space","NA","space","space","f","1928","4821","22663","NA","43046","7838","1928","2","legacy","1024","1","44100","-16","experiment","fnal","2","0","1","0","1","eng spanish arabic","28","","even","378321","355139","NA","NA","383143","378318","NA","1796","377856","1797","1796","270631","313681","520991","519486","522921","324561","321798","355139","NA","199631","251750","353481","321584","378321","321802","NA","520991","520991","NA","NA","519482","NAP perception","36","54205","48","yes","1024"
"75.5102040816","yes","75.5102040816","1126.30612245","1126.30612245","white","no","xpyriment","Ich habe die obigen Informationen gelesen und verstanden.","legacy","legacy","0","uniform","1","0","0","undefined","undefined","1","f","2","1","NA","0","1","0","0","0","0","0","0","0","0","58","58","58","0","0","0","NA","0","0","2","0","0","0","2","58","58","58","58","58","Fri Oct 27 09:51:57 2017","Forced-choice identification task with a practice and an experimental phase","yes","NAP_GER_AA_4blocks_noglides.osexp","/Users/aviadalbert/Documents/Academisch/UoC/Dissertation/Experiment/OpenSesame/NAP-FC/NAP_GER_AA_4blocks_noglides","yes","no","sans","no","20","no","black","no","Weiter","yes","768","legacy","48","9","0","/Users/aviadalbert/Documents/Academisch/UoC/Dissertation/Experiment/OpenSesame/NAP-FC/NAP_GER_AA_4blocks_noglides/subject-28.csv","xpyriment","Jazzy James","3.1.9","yes","yes","59a800d99ad5a1025d81bb03","59a801616c613b0251691de0","no","no","0","f","f","space","NA","space","space","f","984","4821","22663","NA","43046","7838","984","2","legacy","1024","1","44100","-16","experiment","sfal","2","0","1","0","1","eng spanish arabic","28","","even","378321","355139","NA","NA","383143","378318","NA","1796","377856","1797","1796","270631","313681","524695","523192","525681","324561","321798","355139","NA","199631","251750","353481","321584","378321","321802","NA","524695","524695","NA","NA","523188","NAP perception","37","55189","49","yes","1024"
"74","yes","74","1132.6","1132.6","white","no","xpyriment","Ich habe die obigen Informationen gelesen und verstanden.","legacy","legacy","0","uniform","0","0","0","undefined","undefined","0","f","2","1","NA","0","1","0","0","0","0","0","0","0","0","59","59","59","0","0","0","NA","0","0","2","0","0","0","2","59","59","59","59","59","Fri Oct 27 09:51:57 2017","Forced-choice identification task with a practice and an experimental phase","yes","NAP_GER_AA_4blocks_noglides.osexp","/Users/aviadalbert/Documents/Academisch/UoC/Dissertation/Experiment/OpenSesame/NAP-FC/NAP_GER_AA_4blocks_noglides","yes","no","sans","no","20","no","black","no","Weiter","yes","768","legacy","49","9","0","/Users/aviadalbert/Documents/Academisch/UoC/Dissertation/Experiment/OpenSesame/NAP-FC/NAP_GER_AA_4blocks_noglides/subject-28.csv","xpyriment","Jazzy James","3.1.9","yes","yes","59a800d99ad5a1025d81bb03","59a801616c613b0251691de0","no","no","0","j","f","space","NA","space","space","j","1441","4821","22663","NA","43046","7838","1441","2","legacy","1024","1","44100","-16","experiment","lfal","2","0","1","0","1","eng spanish arabic","28","","even","378321","355139","NA","NA","383143","378318","NA","1796","377856","1797","1796","270631","313681","527471","525967","528914","324561","321798","355139","NA","199631","251750","353481","321584","378321","321802","NA","527471","527471","NA","NA","525963","NAP perception","37","56630","50","yes","1024"
"74.5098039216","yes","74.5098039216","1141.54901961","1141.54901961","white","no","xpyriment","Ich habe die obigen Informationen gelesen und verstanden.","legacy","legacy","0","uniform","1","0","0","undefined","undefined","1","f","2","1","NA","0","1","0","0","0","0","0","0","0","0","60","60","60","0","0","0","NA","0","0","2","0","0","0","2","60","60","60","60","60","Fri Oct 27 09:51:57 2017","Forced-choice identification task with a practice and an experimental phase","yes","NAP_GER_AA_4blocks_noglides.osexp","/Users/aviadalbert/Documents/Academisch/UoC/Dissertation/Experiment/OpenSesame/NAP-FC/NAP_GER_AA_4blocks_noglides","yes","no","sans","no","20","no","black","no","Weiter","yes","768","legacy","50","9","0","/Users/aviadalbert/Documents/Academisch/UoC/Dissertation/Experiment/OpenSesame/NAP-FC/NAP_GER_AA_4blocks_noglides/subject-28.csv","xpyriment","Jazzy James","3.1.9","yes","yes","59a800d99ad5a1025d81bb03","59a801616c613b0251691de0","no","no","0","f","f","space","NA","space","space","f","1589","4821","22663","NA","43046","7838","1589","2","legacy","1024","1","44100","-16","experiment","ftal","2","0","1","0","1","eng spanish arabic","28","","even","378321","355139","NA","NA","383143","378318","NA","1796","377856","1797","1796","270631","313681","530692","529185","532283","324561","321798","355139","NA","199631","251750","353481","321584","378321","321802","NA","530691","530691","NA","NA","529181","NAP perception","38","58219","51","yes","1024"
"73.0769230769","yes","73.0769230769","1138.26923077","1138.26923077","white","no","xpyriment","Ich habe die obigen Informationen gelesen und verstanden.","legacy","legacy","0","uniform","0","0","0","undefined","undefined","0","f","2","1","NA","0","1","0","0","0","0","0","0","0","0","61","61","61","0","0","0","NA","0","0","2","0","0","0","2","61","61","61","61","61","Fri Oct 27 09:51:57 2017","Forced-choice identification task with a practice and an experimental phase","yes","NAP_GER_AA_4blocks_noglides.osexp","/Users/aviadalbert/Documents/Academisch/UoC/Dissertation/Experiment/OpenSesame/NAP-FC/NAP_GER_AA_4blocks_noglides","yes","no","sans","no","20","no","black","no","Weiter","yes","768","legacy","51","9","0","/Users/aviadalbert/Documents/Academisch/UoC/Dissertation/Experiment/OpenSesame/NAP-FC/NAP_GER_AA_4blocks_noglides/subject-28.csv","xpyriment","Jazzy James","3.1.9","yes","yes","59a800d99ad5a1025d81bb03","59a801616c613b0251691de0","no","no","0","j","f","space","NA","space","space","j","971","4821","22663","NA","43046","7838","971","2","legacy","1024","1","44100","-16","experiment","mnal","2","0","1","0","1","eng spanish arabic","28","","even","378321","355139","NA","NA","383143","378318","NA","1796","377856","1797","1796","270631","313681","534071","532563","535044","324561","321798","355139","NA","199631","251750","353481","321584","378321","321802","NA","534071","534071","NA","NA","532559","NAP perception","38","59190","52","yes","1024"
"73.5849056604","yes","73.5849056604","1134.64150943","1134.64150943","white","no","xpyriment","Ich habe die obigen Informationen gelesen und verstanden.","legacy","legacy","0","uniform","1","0","0","undefined","undefined","1","j","2","1","NA","0","1","0","0","0","0","0","0","0","0","62","62","62","0","0","0","NA","0","0","2","0","0","0","2","62","62","62","62","62","Fri Oct 27 09:51:57 2017","Forced-choice identification task with a practice and an experimental phase","yes","NAP_GER_AA_4blocks_noglides.osexp","/Users/aviadalbert/Documents/Academisch/UoC/Dissertation/Experiment/OpenSesame/NAP-FC/NAP_GER_AA_4blocks_noglides","yes","no","sans","no","20","no","black","no","Weiter","yes","768","legacy","52","9","0","/Users/aviadalbert/Documents/Academisch/UoC/Dissertation/Experiment/OpenSesame/NAP-FC/NAP_GER_AA_4blocks_noglides/subject-28.csv","xpyriment","Jazzy James","3.1.9","yes","yes","59a800d99ad5a1025d81bb03","59a801616c613b0251691de0","no","no","0","j","f","space","NA","space","space","j","946","4821","22663","NA","43046","7838","946","2","legacy","1024","1","44100","-16","experiment","metal","2","0","1","0","1","eng spanish arabic","28","","even","378321","355139","NA","NA","383143","378318","NA","1796","377856","1797","1796","270631","313681","536815","535312","537762","324561","321798","355139","NA","199631","251750","353481","321584","378321","321802","NA","536815","536815","NA","NA","535309","NAP perception","39","60136","53","yes","1024"
"74.0740740741","yes","74.0740740741","1130.05555556","1130.05555556","white","no","xpyriment","Ich habe die obigen Informationen gelesen und verstanden.","legacy","legacy","0","uniform","1","0","0","undefined","undefined","1","f","2","1","NA","0","1","0","0","0","0","0","0","0","0","63","63","63","0","0","0","NA","0","0","2","0","0","0","2","63","63","63","63","63","Fri Oct 27 09:51:57 2017","Forced-choice identification task with a practice and an experimental phase","yes","NAP_GER_AA_4blocks_noglides.osexp","/Users/aviadalbert/Documents/Academisch/UoC/Dissertation/Experiment/OpenSesame/NAP-FC/NAP_GER_AA_4blocks_noglides","yes","no","sans","no","20","no","black","no","Weiter","yes","768","legacy","53","9","0","/Users/aviadalbert/Documents/Academisch/UoC/Dissertation/Experiment/OpenSesame/NAP-FC/NAP_GER_AA_4blocks_noglides/subject-28.csv","xpyriment","Jazzy James","3.1.9","yes","yes","59a800d99ad5a1025d81bb03","59a801616c613b0251691de0","no","no","0","f","f","space","NA","space","space","f","887","4821","22663","NA","43046","7838","887","2","legacy","1024","1","44100","-16","experiment","ʃmal","2","0","1","0","1","eng spanish arabic","28","","even","378321","355139","NA","NA","383143","378318","NA","1796","377856","1797","1796","270631","313681","539552","538049","540440","324561","321798","355139","NA","199631","251750","353481","321584","378321","321802","NA","539552","539552","NA","NA","538044","NAP perception","40","61023","54","yes","1024"
"74.5454545455","yes","74.5454545455","1122.83636364","1122.83636364","white","no","xpyriment","Ich habe die obigen Informationen gelesen und verstanden.","legacy","legacy","0","uniform","1","0","0","undefined","undefined","1","f","2","1","NA","0","1","0","0","0","0","0","0","0","0","64","64","64","0","0","0","NA","0","0","2","0","0","0","2","64","64","64","64","64","Fri Oct 27 09:51:57 2017","Forced-choice identification task with a practice and an experimental phase","yes","NAP_GER_AA_4blocks_noglides.osexp","/Users/aviadalbert/Documents/Academisch/UoC/Dissertation/Experiment/OpenSesame/NAP-FC/NAP_GER_AA_4blocks_noglides","yes","no","sans","no","20","no","black","no","Weiter","yes","768","legacy","54","9","0","/Users/aviadalbert/Documents/Academisch/UoC/Dissertation/Experiment/OpenSesame/NAP-FC/NAP_GER_AA_4blocks_noglides/subject-28.csv","xpyriment","Jazzy James","3.1.9","yes","yes","59a800d99ad5a1025d81bb03","59a801616c613b0251691de0","no","no","0","f","f","space","NA","space","space","f","733","4821","22663","NA","43046","7838","733","2","legacy","1024","1","44100","-16","experiment","ʃpal","2","0","1","0","1","eng spanish arabic","28","","even","378321","355139","NA","NA","383143","378318","NA","1796","377856","1797","1796","270631","313681","542222","540716","542956","324561","321798","355139","NA","199631","251750","353481","321584","378321","321802","NA","542222","542222","NA","NA","540712","NAP perception","41","61756","55","yes","1024"
"73.2142857143","yes","73.2142857143","1119.17857143","1119.17857143","white","no","xpyriment","Ich habe die obigen Informationen gelesen und verstanden.","legacy","legacy","0","uniform","0","0","0","undefined","undefined","0","f","2","1","NA","0","1","0","0","0","0","0","0","0","0","65","65","65","0","0","0","NA","0","0","2","0","0","0","2","65","65","65","65","65","Fri Oct 27 09:51:57 2017","Forced-choice identification task with a practice and an experimental phase","yes","NAP_GER_AA_4blocks_noglides.osexp","/Users/aviadalbert/Documents/Academisch/UoC/Dissertation/Experiment/OpenSesame/NAP-FC/NAP_GER_AA_4blocks_noglides","yes","no","sans","no","20","no","black","no","Weiter","yes","768","legacy","55","9","0","/Users/aviadalbert/Documents/Academisch/UoC/Dissertation/Experiment/OpenSesame/NAP-FC/NAP_GER_AA_4blocks_noglides/subject-28.csv","xpyriment","Jazzy James","3.1.9","yes","yes","59a800d99ad5a1025d81bb03","59a801616c613b0251691de0","no","no","0","j","f","space","NA","space","space","j","918","4821","22663","NA","43046","7838","918","2","legacy","1024","1","44100","-16","experiment","lfal","2","0","1","0","1","eng spanish arabic","28","","even","378321","355139","NA","NA","383143","378318","NA","1796","377856","1797","1796","270631","313681","544731","543227","545650","324561","321798","355139","NA","199631","251750","353481","321584","378321","321802","NA","544731","544731","NA","NA","543223","NAP perception","41","62674","56","yes","1024"
