"acc","accept_status","accuracy","average_response_time","avg_rt","background","bidi","canvas_backend","checkbox_status","clock_backend","color_backend","compensation","coordinates","correct","correct_block_activation","correct_block_exit","correct_instructions_1","correct_instructions_2","correct_keyboard_response","correct_response","count_block_activation","count_block_exit","count_block_info_QA","count_cont_e_block_message","count_e_block_loop","count_e_block_sequence","count_end_of_experiment","count_experiment","count_experimental_loop","count_form_consent","count_info_forms","count_instructions_1","count_instructions_2","count_keyboard_response","count_listen_message","count_logger","count_p_block_loop","count_p_block_sequence","count_p_feedback","count_pause_feedback","count_personal_details_form_1","count_personal_details_form_2","count_post_loop_blank","count_practice_loop","count_pre_e_block_message","count_pre_p_block_message","count_reset_feedback","count_stimulus_image","count_stimulus_sound","count_timeout_message","count_timeout_sound","count_trial_sequence","datetime","description","disable_garbage_collection","experiment_file","experiment_path","expyriment_opengl","font_bold","font_family","font_italic","font_size","font_underline","foreground","form_clicks","form_response","fullscreen","height","keyboard_backend","live_row","live_row_p_block_loop","live_row_practice_loop","logfile","mouse_backend","opensesame_codename","opensesame_version","osf_always_upload_data","osf_always_upload_experiment","osf_datanode_id","osf_id","practice","pygame_doublebuf","repeat_cycle","response","response_block_activation","response_block_exit","response_block_info_QA","response_instructions_1","response_instructions_2","response_keyboard_response","response_time","response_time_block_activation","response_time_block_exit","response_time_block_info_QA","response_time_instructions_1","response_time_instructions_2","response_time_keyboard_response","round_decimals","sampler_backend","sound_buf_size","sound_channels","sound_freq","sound_sample_size","start","stimulus","subject_age","subject_education","subject_gender","subject_german_native","subject_handedness","subject_language_other","subject_nr","subject_other_native_lang","subject_parity","time_block_activation","time_block_exit","time_block_info_QA","time_cont_e_block_message","time_e_block_loop","time_e_block_sequence","time_end_of_experiment","time_experiment","time_experimental_loop","time_form_consent","time_info_forms","time_instructions_1","time_instructions_2","time_keyboard_response","time_listen_message","time_logger","time_p_block_loop","time_p_block_sequence","time_p_feedback","time_pause_feedback","time_personal_details_form_1","time_personal_details_form_2","time_post_loop_blank","time_practice_loop","time_pre_e_block_message","time_pre_p_block_message","time_reset_feedback","time_stimulus_image","time_stimulus_sound","time_timeout_message","time_timeout_sound","time_trial_sequence","title","total_correct","total_response_time","total_responses","uniform_coordinates","width"
"0","yes","0","3000","3000","white","no","xpyriment","Ich habe die obigen Informationen gelesen und verstanden.","legacy","legacy","0","uniform","0","0","NA","undefined","undefined","0","f","0","0","NA","NA","NA","NA","NA","0","0","0","0","0","0","0","0","0","0","0","NA","NA","0","0","0","0","NA","0","0","0","0","0","0","0","Sat Nov 11 20:10:35 2017","Forced-choice identification task with a practice and an experimental phase","yes","NAP_GER_AA_4blocks_noglides.osexp","/Users/aviadalbert/Documents/Academisch/UoC/Dissertation/Experiment/OpenSesame/NAP-FC/NAP_GER_AA_4blocks_noglides","yes","no","sans","no","20","no","black","no","Weiter","yes","768","legacy","0","0","0","/Users/aviadalbert/Documents/Academisch/UoC/Dissertation/Experiment/OpenSesame/NAP-FC/NAP_GER_AA_4blocks_noglides/subject-47.csv","xpyriment","Jazzy James","3.1.9","yes","yes","59a800d99ad5a1025d81bb03","59a801616c613b0251691de0","yes","no","0","None","f","NA","NA","space","space","None","3000","2027","NA","NA","23471","23260","3000","2","legacy","1024","1","44100","-16","experiment","flal","2","1","1","0","1","Englisch","47","","odd","3160099","NA","NA","NA","NA","NA","NA","3010895","NA","3010895","3010895","3113068","3136543","3163827","3162322","3167830","3162126","3160096","NA","NA","3062126","3098805","NA","3159870","NA","3160099","NA","3163827","3163827","3166830","3166827","3162319","NAP perception","0","3000","1","yes","1024"
"50","yes","50","2041","2041","white","no","xpyriment","Ich habe die obigen Informationen gelesen und verstanden.","legacy","legacy","0","uniform","1","0","NA","undefined","undefined","1","j","0","0","NA","NA","NA","NA","NA","0","0","0","0","0","0","1","1","1","0","0","NA","NA","0","0","0","0","NA","0","0","1","1","1","1","1","Sat Nov 11 20:10:35 2017","Forced-choice identification task with a practice and an experimental phase","yes","NAP_GER_AA_4blocks_noglides.osexp","/Users/aviadalbert/Documents/Academisch/UoC/Dissertation/Experiment/OpenSesame/NAP-FC/NAP_GER_AA_4blocks_noglides","yes","no","sans","no","20","no","black","no","Weiter","yes","768","legacy","1","1","0","/Users/aviadalbert/Documents/Academisch/UoC/Dissertation/Experiment/OpenSesame/NAP-FC/NAP_GER_AA_4blocks_noglides/subject-47.csv","xpyriment","Jazzy James","3.1.9","yes","yes","59a800d99ad5a1025d81bb03","59a801616c613b0251691de0","yes","no","0","j","f","NA","NA","space","space","j","1082","2027","NA","NA","23471","23260","1082","2","legacy","1024","1","44100","-16","experiment","lepal","2","1","1","0","1","Englisch","47","","odd","3160099","NA","NA","NA","NA","NA","NA","3010895","NA","3010895","3010895","3113068","3136543","3169615","3168110","3170698","3162126","3160096","NA","NA","3062126","3098805","NA","3159870","NA","3160099","NA","3169615","3169615","3166830","3166827","3168105","NAP perception","1","4082","2","yes","1024"
"66.6666666667","yes","66.6666666667","1720","1720","white","no","xpyriment","Ich habe die obigen Informationen gelesen und verstanden.","legacy","legacy","0","uniform","1","0","NA","undefined","undefined","1","j","0","0","NA","NA","NA","NA","NA","0","0","0","0","0","0","2","2","2","0","0","NA","NA","0","0","0","0","NA","0","0","2","2","2","2","2","Sat Nov 11 20:10:35 2017","Forced-choice identification task with a practice and an experimental phase","yes","NAP_GER_AA_4blocks_noglides.osexp","/Users/aviadalbert/Documents/Academisch/UoC/Dissertation/Experiment/OpenSesame/NAP-FC/NAP_GER_AA_4blocks_noglides","yes","no","sans","no","20","no","black","no","Weiter","yes","768","legacy","2","2","0","/Users/aviadalbert/Documents/Academisch/UoC/Dissertation/Experiment/OpenSesame/NAP-FC/NAP_GER_AA_4blocks_noglides/subject-47.csv","xpyriment","Jazzy James","3.1.9","yes","yes","59a800d99ad5a1025d81bb03","59a801616c613b0251691de0","yes","no","0","j","f","NA","NA","space","space","j","1078","2027","NA","NA","23471","23260","1078","2","legacy","1024","1","44100","-16","experiment","emtal","2","1","1","0","1","Englisch","47","","odd","3160099","NA","NA","NA","NA","NA","NA","3010895","NA","3010895","3010895","3113068","3136543","3172475","3170971","3173554","3162126","3160096","NA","NA","3062126","3098805","NA","3159870","NA","3160099","NA","3172474","3172475","3166830","3166827","3170967","NAP perception","2","5160","3","yes","1024"
"75","yes","75","1514.75","1514.75","white","no","xpyriment","Ich habe die obigen Informationen gelesen und verstanden.","legacy","legacy","0","uniform","1","0","NA","undefined","undefined","1","f","0","0","NA","NA","NA","NA","NA","0","0","0","0","0","0","3","3","3","0","0","NA","NA","0","0","0","0","NA","0","0","3","3","3","3","3","Sat Nov 11 20:10:35 2017","Forced-choice identification task with a practice and an experimental phase","yes","NAP_GER_AA_4blocks_noglides.osexp","/Users/aviadalbert/Documents/Academisch/UoC/Dissertation/Experiment/OpenSesame/NAP-FC/NAP_GER_AA_4blocks_noglides","yes","no","sans","no","20","no","black","no","Weiter","yes","768","legacy","3","3","0","/Users/aviadalbert/Documents/Academisch/UoC/Dissertation/Experiment/OpenSesame/NAP-FC/NAP_GER_AA_4blocks_noglides/subject-47.csv","xpyriment","Jazzy James","3.1.9","yes","yes","59a800d99ad5a1025d81bb03","59a801616c613b0251691de0","yes","no","0","f","f","NA","NA","space","space","f","899","2027","NA","NA","23471","23260","899","2","legacy","1024","1","44100","-16","experiment","ﾊパal","2","1","1","0","1","Englisch","47","","odd","3160099","NA","NA","NA","NA","NA","NA","3010895","NA","3010895","3010895","3113068","3136543","3175322","3173819","3176222","3162126","3160096","NA","NA","3062126","3098805","NA","3159870","NA","3160099","NA","3175322","3175322","3166830","3166827","3173815","NAP perception","3","6059","4","yes","1024"
"80","yes","80","1406.2","1406.2","white","no","xpyriment","Ich habe die obigen Informationen gelesen und verstanden.","legacy","legacy","0","uniform","1","0","NA","undefined","undefined","1","j","0","0","NA","NA","NA","NA","NA","0","0","0","0","0","0","4","4","4","0","0","NA","NA","0","0","0","0","NA","0","0","4","4","4","4","4","Sat Nov 11 20:10:35 2017","Forced-choice identification task with a practice and an experimental phase","yes","NAP_GER_AA_4blocks_noglides.osexp","/Users/aviadalbert/Documents/Academisch/UoC/Dissertation/Experiment/OpenSesame/NAP-FC/NAP_GER_AA_4blocks_noglides","yes","no","sans","no","20","no","black","no","Weiter","yes","768","legacy","4","4","0","/Users/aviadalbert/Documents/Academisch/UoC/Dissertation/Experiment/OpenSesame/NAP-FC/NAP_GER_AA_4blocks_noglides/subject-47.csv","xpyriment","Jazzy James","3.1.9","yes","yes","59a800d99ad5a1025d81bb03","59a801616c613b0251691de0","yes","no","0","j","f","NA","NA","space","space","j","972","2027","NA","NA","23471","23260","972","2","legacy","1024","1","44100","-16","experiment","nefal","2","1","1","0","1","Englisch","47","","odd","3160099","NA","NA","NA","NA","NA","NA","3010895","NA","3010895","3010895","3113068","3136543","3177998","3176491","3178971","3162126","3160096","NA","NA","3062126","3098805","NA","3159870","NA","3160099","NA","3177998","3177998","3166830","3166827","3176487","NAP perception","4","7031","5","yes","1024"
"83.3333333333","yes","83.3333333333","1303.5","1303.5","white","no","xpyriment","Ich habe die obigen Informationen gelesen und verstanden.","legacy","legacy","0","uniform","1","0","NA","undefined","undefined","1","f","0","0","NA","NA","NA","NA","NA","0","0","0","0","0","0","5","5","5","0","0","NA","NA","0","0","0","0","NA","0","0","5","5","5","5","5","Sat Nov 11 20:10:35 2017","Forced-choice identification task with a practice and an experimental phase","yes","NAP_GER_AA_4blocks_noglides.osexp","/Users/aviadalbert/Documents/Academisch/UoC/Dissertation/Experiment/OpenSesame/NAP-FC/NAP_GER_AA_4blocks_noglides","yes","no","sans","no","20","no","black","no","Weiter","yes","768","legacy","5","5","0","/Users/aviadalbert/Documents/Academisch/UoC/Dissertation/Experiment/OpenSesame/NAP-FC/NAP_GER_AA_4blocks_noglides/subject-47.csv","xpyriment","Jazzy James","3.1.9","yes","yes","59a800d99ad5a1025d81bb03","59a801616c613b0251691de0","yes","no","0","f","f","NA","NA","space","space","f","790","2027","NA","NA","23471","23260","790","2","legacy","1024","1","44100","-16","experiment","sfal","2","1","1","0","1","Englisch","47","","odd","3160099","NA","NA","NA","NA","NA","NA","3010895","NA","3010895","3010895","3113068","3136543","3180763","3179259","3181554","3162126","3160096","NA","NA","3062126","3098805","NA","3159870","NA","3160099","NA","3180763","3180763","3166830","3166827","3179255","NAP perception","5","7821","6","yes","1024"
"71.4285714286","yes","71.4285714286","1255.57142857","1255.57142857","white","no","xpyriment","Ich habe die obigen Informationen gelesen und verstanden.","legacy","legacy","0","uniform","0","0","NA","undefined","undefined","0","f","0","0","NA","NA","NA","NA","NA","0","0","0","0","0","0","6","6","6","0","0","NA","NA","0","0","0","0","NA","0","0","6","6","6","6","6","Sat Nov 11 20:10:35 2017","Forced-choice identification task with a practice and an experimental phase","yes","NAP_GER_AA_4blocks_noglides.osexp","/Users/aviadalbert/Documents/Academisch/UoC/Dissertation/Experiment/OpenSesame/NAP-FC/NAP_GER_AA_4blocks_noglides","yes","no","sans","no","20","no","black","no","Weiter","yes","768","legacy","6","6","0","/Users/aviadalbert/Documents/Academisch/UoC/Dissertation/Experiment/OpenSesame/NAP-FC/NAP_GER_AA_4blocks_noglides/subject-47.csv","xpyriment","Jazzy James","3.1.9","yes","yes","59a800d99ad5a1025d81bb03","59a801616c613b0251691de0","yes","no","0","j","f","NA","NA","space","space","j","968","2027","NA","NA","23471","23260","968","2","legacy","1024","1","44100","-16","experiment","zmal","2","1","1","0","1","Englisch","47","","odd","3160099","NA","NA","NA","NA","NA","NA","3010895","NA","3010895","3010895","3113068","3136543","3183336","3181830","3184305","3162126","3160096","NA","NA","3062126","3098805","NA","3159870","NA","3160099","NA","3183336","3183336","3166830","3166827","3181826","NAP perception","5","8789","7","yes","1024"
"75","yes","75","1231.75","1231.75","white","no","xpyriment","Ich habe die obigen Informationen gelesen und verstanden.","legacy","legacy","0","uniform","1","0","NA","undefined","undefined","1","j","0","0","NA","NA","NA","NA","NA","0","0","0","0","0","0","7","7","7","0","0","NA","NA","0","0","0","0","NA","0","0","7","7","7","7","7","Sat Nov 11 20:10:35 2017","Forced-choice identification task with a practice and an experimental phase","yes","NAP_GER_AA_4blocks_noglides.osexp","/Users/aviadalbert/Documents/Academisch/UoC/Dissertation/Experiment/OpenSesame/NAP-FC/NAP_GER_AA_4blocks_noglides","yes","no","sans","no","20","no","black","no","Weiter","yes","768","legacy","7","7","0","/Users/aviadalbert/Documents/Academisch/UoC/Dissertation/Experiment/OpenSesame/NAP-FC/NAP_GER_AA_4blocks_noglides/subject-47.csv","xpyriment","Jazzy James","3.1.9","yes","yes","59a800d99ad5a1025d81bb03","59a801616c613b0251691de0","yes","no","0","j","f","NA","NA","space","space","j","1065","2027","NA","NA","23471","23260","1065","2","legacy","1024","1","44100","-16","experiment","mesal","2","1","1","0","1","Englisch","47","","odd","3160099","NA","NA","NA","NA","NA","NA","3010895","NA","3010895","3010895","3113068","3136543","3186079","3184574","3187145","3162126","3160096","NA","NA","3062126","3098805","NA","3159870","NA","3160099","NA","3186079","3186079","3166830","3166827","3184570","NAP perception","6","9854","8","yes","1024"
"77.7777777778","yes","77.7777777778","1199.22222222","1199.22222222","white","no","xpyriment","Ich habe die obigen Informationen gelesen und verstanden.","legacy","legacy","0","uniform","1","0","NA","undefined","undefined","1","j","0","0","NA","NA","NA","NA","NA","0","0","0","0","0","0","8","8","8","0","0","NA","NA","0","0","0","0","NA","0","0","8","8","8","8","8","Sat Nov 11 20:10:35 2017","Forced-choice identification task with a practice and an experimental phase","yes","NAP_GER_AA_4blocks_noglides.osexp","/Users/aviadalbert/Documents/Academisch/UoC/Dissertation/Experiment/OpenSesame/NAP-FC/NAP_GER_AA_4blocks_noglides","yes","no","sans","no","20","no","black","no","Weiter","yes","768","legacy","8","8","0","/Users/aviadalbert/Documents/Academisch/UoC/Dissertation/Experiment/OpenSesame/NAP-FC/NAP_GER_AA_4blocks_noglides/subject-47.csv","xpyriment","Jazzy James","3.1.9","yes","yes","59a800d99ad5a1025d81bb03","59a801616c613b0251691de0","yes","no","0","j","f","NA","NA","space","space","j","939","2027","NA","NA","23471","23260","939","2","legacy","1024","1","44100","-16","experiment","enval","2","1","1","0","1","Englisch","47","","odd","3160099","NA","NA","NA","NA","NA","NA","3010895","NA","3010895","3010895","3113068","3136543","3188916","3187411","3189856","3162126","3160096","NA","NA","3062126","3098805","NA","3159870","NA","3160099","NA","3188915","3188915","3166830","3166827","3187407","NAP perception","7","10793","9","yes","1024"
"80","yes","80","1202.6","1202.6","white","no","xpyriment","Ich habe die obigen Informationen gelesen und verstanden.","legacy","legacy","0","uniform","1","0","NA","undefined","undefined","1","f","0","0","NA","NA","NA","NA","NA","0","0","0","0","0","0","9","9","9","0","0","NA","NA","0","0","0","0","NA","0","0","9","9","9","9","9","Sat Nov 11 20:10:35 2017","Forced-choice identification task with a practice and an experimental phase","yes","NAP_GER_AA_4blocks_noglides.osexp","/Users/aviadalbert/Documents/Academisch/UoC/Dissertation/Experiment/OpenSesame/NAP-FC/NAP_GER_AA_4blocks_noglides","yes","no","sans","no","20","no","black","no","Weiter","yes","768","legacy","9","9","0","/Users/aviadalbert/Documents/Academisch/UoC/Dissertation/Experiment/OpenSesame/NAP-FC/NAP_GER_AA_4blocks_noglides/subject-47.csv","xpyriment","Jazzy James","3.1.9","yes","yes","59a800d99ad5a1025d81bb03","59a801616c613b0251691de0","yes","no","0","f","f","NA","NA","space","space","f","1233","2027","NA","NA","23471","23260","1233","2","legacy","1024","1","44100","-16","experiment","vlal","2","1","1","0","1","Englisch","47","","odd","3160099","NA","NA","NA","NA","NA","NA","3010895","NA","3010895","3010895","3113068","3136543","3191629","3190125","3192863","3162126","3160096","NA","NA","3062126","3098805","NA","3159870","NA","3160099","NA","3191628","3191629","3166830","3166827","3190121","NAP perception","8","12026","10","yes","1024"
"100","yes","100","1366","1366","white","no","xpyriment","Ich habe die obigen Informationen gelesen und verstanden.","legacy","legacy","0","uniform","1","0","0","undefined","undefined","1","f","2","1","NA","0","1","0","0","0","0","0","0","0","0","10","10","10","0","0","0","NA","0","0","2","0","0","0","2","10","10","10","10","10","Sat Nov 11 20:10:35 2017","Forced-choice identification task with a practice and an experimental phase","yes","NAP_GER_AA_4blocks_noglides.osexp","/Users/aviadalbert/Documents/Academisch/UoC/Dissertation/Experiment/OpenSesame/NAP-FC/NAP_GER_AA_4blocks_noglides","yes","no","sans","no","20","no","black","no","Weiter","yes","768","legacy","0","9","0","/Users/aviadalbert/Documents/Academisch/UoC/Dissertation/Experiment/OpenSesame/NAP-FC/NAP_GER_AA_4blocks_noglides/subject-47.csv","xpyriment","Jazzy James","3.1.9","yes","yes","59a800d99ad5a1025d81bb03","59a801616c613b0251691de0","no","no","0","f","f","space","NA","space","space","f","1366","2037","42762","NA","23471","23260","1366","2","legacy","1024","1","44100","-16","experiment","ﾊパal","2","1","1","0","1","Englisch","47","","odd","3237887","3194578","NA","NA","3239925","3237884","NA","3010895","3237397","3010895","3010895","3113068","3136543","3241636","3240130","3243003","3162126","3160096","3194578","NA","3062126","3098805","3192928","3159870","3237887","3160099","NA","3241636","3241636","3166830","3166827","3240126","NAP perception","1","1366","1","yes","1024"
"100","yes","100","1057.5","1057.5","white","no","xpyriment","Ich habe die obigen Informationen gelesen und verstanden.","legacy","legacy","0","uniform","1","0","0","undefined","undefined","1","j","2","1","NA","0","1","0","0","0","0","0","0","0","0","11","11","11","0","0","0","NA","0","0","2","0","0","0","2","11","11","11","11","11","Sat Nov 11 20:10:35 2017","Forced-choice identification task with a practice and an experimental phase","yes","NAP_GER_AA_4blocks_noglides.osexp","/Users/aviadalbert/Documents/Academisch/UoC/Dissertation/Experiment/OpenSesame/NAP-FC/NAP_GER_AA_4blocks_noglides","yes","no","sans","no","20","no","black","no","Weiter","yes","768","legacy","1","9","0","/Users/aviadalbert/Documents/Academisch/UoC/Dissertation/Experiment/OpenSesame/NAP-FC/NAP_GER_AA_4blocks_noglides/subject-47.csv","xpyriment","Jazzy James","3.1.9","yes","yes","59a800d99ad5a1025d81bb03","59a801616c613b0251691de0","no","no","0","j","f","space","NA","space","space","j","749","2037","42762","NA","23471","23260","749","2","legacy","1024","1","44100","-16","experiment","ﾊテpal","2","1","1","0","1","Englisch","47","","odd","3237887","3194578","NA","NA","3239925","3237884","NA","3010895","3237397","3010895","3010895","3113068","3136543","3244806","3243300","3245557","3162126","3160096","3194578","NA","3062126","3098805","3192928","3159870","3237887","3160099","NA","3244806","3244806","3166830","3166827","3243296","NAP perception","2","2115","2","yes","1024"
"100","yes","100","955.666666667","955.666666667","white","no","xpyriment","Ich habe die obigen Informationen gelesen und verstanden.","legacy","legacy","0","uniform","1","0","0","undefined","undefined","1","f","2","1","NA","0","1","0","0","0","0","0","0","0","0","12","12","12","0","0","0","NA","0","0","2","0","0","0","2","12","12","12","12","12","Sat Nov 11 20:10:35 2017","Forced-choice identification task with a practice and an experimental phase","yes","NAP_GER_AA_4blocks_noglides.osexp","/Users/aviadalbert/Documents/Academisch/UoC/Dissertation/Experiment/OpenSesame/NAP-FC/NAP_GER_AA_4blocks_noglides","yes","no","sans","no","20","no","black","no","Weiter","yes","768","legacy","2","9","0","/Users/aviadalbert/Documents/Academisch/UoC/Dissertation/Experiment/OpenSesame/NAP-FC/NAP_GER_AA_4blocks_noglides/subject-47.csv","xpyriment","Jazzy James","3.1.9","yes","yes","59a800d99ad5a1025d81bb03","59a801616c613b0251691de0","no","no","0","f","f","space","NA","space","space","f","752","2037","42762","NA","23471","23260","752","2","legacy","1024","1","44100","-16","experiment","smal","2","1","1","0","1","Englisch","47","","odd","3237887","3194578","NA","NA","3239925","3237884","NA","3010895","3237397","3010895","3010895","3113068","3136543","3247341","3245838","3248094","3162126","3160096","3194578","NA","3062126","3098805","3192928","3159870","3237887","3160099","NA","3247341","3247341","3166830","3166827","3245834","NAP perception","3","2867","3","yes","1024"
"100","yes","100","1059.5","1059.5","white","no","xpyriment","Ich habe die obigen Informationen gelesen und verstanden.","legacy","legacy","0","uniform","1","0","0","undefined","undefined","1","f","2","1","NA","0","1","0","0","0","0","0","0","0","0","13","13","13","0","0","0","NA","0","0","2","0","0","0","2","13","13","13","13","13","Sat Nov 11 20:10:35 2017","Forced-choice identification task with a practice and an experimental phase","yes","NAP_GER_AA_4blocks_noglides.osexp","/Users/aviadalbert/Documents/Academisch/UoC/Dissertation/Experiment/OpenSesame/NAP-FC/NAP_GER_AA_4blocks_noglides","yes","no","sans","no","20","no","black","no","Weiter","yes","768","legacy","3","9","0","/Users/aviadalbert/Documents/Academisch/UoC/Dissertation/Experiment/OpenSesame/NAP-FC/NAP_GER_AA_4blocks_noglides/subject-47.csv","xpyriment","Jazzy James","3.1.9","yes","yes","59a800d99ad5a1025d81bb03","59a801616c613b0251691de0","no","no","0","f","f","space","NA","space","space","f","1371","2037","42762","NA","23471","23260","1371","2","legacy","1024","1","44100","-16","experiment","lfal","2","1","1","0","1","Englisch","47","","odd","3237887","3194578","NA","NA","3239925","3237884","NA","3010895","3237397","3010895","3010895","3113068","3136543","3249856","3248351","3251228","3162126","3160096","3194578","NA","3062126","3098805","3192928","3159870","3237887","3160099","NA","3249856","3249856","3166830","3166827","3248347","NAP perception","4","4238","4","yes","1024"
"100","yes","100","1004.8","1004.8","white","no","xpyriment","Ich habe die obigen Informationen gelesen und verstanden.","legacy","legacy","0","uniform","1","0","0","undefined","undefined","1","j","2","1","NA","0","1","0","0","0","0","0","0","0","0","14","14","14","0","0","0","NA","0","0","2","0","0","0","2","14","14","14","14","14","Sat Nov 11 20:10:35 2017","Forced-choice identification task with a practice and an experimental phase","yes","NAP_GER_AA_4blocks_noglides.osexp","/Users/aviadalbert/Documents/Academisch/UoC/Dissertation/Experiment/OpenSesame/NAP-FC/NAP_GER_AA_4blocks_noglides","yes","no","sans","no","20","no","black","no","Weiter","yes","768","legacy","4","9","0","/Users/aviadalbert/Documents/Academisch/UoC/Dissertation/Experiment/OpenSesame/NAP-FC/NAP_GER_AA_4blocks_noglides/subject-47.csv","xpyriment","Jazzy James","3.1.9","yes","yes","59a800d99ad5a1025d81bb03","59a801616c613b0251691de0","no","no","0","j","f","space","NA","space","space","j","786","2037","42762","NA","23471","23260","786","2","legacy","1024","1","44100","-16","experiment","eflal","2","1","1","0","1","Englisch","47","","odd","3237887","3194578","NA","NA","3239925","3237884","NA","3010895","3237397","3010895","3010895","3113068","3136543","3253009","3251504","3253796","3162126","3160096","3194578","NA","3062126","3098805","3192928","3159870","3237887","3160099","NA","3253008","3253008","3166830","3166827","3251500","NAP perception","5","5024","5","yes","1024"
"100","yes","100","984.666666667","984.666666667","white","no","xpyriment","Ich habe die obigen Informationen gelesen und verstanden.","legacy","legacy","0","uniform","1","0","0","undefined","undefined","1","j","2","1","NA","0","1","0","0","0","0","0","0","0","0","15","15","15","0","0","0","NA","0","0","2","0","0","0","2","15","15","15","15","15","Sat Nov 11 20:10:35 2017","Forced-choice identification task with a practice and an experimental phase","yes","NAP_GER_AA_4blocks_noglides.osexp","/Users/aviadalbert/Documents/Academisch/UoC/Dissertation/Experiment/OpenSesame/NAP-FC/NAP_GER_AA_4blocks_noglides","yes","no","sans","no","20","no","black","no","Weiter","yes","768","legacy","5","9","0","/Users/aviadalbert/Documents/Academisch/UoC/Dissertation/Experiment/OpenSesame/NAP-FC/NAP_GER_AA_4blocks_noglides/subject-47.csv","xpyriment","Jazzy James","3.1.9","yes","yes","59a800d99ad5a1025d81bb03","59a801616c613b0251691de0","no","no","0","j","f","space","NA","space","space","j","884","2037","42762","NA","23471","23260","884","2","legacy","1024","1","44100","-16","experiment","ﾊテmal","2","1","1","0","1","Englisch","47","","odd","3237887","3194578","NA","NA","3239925","3237884","NA","3010895","3237397","3010895","3010895","3113068","3136543","3255568","3254063","3256453","3162126","3160096","3194578","NA","3062126","3098805","3192928","3159870","3237887","3160099","NA","3255567","3255568","3166830","3166827","3254059","NAP perception","6","5908","6","yes","1024"
"100","yes","100","959.571428571","959.571428571","white","no","xpyriment","Ich habe die obigen Informationen gelesen und verstanden.","legacy","legacy","0","uniform","1","0","0","undefined","undefined","1","j","2","1","NA","0","1","0","0","0","0","0","0","0","0","16","16","16","0","0","0","NA","0","0","2","0","0","0","2","16","16","16","16","16","Sat Nov 11 20:10:35 2017","Forced-choice identification task with a practice and an experimental phase","yes","NAP_GER_AA_4blocks_noglides.osexp","/Users/aviadalbert/Documents/Academisch/UoC/Dissertation/Experiment/OpenSesame/NAP-FC/NAP_GER_AA_4blocks_noglides","yes","no","sans","no","20","no","black","no","Weiter","yes","768","legacy","6","9","0","/Users/aviadalbert/Documents/Academisch/UoC/Dissertation/Experiment/OpenSesame/NAP-FC/NAP_GER_AA_4blocks_noglides/subject-47.csv","xpyriment","Jazzy James","3.1.9","yes","yes","59a800d99ad5a1025d81bb03","59a801616c613b0251691de0","no","no","0","j","f","space","NA","space","space","j","809","2037","42762","NA","23471","23260","809","2","legacy","1024","1","44100","-16","experiment","neval","2","1","1","0","1","Englisch","47","","odd","3237887","3194578","NA","NA","3239925","3237884","NA","3010895","3237397","3010895","3010895","3113068","3136543","3258231","3256728","3259042","3162126","3160096","3194578","NA","3062126","3098805","3192928","3159870","3237887","3160099","NA","3258231","3258231","3166830","3166827","3256724","NAP perception","7","6717","7","yes","1024"
"100","yes","100","998.375","998.375","white","no","xpyriment","Ich habe die obigen Informationen gelesen und verstanden.","legacy","legacy","0","uniform","1","0","0","undefined","undefined","1","f","2","1","NA","0","1","0","0","0","0","0","0","0","0","17","17","17","0","0","0","NA","0","0","2","0","0","0","2","17","17","17","17","17","Sat Nov 11 20:10:35 2017","Forced-choice identification task with a practice and an experimental phase","yes","NAP_GER_AA_4blocks_noglides.osexp","/Users/aviadalbert/Documents/Academisch/UoC/Dissertation/Experiment/OpenSesame/NAP-FC/NAP_GER_AA_4blocks_noglides","yes","no","sans","no","20","no","black","no","Weiter","yes","768","legacy","7","9","0","/Users/aviadalbert/Documents/Academisch/UoC/Dissertation/Experiment/OpenSesame/NAP-FC/NAP_GER_AA_4blocks_noglides/subject-47.csv","xpyriment","Jazzy James","3.1.9","yes","yes","59a800d99ad5a1025d81bb03","59a801616c613b0251691de0","no","no","0","f","f","space","NA","space","space","f","1270","2037","42762","NA","23471","23260","1270","2","legacy","1024","1","44100","-16","experiment","mzal","2","1","1","0","1","Englisch","47","","odd","3237887","3194578","NA","NA","3239925","3237884","NA","3010895","3237397","3010895","3010895","3113068","3136543","3260829","3259323","3262100","3162126","3160096","3194578","NA","3062126","3098805","3192928","3159870","3237887","3160099","NA","3260828","3260829","3166830","3166827","3259319","NAP perception","8","7987","8","yes","1024"
"100","yes","100","1007.44444444","1007.44444444","white","no","xpyriment","Ich habe die obigen Informationen gelesen und verstanden.","legacy","legacy","0","uniform","1","0","0","undefined","undefined","1","j","2","1","NA","0","1","0","0","0","0","0","0","0","0","18","18","18","0","0","0","NA","0","0","2","0","0","0","2","18","18","18","18","18","Sat Nov 11 20:10:35 2017","Forced-choice identification task with a practice and an experimental phase","yes","NAP_GER_AA_4blocks_noglides.osexp","/Users/aviadalbert/Documents/Academisch/UoC/Dissertation/Experiment/OpenSesame/NAP-FC/NAP_GER_AA_4blocks_noglides","yes","no","sans","no","20","no","black","no","Weiter","yes","768","legacy","8","9","0","/Users/aviadalbert/Documents/Academisch/UoC/Dissertation/Experiment/OpenSesame/NAP-FC/NAP_GER_AA_4blocks_noglides/subject-47.csv","xpyriment","Jazzy James","3.1.9","yes","yes","59a800d99ad5a1025d81bb03","59a801616c613b0251691de0","no","no","0","j","f","space","NA","space","space","j","1080","2037","42762","NA","23471","23260","1080","2","legacy","1024","1","44100","-16","experiment","elval","2","1","1","0","1","Englisch","47","","odd","3237887","3194578","NA","NA","3239925","3237884","NA","3010895","3237397","3010895","3010895","3113068","3136543","3263870","3262363","3264951","3162126","3160096","3194578","NA","3062126","3098805","3192928","3159870","3237887","3160099","NA","3263869","3263869","3166830","3166827","3262359","NAP perception","9","9067","9","yes","1024"
"100","yes","100","1014.1","1014.1","white","no","xpyriment","Ich habe die obigen Informationen gelesen und verstanden.","legacy","legacy","0","uniform","1","0","0","undefined","undefined","1","f","2","1","NA","0","1","0","0","0","0","0","0","0","0","19","19","19","0","0","0","NA","0","0","2","0","0","0","2","19","19","19","19","19","Sat Nov 11 20:10:35 2017","Forced-choice identification task with a practice and an experimental phase","yes","NAP_GER_AA_4blocks_noglides.osexp","/Users/aviadalbert/Documents/Academisch/UoC/Dissertation/Experiment/OpenSesame/NAP-FC/NAP_GER_AA_4blocks_noglides","yes","no","sans","no","20","no","black","no","Weiter","yes","768","legacy","9","9","0","/Users/aviadalbert/Documents/Academisch/UoC/Dissertation/Experiment/OpenSesame/NAP-FC/NAP_GER_AA_4blocks_noglides/subject-47.csv","xpyriment","Jazzy James","3.1.9","yes","yes","59a800d99ad5a1025d81bb03","59a801616c613b0251691de0","no","no","0","f","f","space","NA","space","space","f","1074","2037","42762","NA","23471","23260","1074","2","legacy","1024","1","44100","-16","experiment","zmal","2","1","1","0","1","Englisch","47","","odd","3237887","3194578","NA","NA","3239925","3237884","NA","3010895","3237397","3010895","3010895","3113068","3136543","3266728","3265224","3267804","3162126","3160096","3194578","NA","3062126","3098805","3192928","3159870","3237887","3160099","NA","3266728","3266728","3166830","3166827","3265220","NAP perception","10","10141","10","yes","1024"
"100","yes","100","1066.36363636","1066.36363636","white","no","xpyriment","Ich habe die obigen Informationen gelesen und verstanden.","legacy","legacy","0","uniform","1","0","0","undefined","undefined","1","j","2","1","NA","0","1","0","0","0","0","0","0","0","0","20","20","20","0","0","0","NA","0","0","2","0","0","0","2","20","20","20","20","20","Sat Nov 11 20:10:35 2017","Forced-choice identification task with a practice and an experimental phase","yes","NAP_GER_AA_4blocks_noglides.osexp","/Users/aviadalbert/Documents/Academisch/UoC/Dissertation/Experiment/OpenSesame/NAP-FC/NAP_GER_AA_4blocks_noglides","yes","no","sans","no","20","no","black","no","Weiter","yes","768","legacy","10","9","0","/Users/aviadalbert/Documents/Academisch/UoC/Dissertation/Experiment/OpenSesame/NAP-FC/NAP_GER_AA_4blocks_noglides/subject-47.csv","xpyriment","Jazzy James","3.1.9","yes","yes","59a800d99ad5a1025d81bb03","59a801616c613b0251691de0","no","no","0","j","f","space","NA","space","space","j","1589","2037","42762","NA","23471","23260","1589","2","legacy","1024","1","44100","-16","experiment","efsal","2","1","1","0","1","Englisch","47","","odd","3237887","3194578","NA","NA","3239925","3237884","NA","3010895","3237397","3010895","3010895","3113068","3136543","3269584","3268080","3271175","3162126","3160096","3194578","NA","3062126","3098805","3192928","3159870","3237887","3160099","NA","3269584","3269584","3166830","3166827","3268076","NAP perception","11","11730","11","yes","1024"
"100","yes","100","1055.75","1055.75","white","no","xpyriment","Ich habe die obigen Informationen gelesen und verstanden.","legacy","legacy","0","uniform","1","0","0","undefined","undefined","1","j","2","1","NA","0","1","0","0","0","0","0","0","0","0","21","21","21","0","0","0","NA","0","0","2","0","0","0","2","21","21","21","21","21","Sat Nov 11 20:10:35 2017","Forced-choice identification task with a practice and an experimental phase","yes","NAP_GER_AA_4blocks_noglides.osexp","/Users/aviadalbert/Documents/Academisch/UoC/Dissertation/Experiment/OpenSesame/NAP-FC/NAP_GER_AA_4blocks_noglides","yes","no","sans","no","20","no","black","no","Weiter","yes","768","legacy","11","9","0","/Users/aviadalbert/Documents/Academisch/UoC/Dissertation/Experiment/OpenSesame/NAP-FC/NAP_GER_AA_4blocks_noglides/subject-47.csv","xpyriment","Jazzy James","3.1.9","yes","yes","59a800d99ad5a1025d81bb03","59a801616c613b0251691de0","no","no","0","j","f","space","NA","space","space","j","939","2037","42762","NA","23471","23260","939","2","legacy","1024","1","44100","-16","experiment","fesal","2","1","1","0","1","Englisch","47","","odd","3237887","3194578","NA","NA","3239925","3237884","NA","3010895","3237397","3010895","3010895","3113068","3136543","3272950","3271445","3273890","3162126","3160096","3194578","NA","3062126","3098805","3192928","3159870","3237887","3160099","NA","3272950","3272950","3166830","3166827","3271441","NAP perception","12","12669","12","yes","1024"
"100","yes","100","1043.84615385","1043.84615385","white","no","xpyriment","Ich habe die obigen Informationen gelesen und verstanden.","legacy","legacy","0","uniform","1","0","0","undefined","undefined","1","j","2","1","NA","0","1","0","0","0","0","0","0","0","0","22","22","22","0","0","0","NA","0","0","2","0","0","0","2","22","22","22","22","22","Sat Nov 11 20:10:35 2017","Forced-choice identification task with a practice and an experimental phase","yes","NAP_GER_AA_4blocks_noglides.osexp","/Users/aviadalbert/Documents/Academisch/UoC/Dissertation/Experiment/OpenSesame/NAP-FC/NAP_GER_AA_4blocks_noglides","yes","no","sans","no","20","no","black","no","Weiter","yes","768","legacy","12","9","0","/Users/aviadalbert/Documents/Academisch/UoC/Dissertation/Experiment/OpenSesame/NAP-FC/NAP_GER_AA_4blocks_noglides/subject-47.csv","xpyriment","Jazzy James","3.1.9","yes","yes","59a800d99ad5a1025d81bb03","59a801616c613b0251691de0","no","no","0","j","f","space","NA","space","space","j","901","2037","42762","NA","23471","23260","901","2","legacy","1024","1","44100","-16","experiment","fetal","2","1","1","0","1","Englisch","47","","odd","3237887","3194578","NA","NA","3239925","3237884","NA","3010895","3237397","3010895","3010895","3113068","3136543","3275665","3274159","3276567","3162126","3160096","3194578","NA","3062126","3098805","3192928","3159870","3237887","3160099","NA","3275664","3275665","3166830","3166827","3274155","NAP perception","13","13570","13","yes","1024"
"92.8571428571","yes","92.8571428571","1029.42857143","1029.42857143","white","no","xpyriment","Ich habe die obigen Informationen gelesen und verstanden.","legacy","legacy","0","uniform","0","0","0","undefined","undefined","0","f","2","1","NA","0","1","0","0","0","0","0","0","0","0","23","23","23","0","0","0","NA","0","0","2","0","0","0","2","23","23","23","23","23","Sat Nov 11 20:10:35 2017","Forced-choice identification task with a practice and an experimental phase","yes","NAP_GER_AA_4blocks_noglides.osexp","/Users/aviadalbert/Documents/Academisch/UoC/Dissertation/Experiment/OpenSesame/NAP-FC/NAP_GER_AA_4blocks_noglides","yes","no","sans","no","20","no","black","no","Weiter","yes","768","legacy","13","9","0","/Users/aviadalbert/Documents/Academisch/UoC/Dissertation/Experiment/OpenSesame/NAP-FC/NAP_GER_AA_4blocks_noglides/subject-47.csv","xpyriment","Jazzy James","3.1.9","yes","yes","59a800d99ad5a1025d81bb03","59a801616c613b0251691de0","no","no","0","j","f","space","NA","space","space","j","842","2037","42762","NA","23471","23260","842","2","legacy","1024","1","44100","-16","experiment","npal","2","1","1","0","1","Englisch","47","","odd","3237887","3194578","NA","NA","3239925","3237884","NA","3010895","3237397","3010895","3010895","3113068","3136543","3278345","3276840","3279188","3162126","3160096","3194578","NA","3062126","3098805","3192928","3159870","3237887","3160099","NA","3278345","3278345","3166830","3166827","3276836","NAP perception","13","14412","14","yes","1024"
"93.3333333333","yes","93.3333333333","1013.93333333","1013.93333333","white","no","xpyriment","Ich habe die obigen Informationen gelesen und verstanden.","legacy","legacy","0","uniform","1","0","0","undefined","undefined","1","j","2","1","NA","0","1","0","0","0","0","0","0","0","0","24","24","24","0","0","0","NA","0","0","2","0","0","0","2","24","24","24","24","24","Sat Nov 11 20:10:35 2017","Forced-choice identification task with a practice and an experimental phase","yes","NAP_GER_AA_4blocks_noglides.osexp","/Users/aviadalbert/Documents/Academisch/UoC/Dissertation/Experiment/OpenSesame/NAP-FC/NAP_GER_AA_4blocks_noglides","yes","no","sans","no","20","no","black","no","Weiter","yes","768","legacy","14","9","0","/Users/aviadalbert/Documents/Academisch/UoC/Dissertation/Experiment/OpenSesame/NAP-FC/NAP_GER_AA_4blocks_noglides/subject-47.csv","xpyriment","Jazzy James","3.1.9","yes","yes","59a800d99ad5a1025d81bb03","59a801616c613b0251691de0","no","no","0","j","f","space","NA","space","space","j","797","2037","42762","NA","23471","23260","797","2","legacy","1024","1","44100","-16","experiment","lekal","2","1","1","0","1","Englisch","47","","odd","3237887","3194578","NA","NA","3239925","3237884","NA","3010895","3237397","3010895","3010895","3113068","3136543","3280961","3279455","3281759","3162126","3160096","3194578","NA","3062126","3098805","3192928","3159870","3237887","3160099","NA","3280960","3280960","3166830","3166827","3279451","NAP perception","14","15209","15","yes","1024"
"93.75","yes","93.75","1006.3125","1006.3125","white","no","xpyriment","Ich habe die obigen Informationen gelesen und verstanden.","legacy","legacy","0","uniform","1","0","0","undefined","undefined","1","f","2","1","NA","0","1","0","0","0","0","0","0","0","0","25","25","25","0","0","0","NA","0","0","2","0","0","0","2","25","25","25","25","25","Sat Nov 11 20:10:35 2017","Forced-choice identification task with a practice and an experimental phase","yes","NAP_GER_AA_4blocks_noglides.osexp","/Users/aviadalbert/Documents/Academisch/UoC/Dissertation/Experiment/OpenSesame/NAP-FC/NAP_GER_AA_4blocks_noglides","yes","no","sans","no","20","no","black","no","Weiter","yes","768","legacy","15","9","0","/Users/aviadalbert/Documents/Academisch/UoC/Dissertation/Experiment/OpenSesame/NAP-FC/NAP_GER_AA_4blocks_noglides/subject-47.csv","xpyriment","Jazzy James","3.1.9","yes","yes","59a800d99ad5a1025d81bb03","59a801616c613b0251691de0","no","no","0","f","f","space","NA","space","space","f","892","2037","42762","NA","23471","23260","892","2","legacy","1024","1","44100","-16","experiment","vnal","2","1","1","0","1","Englisch","47","","odd","3237887","3194578","NA","NA","3239925","3237884","NA","3010895","3237397","3010895","3010895","3113068","3136543","3283533","3282029","3284426","3162126","3160096","3194578","NA","3062126","3098805","3192928","3159870","3237887","3160099","NA","3283532","3283532","3166830","3166827","3282025","NAP perception","15","16101","16","yes","1024"
"94.1176470588","yes","94.1176470588","992.705882353","992.705882353","white","no","xpyriment","Ich habe die obigen Informationen gelesen und verstanden.","legacy","legacy","0","uniform","1","0","0","undefined","undefined","1","j","2","1","NA","0","1","0","0","0","0","0","0","0","0","26","26","26","0","0","0","NA","0","0","2","0","0","0","2","26","26","26","26","26","Sat Nov 11 20:10:35 2017","Forced-choice identification task with a practice and an experimental phase","yes","NAP_GER_AA_4blocks_noglides.osexp","/Users/aviadalbert/Documents/Academisch/UoC/Dissertation/Experiment/OpenSesame/NAP-FC/NAP_GER_AA_4blocks_noglides","yes","no","sans","no","20","no","black","no","Weiter","yes","768","legacy","16","9","0","/Users/aviadalbert/Documents/Academisch/UoC/Dissertation/Experiment/OpenSesame/NAP-FC/NAP_GER_AA_4blocks_noglides/subject-47.csv","xpyriment","Jazzy James","3.1.9","yes","yes","59a800d99ad5a1025d81bb03","59a801616c613b0251691de0","no","no","0","j","f","space","NA","space","space","j","775","2037","42762","NA","23471","23260","775","2","legacy","1024","1","44100","-16","experiment","enfal","2","1","1","0","1","Englisch","47","","odd","3237887","3194578","NA","NA","3239925","3237884","NA","3010895","3237397","3010895","3010895","3113068","3136543","3286207","3284702","3286983","3162126","3160096","3194578","NA","3062126","3098805","3192928","3159870","3237887","3160099","NA","3286207","3286207","3166830","3166827","3284698","NAP perception","16","16876","17","yes","1024"
"94.4444444444","yes","94.4444444444","980.388888889","980.388888889","white","no","xpyriment","Ich habe die obigen Informationen gelesen und verstanden.","legacy","legacy","0","uniform","1","0","0","undefined","undefined","1","j","2","1","NA","0","1","0","0","0","0","0","0","0","0","27","27","27","0","0","0","NA","0","0","2","0","0","0","2","27","27","27","27","27","Sat Nov 11 20:10:35 2017","Forced-choice identification task with a practice and an experimental phase","yes","NAP_GER_AA_4blocks_noglides.osexp","/Users/aviadalbert/Documents/Academisch/UoC/Dissertation/Experiment/OpenSesame/NAP-FC/NAP_GER_AA_4blocks_noglides","yes","no","sans","no","20","no","black","no","Weiter","yes","768","legacy","17","9","0","/Users/aviadalbert/Documents/Academisch/UoC/Dissertation/Experiment/OpenSesame/NAP-FC/NAP_GER_AA_4blocks_noglides/subject-47.csv","xpyriment","Jazzy James","3.1.9","yes","yes","59a800d99ad5a1025d81bb03","59a801616c613b0251691de0","no","no","0","j","f","space","NA","space","space","j","771","2037","42762","NA","23471","23260","771","2","legacy","1024","1","44100","-16","experiment","mesal","2","1","1","0","1","Englisch","47","","odd","3237887","3194578","NA","NA","3239925","3237884","NA","3010895","3237397","3010895","3010895","3113068","3136543","3288762","3287256","3289534","3162126","3160096","3194578","NA","3062126","3098805","3192928","3159870","3237887","3160099","NA","3288762","3288762","3166830","3166827","3287252","NAP perception","17","17647","18","yes","1024"
"89.4736842105","yes","89.4736842105","1015.94736842","1015.94736842","white","no","xpyriment","Ich habe die obigen Informationen gelesen und verstanden.","legacy","legacy","0","uniform","0","0","0","undefined","undefined","0","f","2","1","NA","0","1","0","0","0","0","0","0","0","0","28","28","28","0","0","0","NA","0","0","2","0","0","0","2","28","28","28","28","28","Sat Nov 11 20:10:35 2017","Forced-choice identification task with a practice and an experimental phase","yes","NAP_GER_AA_4blocks_noglides.osexp","/Users/aviadalbert/Documents/Academisch/UoC/Dissertation/Experiment/OpenSesame/NAP-FC/NAP_GER_AA_4blocks_noglides","yes","no","sans","no","20","no","black","no","Weiter","yes","768","legacy","18","9","0","/Users/aviadalbert/Documents/Academisch/UoC/Dissertation/Experiment/OpenSesame/NAP-FC/NAP_GER_AA_4blocks_noglides/subject-47.csv","xpyriment","Jazzy James","3.1.9","yes","yes","59a800d99ad5a1025d81bb03","59a801616c613b0251691de0","no","no","0","j","f","space","NA","space","space","j","1656","2037","42762","NA","23471","23260","1656","2","legacy","1024","1","44100","-16","experiment","msal","2","1","1","0","1","Englisch","47","","odd","3237887","3194578","NA","NA","3239925","3237884","NA","3010895","3237397","3010895","3010895","3113068","3136543","3291307","3289804","3292964","3162126","3160096","3194578","NA","3062126","3098805","3192928","3159870","3237887","3160099","NA","3291307","3291307","3166830","3166827","3289800","NAP perception","17","19303","19","yes","1024"
"90","yes","90","1009.5","1009.5","white","no","xpyriment","Ich habe die obigen Informationen gelesen und verstanden.","legacy","legacy","0","uniform","1","0","0","undefined","undefined","1","j","2","1","NA","0","1","0","0","0","0","0","0","0","0","29","29","29","0","0","0","NA","0","0","2","0","0","0","2","29","29","29","29","29","Sat Nov 11 20:10:35 2017","Forced-choice identification task with a practice and an experimental phase","yes","NAP_GER_AA_4blocks_noglides.osexp","/Users/aviadalbert/Documents/Academisch/UoC/Dissertation/Experiment/OpenSesame/NAP-FC/NAP_GER_AA_4blocks_noglides","yes","no","sans","no","20","no","black","no","Weiter","yes","768","legacy","19","9","0","/Users/aviadalbert/Documents/Academisch/UoC/Dissertation/Experiment/OpenSesame/NAP-FC/NAP_GER_AA_4blocks_noglides/subject-47.csv","xpyriment","Jazzy James","3.1.9","yes","yes","59a800d99ad5a1025d81bb03","59a801616c613b0251691de0","no","no","0","j","f","space","NA","space","space","j","887","2037","42762","NA","23471","23260","887","2","legacy","1024","1","44100","-16","experiment","ezval","2","1","1","0","1","Englisch","47","","odd","3237887","3194578","NA","NA","3239925","3237884","NA","3010895","3237397","3010895","3010895","3113068","3136543","3294732","3293228","3295621","3162126","3160096","3194578","NA","3062126","3098805","3192928","3159870","3237887","3160099","NA","3294732","3294732","3166830","3166827","3293225","NAP perception","18","20190","20","yes","1024"
"90.4761904762","yes","90.4761904762","999.523809524","999.523809524","white","no","xpyriment","Ich habe die obigen Informationen gelesen und verstanden.","legacy","legacy","0","uniform","1","0","0","undefined","undefined","1","j","2","1","NA","0","1","0","0","0","0","0","0","0","0","30","30","30","0","0","0","NA","0","0","2","0","0","0","2","30","30","30","30","30","Sat Nov 11 20:10:35 2017","Forced-choice identification task with a practice and an experimental phase","yes","NAP_GER_AA_4blocks_noglides.osexp","/Users/aviadalbert/Documents/Academisch/UoC/Dissertation/Experiment/OpenSesame/NAP-FC/NAP_GER_AA_4blocks_noglides","yes","no","sans","no","20","no","black","no","Weiter","yes","768","legacy","20","9","0","/Users/aviadalbert/Documents/Academisch/UoC/Dissertation/Experiment/OpenSesame/NAP-FC/NAP_GER_AA_4blocks_noglides/subject-47.csv","xpyriment","Jazzy James","3.1.9","yes","yes","59a800d99ad5a1025d81bb03","59a801616c613b0251691de0","no","no","0","j","f","space","NA","space","space","j","800","2037","42762","NA","23471","23260","800","2","legacy","1024","1","44100","-16","experiment","melal","2","1","1","0","1","Englisch","47","","odd","3237887","3194578","NA","NA","3239925","3237884","NA","3010895","3237397","3010895","3010895","3113068","3136543","3297424","3295921","3298225","3162126","3160096","3194578","NA","3062126","3098805","3192928","3159870","3237887","3160099","NA","3297424","3297424","3166830","3166827","3295917","NAP perception","19","20990","21","yes","1024"
"90.9090909091","yes","90.9090909091","1001.09090909","1001.09090909","white","no","xpyriment","Ich habe die obigen Informationen gelesen und verstanden.","legacy","legacy","0","uniform","1","0","0","undefined","undefined","1","f","2","1","NA","0","1","0","0","0","0","0","0","0","0","31","31","31","0","0","0","NA","0","0","2","0","0","0","2","31","31","31","31","31","Sat Nov 11 20:10:35 2017","Forced-choice identification task with a practice and an experimental phase","yes","NAP_GER_AA_4blocks_noglides.osexp","/Users/aviadalbert/Documents/Academisch/UoC/Dissertation/Experiment/OpenSesame/NAP-FC/NAP_GER_AA_4blocks_noglides","yes","no","sans","no","20","no","black","no","Weiter","yes","768","legacy","21","9","0","/Users/aviadalbert/Documents/Academisch/UoC/Dissertation/Experiment/OpenSesame/NAP-FC/NAP_GER_AA_4blocks_noglides/subject-47.csv","xpyriment","Jazzy James","3.1.9","yes","yes","59a800d99ad5a1025d81bb03","59a801616c613b0251691de0","no","no","0","f","f","space","NA","space","space","f","1034","2037","42762","NA","23471","23260","1034","2","legacy","1024","1","44100","-16","experiment","zval","2","1","1","0","1","Englisch","47","","odd","3237887","3194578","NA","NA","3239925","3237884","NA","3010895","3237397","3010895","3010895","3113068","3136543","3299994","3298490","3301029","3162126","3160096","3194578","NA","3062126","3098805","3192928","3159870","3237887","3160099","NA","3299994","3299994","3166830","3166827","3298486","NAP perception","20","22024","22","yes","1024"
"91.3043478261","yes","91.3043478261","990.956521739","990.956521739","white","no","xpyriment","Ich habe die obigen Informationen gelesen und verstanden.","legacy","legacy","0","uniform","1","0","0","undefined","undefined","1","j","2","1","NA","0","1","0","0","0","0","0","0","0","0","32","32","32","0","0","0","NA","0","0","2","0","0","0","2","32","32","32","32","32","Sat Nov 11 20:10:35 2017","Forced-choice identification task with a practice and an experimental phase","yes","NAP_GER_AA_4blocks_noglides.osexp","/Users/aviadalbert/Documents/Academisch/UoC/Dissertation/Experiment/OpenSesame/NAP-FC/NAP_GER_AA_4blocks_noglides","yes","no","sans","no","20","no","black","no","Weiter","yes","768","legacy","22","9","0","/Users/aviadalbert/Documents/Academisch/UoC/Dissertation/Experiment/OpenSesame/NAP-FC/NAP_GER_AA_4blocks_noglides/subject-47.csv","xpyriment","Jazzy James","3.1.9","yes","yes","59a800d99ad5a1025d81bb03","59a801616c613b0251691de0","no","no","0","j","f","space","NA","space","space","j","768","2037","42762","NA","23471","23260","768","2","legacy","1024","1","44100","-16","experiment","sefal","2","1","1","0","1","Englisch","47","","odd","3237887","3194578","NA","NA","3239925","3237884","NA","3010895","3237397","3010895","3010895","3113068","3136543","3302793","3301289","3303562","3162126","3160096","3194578","NA","3062126","3098805","3192928","3159870","3237887","3160099","NA","3302793","3302793","3166830","3166827","3301285","NAP perception","21","22792","23","yes","1024"
"87.5","yes","87.5","1025.58333333","1025.58333333","white","no","xpyriment","Ich habe die obigen Informationen gelesen und verstanden.","legacy","legacy","0","uniform","0","0","0","undefined","undefined","0","f","2","1","NA","0","1","0","0","0","0","0","0","0","0","33","33","33","0","0","0","NA","0","0","2","0","0","0","2","33","33","33","33","33","Sat Nov 11 20:10:35 2017","Forced-choice identification task with a practice and an experimental phase","yes","NAP_GER_AA_4blocks_noglides.osexp","/Users/aviadalbert/Documents/Academisch/UoC/Dissertation/Experiment/OpenSesame/NAP-FC/NAP_GER_AA_4blocks_noglides","yes","no","sans","no","20","no","black","no","Weiter","yes","768","legacy","23","9","0","/Users/aviadalbert/Documents/Academisch/UoC/Dissertation/Experiment/OpenSesame/NAP-FC/NAP_GER_AA_4blocks_noglides/subject-47.csv","xpyriment","Jazzy James","3.1.9","yes","yes","59a800d99ad5a1025d81bb03","59a801616c613b0251691de0","no","no","0","j","f","space","NA","space","space","j","1822","2037","42762","NA","23471","23260","1822","2","legacy","1024","1","44100","-16","experiment","vnal","2","1","1","0","1","Englisch","47","","odd","3237887","3194578","NA","NA","3239925","3237884","NA","3010895","3237397","3010895","3010895","3113068","3136543","3305347","3303844","3307170","3162126","3160096","3194578","NA","3062126","3098805","3192928","3159870","3237887","3160099","NA","3305347","3305347","3166830","3166827","3303840","NAP perception","21","24614","24","yes","1024"
"84","yes","84","1068.56","1068.56","white","no","xpyriment","Ich habe die obigen Informationen gelesen und verstanden.","legacy","legacy","0","uniform","0","0","0","undefined","undefined","0","f","2","1","NA","0","1","0","0","0","0","0","0","0","0","34","34","34","0","0","0","NA","0","0","2","0","0","0","2","34","34","34","34","34","Sat Nov 11 20:10:35 2017","Forced-choice identification task with a practice and an experimental phase","yes","NAP_GER_AA_4blocks_noglides.osexp","/Users/aviadalbert/Documents/Academisch/UoC/Dissertation/Experiment/OpenSesame/NAP-FC/NAP_GER_AA_4blocks_noglides","yes","no","sans","no","20","no","black","no","Weiter","yes","768","legacy","24","9","0","/Users/aviadalbert/Documents/Academisch/UoC/Dissertation/Experiment/OpenSesame/NAP-FC/NAP_GER_AA_4blocks_noglides/subject-47.csv","xpyriment","Jazzy James","3.1.9","yes","yes","59a800d99ad5a1025d81bb03","59a801616c613b0251691de0","no","no","0","j","f","space","NA","space","space","j","2100","2037","42762","NA","23471","23260","2100","2","legacy","1024","1","44100","-16","experiment","lpal","2","1","1","0","1","Englisch","47","","odd","3237887","3194578","NA","NA","3239925","3237884","NA","3010895","3237397","3010895","3010895","3113068","3136543","3308933","3307428","3311035","3162126","3160096","3194578","NA","3062126","3098805","3192928","3159870","3237887","3160099","NA","3308933","3308933","3166830","3166827","3307424","NAP perception","21","26714","25","yes","1024"
"84.6153846154","yes","84.6153846154","1059.11538462","1059.11538462","white","no","xpyriment","Ich habe die obigen Informationen gelesen und verstanden.","legacy","legacy","0","uniform","1","0","0","undefined","undefined","1","f","2","1","NA","0","1","0","0","0","0","0","0","0","0","35","35","35","0","0","0","NA","0","0","2","0","0","0","2","35","35","35","35","35","Sat Nov 11 20:10:35 2017","Forced-choice identification task with a practice and an experimental phase","yes","NAP_GER_AA_4blocks_noglides.osexp","/Users/aviadalbert/Documents/Academisch/UoC/Dissertation/Experiment/OpenSesame/NAP-FC/NAP_GER_AA_4blocks_noglides","yes","no","sans","no","20","no","black","no","Weiter","yes","768","legacy","25","9","0","/Users/aviadalbert/Documents/Academisch/UoC/Dissertation/Experiment/OpenSesame/NAP-FC/NAP_GER_AA_4blocks_noglides/subject-47.csv","xpyriment","Jazzy James","3.1.9","yes","yes","59a800d99ad5a1025d81bb03","59a801616c613b0251691de0","no","no","0","f","f","space","NA","space","space","f","823","2037","42762","NA","23471","23260","823","2","legacy","1024","1","44100","-16","experiment","flal","2","1","1","0","1","Englisch","47","","odd","3237887","3194578","NA","NA","3239925","3237884","NA","3010895","3237397","3010895","3010895","3113068","3136543","3312813","3311307","3313638","3162126","3160096","3194578","NA","3062126","3098805","3192928","3159870","3237887","3160099","NA","3312813","3312813","3166830","3166827","3311304","NAP perception","22","27537","26","yes","1024"
"81.4814814815","yes","81.4814814815","1068.59259259","1068.59259259","white","no","xpyriment","Ich habe die obigen Informationen gelesen und verstanden.","legacy","legacy","0","uniform","0","0","0","undefined","undefined","0","f","2","1","NA","0","1","0","0","0","0","0","0","0","0","36","36","36","0","0","0","NA","0","0","2","0","0","0","2","36","36","36","36","36","Sat Nov 11 20:10:35 2017","Forced-choice identification task with a practice and an experimental phase","yes","NAP_GER_AA_4blocks_noglides.osexp","/Users/aviadalbert/Documents/Academisch/UoC/Dissertation/Experiment/OpenSesame/NAP-FC/NAP_GER_AA_4blocks_noglides","yes","no","sans","no","20","no","black","no","Weiter","yes","768","legacy","26","9","0","/Users/aviadalbert/Documents/Academisch/UoC/Dissertation/Experiment/OpenSesame/NAP-FC/NAP_GER_AA_4blocks_noglides/subject-47.csv","xpyriment","Jazzy James","3.1.9","yes","yes","59a800d99ad5a1025d81bb03","59a801616c613b0251691de0","no","no","0","j","f","space","NA","space","space","j","1315","2037","42762","NA","23471","23260","1315","2","legacy","1024","1","44100","-16","experiment","ﾊデal","2","1","1","0","1","Englisch","47","","odd","3237887","3194578","NA","NA","3239925","3237884","NA","3010895","3237397","3010895","3010895","3113068","3136543","3315424","3313921","3316740","3162126","3160096","3194578","NA","3062126","3098805","3192928","3159870","3237887","3160099","NA","3315424","3315424","3166830","3166827","3313917","NAP perception","22","28852","27","yes","1024"
"82.1428571429","yes","82.1428571429","1057.21428571","1057.21428571","white","no","xpyriment","Ich habe die obigen Informationen gelesen und verstanden.","legacy","legacy","0","uniform","1","0","0","undefined","undefined","1","f","2","1","NA","0","1","0","0","0","0","0","0","0","0","37","37","37","0","0","0","NA","0","0","2","0","0","0","2","37","37","37","37","37","Sat Nov 11 20:10:35 2017","Forced-choice identification task with a practice and an experimental phase","yes","NAP_GER_AA_4blocks_noglides.osexp","/Users/aviadalbert/Documents/Academisch/UoC/Dissertation/Experiment/OpenSesame/NAP-FC/NAP_GER_AA_4blocks_noglides","yes","no","sans","no","20","no","black","no","Weiter","yes","768","legacy","27","9","0","/Users/aviadalbert/Documents/Academisch/UoC/Dissertation/Experiment/OpenSesame/NAP-FC/NAP_GER_AA_4blocks_noglides/subject-47.csv","xpyriment","Jazzy James","3.1.9","yes","yes","59a800d99ad5a1025d81bb03","59a801616c613b0251691de0","no","no","0","f","f","space","NA","space","space","f","750","2037","42762","NA","23471","23260","750","2","legacy","1024","1","44100","-16","experiment","sfal","2","1","1","0","1","Englisch","47","","odd","3237887","3194578","NA","NA","3239925","3237884","NA","3010895","3237397","3010895","3010895","3113068","3136543","3318526","3317023","3319277","3162126","3160096","3194578","NA","3062126","3098805","3192928","3159870","3237887","3160099","NA","3318526","3318526","3166830","3166827","3317019","NAP perception","23","29602","28","yes","1024"
"82.7586206897","yes","82.7586206897","1050.68965517","1050.68965517","white","no","xpyriment","Ich habe die obigen Informationen gelesen und verstanden.","legacy","legacy","0","uniform","1","0","0","undefined","undefined","1","j","2","1","NA","0","1","0","0","0","0","0","0","0","0","38","38","38","0","0","0","NA","0","0","2","0","0","0","2","38","38","38","38","38","Sat Nov 11 20:10:35 2017","Forced-choice identification task with a practice and an experimental phase","yes","NAP_GER_AA_4blocks_noglides.osexp","/Users/aviadalbert/Documents/Academisch/UoC/Dissertation/Experiment/OpenSesame/NAP-FC/NAP_GER_AA_4blocks_noglides","yes","no","sans","no","20","no","black","no","Weiter","yes","768","legacy","28","9","0","/Users/aviadalbert/Documents/Academisch/UoC/Dissertation/Experiment/OpenSesame/NAP-FC/NAP_GER_AA_4blocks_noglides/subject-47.csv","xpyriment","Jazzy James","3.1.9","yes","yes","59a800d99ad5a1025d81bb03","59a801616c613b0251691de0","no","no","0","j","f","space","NA","space","space","j","868","2037","42762","NA","23471","23260","868","2","legacy","1024","1","44100","-16","experiment","emlal","2","1","1","0","1","Englisch","47","","odd","3237887","3194578","NA","NA","3239925","3237884","NA","3010895","3237397","3010895","3010895","3113068","3136543","3321051","3319545","3321921","3162126","3160096","3194578","NA","3062126","3098805","3192928","3159870","3237887","3160099","NA","3321051","3321051","3166830","3166827","3319541","NAP perception","24","30470","29","yes","1024"
"80","yes","80","1047.73333333","1047.73333333","white","no","xpyriment","Ich habe die obigen Informationen gelesen und verstanden.","legacy","legacy","0","uniform","0","0","0","undefined","undefined","0","f","2","1","NA","0","1","0","0","0","0","0","0","0","0","39","39","39","0","0","0","NA","0","0","2","0","0","0","2","39","39","39","39","39","Sat Nov 11 20:10:35 2017","Forced-choice identification task with a practice and an experimental phase","yes","NAP_GER_AA_4blocks_noglides.osexp","/Users/aviadalbert/Documents/Academisch/UoC/Dissertation/Experiment/OpenSesame/NAP-FC/NAP_GER_AA_4blocks_noglides","yes","no","sans","no","20","no","black","no","Weiter","yes","768","legacy","29","9","0","/Users/aviadalbert/Documents/Academisch/UoC/Dissertation/Experiment/OpenSesame/NAP-FC/NAP_GER_AA_4blocks_noglides/subject-47.csv","xpyriment","Jazzy James","3.1.9","yes","yes","59a800d99ad5a1025d81bb03","59a801616c613b0251691de0","no","no","0","j","f","space","NA","space","space","j","962","2037","42762","NA","23471","23260","962","2","legacy","1024","1","44100","-16","experiment","vlal","2","1","1","0","1","Englisch","47","","odd","3237887","3194578","NA","NA","3239925","3237884","NA","3010895","3237397","3010895","3010895","3113068","3136543","3323710","3322204","3324673","3162126","3160096","3194578","NA","3062126","3098805","3192928","3159870","3237887","3160099","NA","3323710","3323710","3166830","3166827","3322201","NAP perception","24","31432","30","yes","1024"
"80.6451612903","yes","80.6451612903","1043.70967742","1043.70967742","white","no","xpyriment","Ich habe die obigen Informationen gelesen und verstanden.","legacy","legacy","0","uniform","1","0","0","undefined","undefined","1","j","2","1","NA","0","1","0","0","0","0","0","0","0","0","40","40","40","0","0","0","NA","0","0","2","0","0","0","2","40","40","40","40","40","Sat Nov 11 20:10:35 2017","Forced-choice identification task with a practice and an experimental phase","yes","NAP_GER_AA_4blocks_noglides.osexp","/Users/aviadalbert/Documents/Academisch/UoC/Dissertation/Experiment/OpenSesame/NAP-FC/NAP_GER_AA_4blocks_noglides","yes","no","sans","no","20","no","black","no","Weiter","yes","768","legacy","30","9","0","/Users/aviadalbert/Documents/Academisch/UoC/Dissertation/Experiment/OpenSesame/NAP-FC/NAP_GER_AA_4blocks_noglides/subject-47.csv","xpyriment","Jazzy James","3.1.9","yes","yes","59a800d99ad5a1025d81bb03","59a801616c613b0251691de0","no","no","0","j","f","space","NA","space","space","j","923","2037","42762","NA","23471","23260","923","2","legacy","1024","1","44100","-16","experiment","sepal","2","1","1","0","1","Englisch","47","","odd","3237887","3194578","NA","NA","3239925","3237884","NA","3010895","3237397","3010895","3010895","3113068","3136543","3326453","3324950","3327378","3162126","3160096","3194578","NA","3062126","3098805","3192928","3159870","3237887","3160099","NA","3326453","3326453","3166830","3166827","3324946","NAP perception","25","32355","31","yes","1024"
"78.125","yes","78.125","1086.59375","1086.59375","white","no","xpyriment","Ich habe die obigen Informationen gelesen und verstanden.","legacy","legacy","0","uniform","0","0","0","undefined","undefined","0","f","2","1","NA","0","1","0","0","0","0","0","0","0","0","41","41","41","0","0","0","NA","0","0","2","0","0","0","2","41","41","41","41","41","Sat Nov 11 20:10:35 2017","Forced-choice identification task with a practice and an experimental phase","yes","NAP_GER_AA_4blocks_noglides.osexp","/Users/aviadalbert/Documents/Academisch/UoC/Dissertation/Experiment/OpenSesame/NAP-FC/NAP_GER_AA_4blocks_noglides","yes","no","sans","no","20","no","black","no","Weiter","yes","768","legacy","31","9","0","/Users/aviadalbert/Documents/Academisch/UoC/Dissertation/Experiment/OpenSesame/NAP-FC/NAP_GER_AA_4blocks_noglides/subject-47.csv","xpyriment","Jazzy James","3.1.9","yes","yes","59a800d99ad5a1025d81bb03","59a801616c613b0251691de0","no","no","0","j","f","space","NA","space","space","j","2416","2037","42762","NA","23471","23260","2416","2","legacy","1024","1","44100","-16","experiment","nval","2","1","1","0","1","Englisch","47","","odd","3237887","3194578","NA","NA","3239925","3237884","NA","3010895","3237397","3010895","3010895","3113068","3136543","3329166","3327662","3331584","3162126","3160096","3194578","NA","3062126","3098805","3192928","3159870","3237887","3160099","NA","3329166","3329166","3166830","3166827","3327658","NAP perception","25","34771","32","yes","1024"
"78.7878787879","yes","78.7878787879","1079.54545455","1079.54545455","white","no","xpyriment","Ich habe die obigen Informationen gelesen und verstanden.","legacy","legacy","0","uniform","1","0","0","undefined","undefined","1","f","2","1","NA","0","1","0","0","0","0","0","0","0","0","42","42","42","0","0","0","NA","0","0","2","0","0","0","2","42","42","42","42","42","Sat Nov 11 20:10:35 2017","Forced-choice identification task with a practice and an experimental phase","yes","NAP_GER_AA_4blocks_noglides.osexp","/Users/aviadalbert/Documents/Academisch/UoC/Dissertation/Experiment/OpenSesame/NAP-FC/NAP_GER_AA_4blocks_noglides","yes","no","sans","no","20","no","black","no","Weiter","yes","768","legacy","32","9","0","/Users/aviadalbert/Documents/Academisch/UoC/Dissertation/Experiment/OpenSesame/NAP-FC/NAP_GER_AA_4blocks_noglides/subject-47.csv","xpyriment","Jazzy James","3.1.9","yes","yes","59a800d99ad5a1025d81bb03","59a801616c613b0251691de0","no","no","0","f","f","space","NA","space","space","f","854","2037","42762","NA","23471","23260","854","2","legacy","1024","1","44100","-16","experiment","ﾊノal","2","1","1","0","1","Englisch","47","","odd","3237887","3194578","NA","NA","3239925","3237884","NA","3010895","3237397","3010895","3010895","3113068","3136543","3333364","3331861","3334219","3162126","3160096","3194578","NA","3062126","3098805","3192928","3159870","3237887","3160099","NA","3333364","3333364","3166830","3166827","3331857","NAP perception","26","35625","33","yes","1024"
"79.4117647059","yes","79.4117647059","1076.79411765","1076.79411765","white","no","xpyriment","Ich habe die obigen Informationen gelesen und verstanden.","legacy","legacy","0","uniform","1","0","0","undefined","undefined","1","j","2","1","NA","0","1","0","0","0","0","0","0","0","0","43","43","43","0","0","0","NA","0","0","2","0","0","0","2","43","43","43","43","43","Sat Nov 11 20:10:35 2017","Forced-choice identification task with a practice and an experimental phase","yes","NAP_GER_AA_4blocks_noglides.osexp","/Users/aviadalbert/Documents/Academisch/UoC/Dissertation/Experiment/OpenSesame/NAP-FC/NAP_GER_AA_4blocks_noglides","yes","no","sans","no","20","no","black","no","Weiter","yes","768","legacy","33","9","0","/Users/aviadalbert/Documents/Academisch/UoC/Dissertation/Experiment/OpenSesame/NAP-FC/NAP_GER_AA_4blocks_noglides/subject-47.csv","xpyriment","Jazzy James","3.1.9","yes","yes","59a800d99ad5a1025d81bb03","59a801616c613b0251691de0","no","no","0","j","f","space","NA","space","space","j","986","2037","42762","NA","23471","23260","986","2","legacy","1024","1","44100","-16","experiment","esfal","2","1","1","0","1","Englisch","47","","odd","3237887","3194578","NA","NA","3239925","3237884","NA","3010895","3237397","3010895","3010895","3113068","3136543","3336005","3334499","3336992","3162126","3160096","3194578","NA","3062126","3098805","3192928","3159870","3237887","3160099","NA","3336005","3336005","3166830","3166827","3334495","NAP perception","27","36611","34","yes","1024"
"80","yes","80","1075.54285714","1075.54285714","white","no","xpyriment","Ich habe die obigen Informationen gelesen und verstanden.","legacy","legacy","0","uniform","1","0","0","undefined","undefined","1","j","2","1","NA","0","1","0","0","0","0","0","0","0","0","44","44","44","0","0","0","NA","0","0","2","0","0","0","2","44","44","44","44","44","Sat Nov 11 20:10:35 2017","Forced-choice identification task with a practice and an experimental phase","yes","NAP_GER_AA_4blocks_noglides.osexp","/Users/aviadalbert/Documents/Academisch/UoC/Dissertation/Experiment/OpenSesame/NAP-FC/NAP_GER_AA_4blocks_noglides","yes","no","sans","no","20","no","black","no","Weiter","yes","768","legacy","34","9","0","/Users/aviadalbert/Documents/Academisch/UoC/Dissertation/Experiment/OpenSesame/NAP-FC/NAP_GER_AA_4blocks_noglides/subject-47.csv","xpyriment","Jazzy James","3.1.9","yes","yes","59a800d99ad5a1025d81bb03","59a801616c613b0251691de0","no","no","0","j","f","space","NA","space","space","j","1033","2037","42762","NA","23471","23260","1033","2","legacy","1024","1","44100","-16","experiment","zemal","2","1","1","0","1","Englisch","47","","odd","3237887","3194578","NA","NA","3239925","3237884","NA","3010895","3237397","3010895","3010895","3113068","3136543","3338786","3337282","3339820","3162126","3160096","3194578","NA","3062126","3098805","3192928","3159870","3237887","3160099","NA","3338786","3338786","3166830","3166827","3337278","NAP perception","28","37644","35","yes","1024"
"80.5555555556","yes","80.5555555556","1066.83333333","1066.83333333","white","no","xpyriment","Ich habe die obigen Informationen gelesen und verstanden.","legacy","legacy","0","uniform","1","0","0","undefined","undefined","1","j","2","1","NA","0","1","0","0","0","0","0","0","0","0","45","45","45","0","0","0","NA","0","0","2","0","0","0","2","45","45","45","45","45","Sat Nov 11 20:10:35 2017","Forced-choice identification task with a practice and an experimental phase","yes","NAP_GER_AA_4blocks_noglides.osexp","/Users/aviadalbert/Documents/Academisch/UoC/Dissertation/Experiment/OpenSesame/NAP-FC/NAP_GER_AA_4blocks_noglides","yes","no","sans","no","20","no","black","no","Weiter","yes","768","legacy","35","9","0","/Users/aviadalbert/Documents/Academisch/UoC/Dissertation/Experiment/OpenSesame/NAP-FC/NAP_GER_AA_4blocks_noglides/subject-47.csv","xpyriment","Jazzy James","3.1.9","yes","yes","59a800d99ad5a1025d81bb03","59a801616c613b0251691de0","no","no","0","j","f","space","NA","space","space","j","762","2037","42762","NA","23471","23260","762","2","legacy","1024","1","44100","-16","experiment","vezal","2","1","1","0","1","Englisch","47","","odd","3237887","3194578","NA","NA","3239925","3237884","NA","3010895","3237397","3010895","3010895","3113068","3136543","3341586","3340082","3342350","3162126","3160096","3194578","NA","3062126","3098805","3192928","3159870","3237887","3160099","NA","3341585","3341586","3166830","3166827","3340078","NAP perception","29","38406","36","yes","1024"
"81.0810810811","yes","81.0810810811","1059.16216216","1059.16216216","white","no","xpyriment","Ich habe die obigen Informationen gelesen und verstanden.","legacy","legacy","0","uniform","1","0","0","undefined","undefined","1","j","2","1","NA","0","1","0","0","0","0","0","0","0","0","46","46","46","0","0","0","NA","0","0","2","0","0","0","2","46","46","46","46","46","Sat Nov 11 20:10:35 2017","Forced-choice identification task with a practice and an experimental phase","yes","NAP_GER_AA_4blocks_noglides.osexp","/Users/aviadalbert/Documents/Academisch/UoC/Dissertation/Experiment/OpenSesame/NAP-FC/NAP_GER_AA_4blocks_noglides","yes","no","sans","no","20","no","black","no","Weiter","yes","768","legacy","36","9","0","/Users/aviadalbert/Documents/Academisch/UoC/Dissertation/Experiment/OpenSesame/NAP-FC/NAP_GER_AA_4blocks_noglides/subject-47.csv","xpyriment","Jazzy James","3.1.9","yes","yes","59a800d99ad5a1025d81bb03","59a801616c613b0251691de0","no","no","0","j","f","space","NA","space","space","j","783","2037","42762","NA","23471","23260","783","2","legacy","1024","1","44100","-16","experiment","ezmal","2","1","1","0","1","Englisch","47","","odd","3237887","3194578","NA","NA","3239925","3237884","NA","3010895","3237397","3010895","3010895","3113068","3136543","3344138","3342635","3344923","3162126","3160096","3194578","NA","3062126","3098805","3192928","3159870","3237887","3160099","NA","3344138","3344138","3166830","3166827","3342631","NAP perception","30","39189","37","yes","1024"
"81.5789473684","yes","81.5789473684","1049.34210526","1049.34210526","white","no","xpyriment","Ich habe die obigen Informationen gelesen und verstanden.","legacy","legacy","0","uniform","1","0","0","undefined","undefined","1","j","2","1","NA","0","1","0","0","0","0","0","0","0","0","47","47","47","0","0","0","NA","0","0","2","0","0","0","2","47","47","47","47","47","Sat Nov 11 20:10:35 2017","Forced-choice identification task with a practice and an experimental phase","yes","NAP_GER_AA_4blocks_noglides.osexp","/Users/aviadalbert/Documents/Academisch/UoC/Dissertation/Experiment/OpenSesame/NAP-FC/NAP_GER_AA_4blocks_noglides","yes","no","sans","no","20","no","black","no","Weiter","yes","768","legacy","37","9","0","/Users/aviadalbert/Documents/Academisch/UoC/Dissertation/Experiment/OpenSesame/NAP-FC/NAP_GER_AA_4blocks_noglides/subject-47.csv","xpyriment","Jazzy James","3.1.9","yes","yes","59a800d99ad5a1025d81bb03","59a801616c613b0251691de0","no","no","0","j","f","space","NA","space","space","j","686","2037","42762","NA","23471","23260","686","2","legacy","1024","1","44100","-16","experiment","ﾊテfal","2","1","1","0","1","Englisch","47","","odd","3237887","3194578","NA","NA","3239925","3237884","NA","3010895","3237397","3010895","3010895","3113068","3136543","3346692","3345185","3347380","3162126","3160096","3194578","NA","3062126","3098805","3192928","3159870","3237887","3160099","NA","3346692","3346692","3166830","3166827","3345182","NAP perception","31","39875","38","yes","1024"
"82.0512820513","yes","82.0512820513","1051.30769231","1051.30769231","white","no","xpyriment","Ich habe die obigen Informationen gelesen und verstanden.","legacy","legacy","0","uniform","1","0","0","undefined","undefined","1","j","2","1","NA","0","1","0","0","0","0","0","0","0","0","48","48","48","0","0","0","NA","0","0","2","0","0","0","2","48","48","48","48","48","Sat Nov 11 20:10:35 2017","Forced-choice identification task with a practice and an experimental phase","yes","NAP_GER_AA_4blocks_noglides.osexp","/Users/aviadalbert/Documents/Academisch/UoC/Dissertation/Experiment/OpenSesame/NAP-FC/NAP_GER_AA_4blocks_noglides","yes","no","sans","no","20","no","black","no","Weiter","yes","768","legacy","38","9","0","/Users/aviadalbert/Documents/Academisch/UoC/Dissertation/Experiment/OpenSesame/NAP-FC/NAP_GER_AA_4blocks_noglides/subject-47.csv","xpyriment","Jazzy James","3.1.9","yes","yes","59a800d99ad5a1025d81bb03","59a801616c613b0251691de0","no","no","0","j","f","space","NA","space","space","j","1126","2037","42762","NA","23471","23260","1126","2","legacy","1024","1","44100","-16","experiment","emtal","2","1","1","0","1","Englisch","47","","odd","3237887","3194578","NA","NA","3239925","3237884","NA","3010895","3237397","3010895","3010895","3113068","3136543","3349164","3347661","3350292","3162126","3160096","3194578","NA","3062126","3098805","3192928","3159870","3237887","3160099","NA","3349164","3349164","3166830","3166827","3347657","NAP perception","32","41001","39","yes","1024"
"82.5","yes","82.5","1050.35","1050.35","white","no","xpyriment","Ich habe die obigen Informationen gelesen und verstanden.","legacy","legacy","0","uniform","1","0","0","undefined","undefined","1","j","2","1","NA","0","1","0","0","0","0","0","0","0","0","49","49","49","0","0","0","NA","0","0","2","0","0","0","2","49","49","49","49","49","Sat Nov 11 20:10:35 2017","Forced-choice identification task with a practice and an experimental phase","yes","NAP_GER_AA_4blocks_noglides.osexp","/Users/aviadalbert/Documents/Academisch/UoC/Dissertation/Experiment/OpenSesame/NAP-FC/NAP_GER_AA_4blocks_noglides","yes","no","sans","no","20","no","black","no","Weiter","yes","768","legacy","39","9","0","/Users/aviadalbert/Documents/Academisch/UoC/Dissertation/Experiment/OpenSesame/NAP-FC/NAP_GER_AA_4blocks_noglides/subject-47.csv","xpyriment","Jazzy James","3.1.9","yes","yes","59a800d99ad5a1025d81bb03","59a801616c613b0251691de0","no","no","0","j","f","space","NA","space","space","j","1013","2037","42762","NA","23471","23260","1013","2","legacy","1024","1","44100","-16","experiment","emnal","2","1","1","0","1","Englisch","47","","odd","3237887","3194578","NA","NA","3239925","3237884","NA","3010895","3237397","3010895","3010895","3113068","3136543","3352076","3350568","3353091","3162126","3160096","3194578","NA","3062126","3098805","3192928","3159870","3237887","3160099","NA","3352076","3352076","3166830","3166827","3350565","NAP perception","33","42014","40","yes","1024"
"80.487804878","yes","80.487804878","1065.24390244","1065.24390244","white","no","xpyriment","Ich habe die obigen Informationen gelesen und verstanden.","legacy","legacy","0","uniform","0","0","0","undefined","undefined","0","f","2","1","NA","0","1","0","0","0","0","0","0","0","0","50","50","50","0","0","0","NA","0","0","2","0","0","0","2","50","50","50","50","50","Sat Nov 11 20:10:35 2017","Forced-choice identification task with a practice and an experimental phase","yes","NAP_GER_AA_4blocks_noglides.osexp","/Users/aviadalbert/Documents/Academisch/UoC/Dissertation/Experiment/OpenSesame/NAP-FC/NAP_GER_AA_4blocks_noglides","yes","no","sans","no","20","no","black","no","Weiter","yes","768","legacy","40","9","0","/Users/aviadalbert/Documents/Academisch/UoC/Dissertation/Experiment/OpenSesame/NAP-FC/NAP_GER_AA_4blocks_noglides/subject-47.csv","xpyriment","Jazzy James","3.1.9","yes","yes","59a800d99ad5a1025d81bb03","59a801616c613b0251691de0","no","no","0","j","f","space","NA","space","space","j","1661","2037","42762","NA","23471","23260","1661","2","legacy","1024","1","44100","-16","experiment","lmal","2","1","1","0","1","Englisch","47","","odd","3237887","3194578","NA","NA","3239925","3237884","NA","3010895","3237397","3010895","3010895","3113068","3136543","3354873","3353365","3356536","3162126","3160096","3194578","NA","3062126","3098805","3192928","3159870","3237887","3160099","NA","3354872","3354873","3166830","3166827","3353361","NAP perception","33","43675","41","yes","1024"
"80.9523809524","yes","80.9523809524","1057.26190476","1057.26190476","white","no","xpyriment","Ich habe die obigen Informationen gelesen und verstanden.","legacy","legacy","0","uniform","1","0","0","undefined","undefined","1","j","2","1","NA","0","1","0","0","0","0","0","0","0","0","51","51","51","0","0","0","NA","0","0","2","0","0","0","2","51","51","51","51","51","Sat Nov 11 20:10:35 2017","Forced-choice identification task with a practice and an experimental phase","yes","NAP_GER_AA_4blocks_noglides.osexp","/Users/aviadalbert/Documents/Academisch/UoC/Dissertation/Experiment/OpenSesame/NAP-FC/NAP_GER_AA_4blocks_noglides","yes","no","sans","no","20","no","black","no","Weiter","yes","768","legacy","41","9","0","/Users/aviadalbert/Documents/Academisch/UoC/Dissertation/Experiment/OpenSesame/NAP-FC/NAP_GER_AA_4blocks_noglides/subject-47.csv","xpyriment","Jazzy James","3.1.9","yes","yes","59a800d99ad5a1025d81bb03","59a801616c613b0251691de0","no","no","0","j","f","space","NA","space","space","j","730","2037","42762","NA","23471","23260","730","2","legacy","1024","1","44100","-16","experiment","esmal","2","1","1","0","1","Englisch","47","","odd","3237887","3194578","NA","NA","3239925","3237884","NA","3010895","3237397","3010895","3010895","3113068","3136543","3358309","3356803","3359041","3162126","3160096","3194578","NA","3062126","3098805","3192928","3159870","3237887","3160099","NA","3358309","3358309","3166830","3166827","3356799","NAP perception","34","44405","42","yes","1024"
"81.3953488372","yes","81.3953488372","1056.41860465","1056.41860465","white","no","xpyriment","Ich habe die obigen Informationen gelesen und verstanden.","legacy","legacy","0","uniform","1","0","0","undefined","undefined","1","f","2","1","NA","0","1","0","0","0","0","0","0","0","0","52","52","52","0","0","0","NA","0","0","2","0","0","0","2","52","52","52","52","52","Sat Nov 11 20:10:35 2017","Forced-choice identification task with a practice and an experimental phase","yes","NAP_GER_AA_4blocks_noglides.osexp","/Users/aviadalbert/Documents/Academisch/UoC/Dissertation/Experiment/OpenSesame/NAP-FC/NAP_GER_AA_4blocks_noglides","yes","no","sans","no","20","no","black","no","Weiter","yes","768","legacy","42","9","0","/Users/aviadalbert/Documents/Academisch/UoC/Dissertation/Experiment/OpenSesame/NAP-FC/NAP_GER_AA_4blocks_noglides/subject-47.csv","xpyriment","Jazzy James","3.1.9","yes","yes","59a800d99ad5a1025d81bb03","59a801616c613b0251691de0","no","no","0","f","f","space","NA","space","space","f","1021","2037","42762","NA","23471","23260","1021","2","legacy","1024","1","44100","-16","experiment","fsal","2","1","1","0","1","Englisch","47","","odd","3237887","3194578","NA","NA","3239925","3237884","NA","3010895","3237397","3010895","3010895","3113068","3136543","3360820","3359316","3361843","3162126","3160096","3194578","NA","3062126","3098805","3192928","3159870","3237887","3160099","NA","3360820","3360820","3166830","3166827","3359312","NAP perception","35","45426","43","yes","1024"
"79.5454545455","yes","79.5454545455","1048.04545455","1048.04545455","white","no","xpyriment","Ich habe die obigen Informationen gelesen und verstanden.","legacy","legacy","0","uniform","0","0","0","undefined","undefined","0","f","2","1","NA","0","1","0","0","0","0","0","0","0","0","53","53","53","0","0","0","NA","0","0","2","0","0","0","2","53","53","53","53","53","Sat Nov 11 20:10:35 2017","Forced-choice identification task with a practice and an experimental phase","yes","NAP_GER_AA_4blocks_noglides.osexp","/Users/aviadalbert/Documents/Academisch/UoC/Dissertation/Experiment/OpenSesame/NAP-FC/NAP_GER_AA_4blocks_noglides","yes","no","sans","no","20","no","black","no","Weiter","yes","768","legacy","43","9","0","/Users/aviadalbert/Documents/Academisch/UoC/Dissertation/Experiment/OpenSesame/NAP-FC/NAP_GER_AA_4blocks_noglides/subject-47.csv","xpyriment","Jazzy James","3.1.9","yes","yes","59a800d99ad5a1025d81bb03","59a801616c613b0251691de0","no","no","0","j","f","space","NA","space","space","j","688","2037","42762","NA","23471","23260","688","2","legacy","1024","1","44100","-16","experiment","mzal","2","1","1","0","1","Englisch","47","","odd","3237887","3194578","NA","NA","3239925","3237884","NA","3010895","3237397","3010895","3010895","3113068","3136543","3363623","3362118","3364313","3162126","3160096","3194578","NA","3062126","3098805","3192928","3159870","3237887","3160099","NA","3363623","3363623","3166830","3166827","3362115","NAP perception","35","46114","44","yes","1024"
"80","yes","80","1063.35555556","1063.35555556","white","no","xpyriment","Ich habe die obigen Informationen gelesen und verstanden.","legacy","legacy","0","uniform","1","0","0","undefined","undefined","1","f","2","1","NA","0","1","0","0","0","0","0","0","0","0","54","54","54","0","0","0","NA","0","0","2","0","0","0","2","54","54","54","54","54","Sat Nov 11 20:10:35 2017","Forced-choice identification task with a practice and an experimental phase","yes","NAP_GER_AA_4blocks_noglides.osexp","/Users/aviadalbert/Documents/Academisch/UoC/Dissertation/Experiment/OpenSesame/NAP-FC/NAP_GER_AA_4blocks_noglides","yes","no","sans","no","20","no","black","no","Weiter","yes","768","legacy","44","9","0","/Users/aviadalbert/Documents/Academisch/UoC/Dissertation/Experiment/OpenSesame/NAP-FC/NAP_GER_AA_4blocks_noglides/subject-47.csv","xpyriment","Jazzy James","3.1.9","yes","yes","59a800d99ad5a1025d81bb03","59a801616c613b0251691de0","no","no","0","f","f","space","NA","space","space","f","1737","2037","42762","NA","23471","23260","1737","2","legacy","1024","1","44100","-16","experiment","mtal","2","1","1","0","1","Englisch","47","","odd","3237887","3194578","NA","NA","3239925","3237884","NA","3010895","3237397","3010895","3010895","3113068","3136543","3366092","3364589","3367831","3162126","3160096","3194578","NA","3062126","3098805","3192928","3159870","3237887","3160099","NA","3366092","3366092","3166830","3166827","3364585","NAP perception","36","47851","45","yes","1024"
"80.4347826087","yes","80.4347826087","1060.43478261","1060.43478261","white","no","xpyriment","Ich habe die obigen Informationen gelesen und verstanden.","legacy","legacy","0","uniform","1","0","0","undefined","undefined","1","f","2","1","NA","0","1","0","0","0","0","0","0","0","0","55","55","55","0","0","0","NA","0","0","2","0","0","0","2","55","55","55","55","55","Sat Nov 11 20:10:35 2017","Forced-choice identification task with a practice and an experimental phase","yes","NAP_GER_AA_4blocks_noglides.osexp","/Users/aviadalbert/Documents/Academisch/UoC/Dissertation/Experiment/OpenSesame/NAP-FC/NAP_GER_AA_4blocks_noglides","yes","no","sans","no","20","no","black","no","Weiter","yes","768","legacy","45","9","0","/Users/aviadalbert/Documents/Academisch/UoC/Dissertation/Experiment/OpenSesame/NAP-FC/NAP_GER_AA_4blocks_noglides/subject-47.csv","xpyriment","Jazzy James","3.1.9","yes","yes","59a800d99ad5a1025d81bb03","59a801616c613b0251691de0","no","no","0","f","f","space","NA","space","space","f","929","2037","42762","NA","23471","23260","929","2","legacy","1024","1","44100","-16","experiment","ﾊデal","2","1","1","0","1","Englisch","47","","odd","3237887","3194578","NA","NA","3239925","3237884","NA","3010895","3237397","3010895","3010895","3113068","3136543","3369623","3368118","3370554","3162126","3160096","3194578","NA","3062126","3098805","3192928","3159870","3237887","3160099","NA","3369622","3369623","3166830","3166827","3368114","NAP perception","37","48780","46","yes","1024"
"80.8510638298","yes","80.8510638298","1056.9787234","1056.9787234","white","no","xpyriment","Ich habe die obigen Informationen gelesen und verstanden.","legacy","legacy","0","uniform","1","0","0","undefined","undefined","1","j","2","1","NA","0","1","0","0","0","0","0","0","0","0","56","56","56","0","0","0","NA","0","0","2","0","0","0","2","56","56","56","56","56","Sat Nov 11 20:10:35 2017","Forced-choice identification task with a practice and an experimental phase","yes","NAP_GER_AA_4blocks_noglides.osexp","/Users/aviadalbert/Documents/Academisch/UoC/Dissertation/Experiment/OpenSesame/NAP-FC/NAP_GER_AA_4blocks_noglides","yes","no","sans","no","20","no","black","no","Weiter","yes","768","legacy","46","9","0","/Users/aviadalbert/Documents/Academisch/UoC/Dissertation/Experiment/OpenSesame/NAP-FC/NAP_GER_AA_4blocks_noglides/subject-47.csv","xpyriment","Jazzy James","3.1.9","yes","yes","59a800d99ad5a1025d81bb03","59a801616c613b0251691de0","no","no","0","j","f","space","NA","space","space","j","898","2037","42762","NA","23471","23260","898","2","legacy","1024","1","44100","-16","experiment","eﾊデal","2","1","1","0","1","Englisch","47","","odd","3237887","3194578","NA","NA","3239925","3237884","NA","3010895","3237397","3010895","3010895","3113068","3136543","3372334","3370828","3373234","3162126","3160096","3194578","NA","3062126","3098805","3192928","3159870","3237887","3160099","NA","3372334","3372334","3166830","3166827","3370825","NAP perception","38","49678","47","yes","1024"
"81.25","yes","81.25","1068.29166667","1068.29166667","white","no","xpyriment","Ich habe die obigen Informationen gelesen und verstanden.","legacy","legacy","0","uniform","1","0","0","undefined","undefined","1","f","2","1","NA","0","1","0","0","0","0","0","0","0","0","57","57","57","0","0","0","NA","0","0","2","0","0","0","2","57","57","57","57","57","Sat Nov 11 20:10:35 2017","Forced-choice identification task with a practice and an experimental phase","yes","NAP_GER_AA_4blocks_noglides.osexp","/Users/aviadalbert/Documents/Academisch/UoC/Dissertation/Experiment/OpenSesame/NAP-FC/NAP_GER_AA_4blocks_noglides","yes","no","sans","no","20","no","black","no","Weiter","yes","768","legacy","47","9","0","/Users/aviadalbert/Documents/Academisch/UoC/Dissertation/Experiment/OpenSesame/NAP-FC/NAP_GER_AA_4blocks_noglides/subject-47.csv","xpyriment","Jazzy James","3.1.9","yes","yes","59a800d99ad5a1025d81bb03","59a801616c613b0251691de0","no","no","0","f","f","space","NA","space","space","f","1600","2037","42762","NA","23471","23260","1600","2","legacy","1024","1","44100","-16","experiment","vzal","2","1","1","0","1","Englisch","47","","odd","3237887","3194578","NA","NA","3239925","3237884","NA","3010895","3237397","3010895","3010895","3113068","3136543","3374998","3373492","3376600","3162126","3160096","3194578","NA","3062126","3098805","3192928","3159870","3237887","3160099","NA","3374997","3374998","3166830","3166827","3373488","NAP perception","39","51278","48","yes","1024"
"81.6326530612","yes","81.6326530612","1066.93877551","1066.93877551","white","no","xpyriment","Ich habe die obigen Informationen gelesen und verstanden.","legacy","legacy","0","uniform","1","0","0","undefined","undefined","1","f","2","1","NA","0","1","0","0","0","0","0","0","0","0","58","58","58","0","0","0","NA","0","0","2","0","0","0","2","58","58","58","58","58","Sat Nov 11 20:10:35 2017","Forced-choice identification task with a practice and an experimental phase","yes","NAP_GER_AA_4blocks_noglides.osexp","/Users/aviadalbert/Documents/Academisch/UoC/Dissertation/Experiment/OpenSesame/NAP-FC/NAP_GER_AA_4blocks_noglides","yes","no","sans","no","20","no","black","no","Weiter","yes","768","legacy","48","9","0","/Users/aviadalbert/Documents/Academisch/UoC/Dissertation/Experiment/OpenSesame/NAP-FC/NAP_GER_AA_4blocks_noglides/subject-47.csv","xpyriment","Jazzy James","3.1.9","yes","yes","59a800d99ad5a1025d81bb03","59a801616c613b0251691de0","no","no","0","f","f","space","NA","space","space","f","1002","2037","42762","NA","23471","23260","1002","2","legacy","1024","1","44100","-16","experiment","fsal","2","1","1","0","1","Englisch","47","","odd","3237887","3194578","NA","NA","3239925","3237884","NA","3010895","3237397","3010895","3010895","3113068","3136543","3378364","3376861","3379369","3162126","3160096","3194578","NA","3062126","3098805","3192928","3159870","3237887","3160099","NA","3378364","3378364","3166830","3166827","3376857","NAP perception","40","52280","49","yes","1024"
"80","yes","80","1065.2","1065.2","white","no","xpyriment","Ich habe die obigen Informationen gelesen und verstanden.","legacy","legacy","0","uniform","0","0","0","undefined","undefined","0","f","2","1","NA","0","1","0","0","0","0","0","0","0","0","59","59","59","0","0","0","NA","0","0","2","0","0","0","2","59","59","59","59","59","Sat Nov 11 20:10:35 2017","Forced-choice identification task with a practice and an experimental phase","yes","NAP_GER_AA_4blocks_noglides.osexp","/Users/aviadalbert/Documents/Academisch/UoC/Dissertation/Experiment/OpenSesame/NAP-FC/NAP_GER_AA_4blocks_noglides","yes","no","sans","no","20","no","black","no","Weiter","yes","768","legacy","49","9","0","/Users/aviadalbert/Documents/Academisch/UoC/Dissertation/Experiment/OpenSesame/NAP-FC/NAP_GER_AA_4blocks_noglides/subject-47.csv","xpyriment","Jazzy James","3.1.9","yes","yes","59a800d99ad5a1025d81bb03","59a801616c613b0251691de0","no","no","0","j","f","space","NA","space","space","j","980","2037","42762","NA","23471","23260","980","2","legacy","1024","1","44100","-16","experiment","npal","2","1","1","0","1","Englisch","47","","odd","3237887","3194578","NA","NA","3239925","3237884","NA","3010895","3237397","3010895","3010895","3113068","3136543","3381142","3379638","3382124","3162126","3160096","3194578","NA","3062126","3098805","3192928","3159870","3237887","3160099","NA","3381142","3381142","3166830","3166827","3379634","NAP perception","40","53260","50","yes","1024"
"80.3921568627","yes","80.3921568627","1059.74509804","1059.74509804","white","no","xpyriment","Ich habe die obigen Informationen gelesen und verstanden.","legacy","legacy","0","uniform","1","0","0","undefined","undefined","1","j","2","1","NA","0","1","0","0","0","0","0","0","0","0","60","60","60","0","0","0","NA","0","0","2","0","0","0","2","60","60","60","60","60","Sat Nov 11 20:10:35 2017","Forced-choice identification task with a practice and an experimental phase","yes","NAP_GER_AA_4blocks_noglides.osexp","/Users/aviadalbert/Documents/Academisch/UoC/Dissertation/Experiment/OpenSesame/NAP-FC/NAP_GER_AA_4blocks_noglides","yes","no","sans","no","20","no","black","no","Weiter","yes","768","legacy","50","9","0","/Users/aviadalbert/Documents/Academisch/UoC/Dissertation/Experiment/OpenSesame/NAP-FC/NAP_GER_AA_4blocks_noglides/subject-47.csv","xpyriment","Jazzy James","3.1.9","yes","yes","59a800d99ad5a1025d81bb03","59a801616c613b0251691de0","no","no","0","j","f","space","NA","space","space","j","787","2037","42762","NA","23471","23260","787","2","legacy","1024","1","44100","-16","experiment","enval","2","1","1","0","1","Englisch","47","","odd","3237887","3194578","NA","NA","3239925","3237884","NA","3010895","3237397","3010895","3010895","3113068","3136543","3383905","3382398","3384694","3162126","3160096","3194578","NA","3062126","3098805","3192928","3159870","3237887","3160099","NA","3383905","3383905","3166830","3166827","3382394","NAP perception","41","54047","51","yes","1024"
"80.7692307692","yes","80.7692307692","1062.76923077","1062.76923077","white","no","xpyriment","Ich habe die obigen Informationen gelesen und verstanden.","legacy","legacy","0","uniform","1","0","0","undefined","undefined","1","j","2","1","NA","0","1","0","0","0","0","0","0","0","0","61","61","61","0","0","0","NA","0","0","2","0","0","0","2","61","61","61","61","61","Sat Nov 11 20:10:35 2017","Forced-choice identification task with a practice and an experimental phase","yes","NAP_GER_AA_4blocks_noglides.osexp","/Users/aviadalbert/Documents/Academisch/UoC/Dissertation/Experiment/OpenSesame/NAP-FC/NAP_GER_AA_4blocks_noglides","yes","no","sans","no","20","no","black","no","Weiter","yes","768","legacy","51","9","0","/Users/aviadalbert/Documents/Academisch/UoC/Dissertation/Experiment/OpenSesame/NAP-FC/NAP_GER_AA_4blocks_noglides/subject-47.csv","xpyriment","Jazzy James","3.1.9","yes","yes","59a800d99ad5a1025d81bb03","59a801616c613b0251691de0","no","no","0","j","f","space","NA","space","space","j","1217","2037","42762","NA","23471","23260","1217","2","legacy","1024","1","44100","-16","experiment","leval","2","1","1","0","1","Englisch","47","","odd","3237887","3194578","NA","NA","3239925","3237884","NA","3010895","3237397","3010895","3010895","3113068","3136543","3386476","3384970","3387696","3162126","3160096","3194578","NA","3062126","3098805","3192928","3159870","3237887","3160099","NA","3386476","3386476","3166830","3166827","3384966","NAP perception","42","55264","52","yes","1024"
"81.1320754717","yes","81.1320754717","1058.20754717","1058.20754717","white","no","xpyriment","Ich habe die obigen Informationen gelesen und verstanden.","legacy","legacy","0","uniform","1","0","0","undefined","undefined","1","f","2","1","NA","0","1","0","0","0","0","0","0","0","0","62","62","62","0","0","0","NA","0","0","2","0","0","0","2","62","62","62","62","62","Sat Nov 11 20:10:35 2017","Forced-choice identification task with a practice and an experimental phase","yes","NAP_GER_AA_4blocks_noglides.osexp","/Users/aviadalbert/Documents/Academisch/UoC/Dissertation/Experiment/OpenSesame/NAP-FC/NAP_GER_AA_4blocks_noglides","yes","no","sans","no","20","no","black","no","Weiter","yes","768","legacy","52","9","0","/Users/aviadalbert/Documents/Academisch/UoC/Dissertation/Experiment/OpenSesame/NAP-FC/NAP_GER_AA_4blocks_noglides/subject-47.csv","xpyriment","Jazzy James","3.1.9","yes","yes","59a800d99ad5a1025d81bb03","59a801616c613b0251691de0","no","no","0","f","f","space","NA","space","space","f","821","2037","42762","NA","23471","23260","821","2","legacy","1024","1","44100","-16","experiment","zval","2","1","1","0","1","Englisch","47","","odd","3237887","3194578","NA","NA","3239925","3237884","NA","3010895","3237397","3010895","3010895","3113068","3136543","3389489","3387986","3390312","3162126","3160096","3194578","NA","3062126","3098805","3192928","3159870","3237887","3160099","NA","3389489","3389489","3166830","3166827","3387982","NAP perception","43","56085","53","yes","1024"
"81.4814814815","yes","81.4814814815","1054.03703704","1054.03703704","white","no","xpyriment","Ich habe die obigen Informationen gelesen und verstanden.","legacy","legacy","0","uniform","1","0","0","undefined","undefined","1","f","2","1","NA","0","1","0","0","0","0","0","0","0","0","63","63","63","0","0","0","NA","0","0","2","0","0","0","2","63","63","63","63","63","Sat Nov 11 20:10:35 2017","Forced-choice identification task with a practice and an experimental phase","yes","NAP_GER_AA_4blocks_noglides.osexp","/Users/aviadalbert/Documents/Academisch/UoC/Dissertation/Experiment/OpenSesame/NAP-FC/NAP_GER_AA_4blocks_noglides","yes","no","sans","no","20","no","black","no","Weiter","yes","768","legacy","53","9","0","/Users/aviadalbert/Documents/Academisch/UoC/Dissertation/Experiment/OpenSesame/NAP-FC/NAP_GER_AA_4blocks_noglides/subject-47.csv","xpyriment","Jazzy James","3.1.9","yes","yes","59a800d99ad5a1025d81bb03","59a801616c613b0251691de0","no","no","0","f","f","space","NA","space","space","f","833","2037","42762","NA","23471","23260","833","2","legacy","1024","1","44100","-16","experiment","mnal","2","1","1","0","1","Englisch","47","","odd","3237887","3194578","NA","NA","3239925","3237884","NA","3010895","3237397","3010895","3010895","3113068","3136543","3392095","3390589","3392930","3162126","3160096","3194578","NA","3062126","3098805","3192928","3159870","3237887","3160099","NA","3392095","3392095","3166830","3166827","3390585","NAP perception","44","56918","54","yes","1024"
"81.8181818182","yes","81.8181818182","1050.09090909","1050.09090909","white","no","xpyriment","Ich habe die obigen Informationen gelesen und verstanden.","legacy","legacy","0","uniform","1","0","0","undefined","undefined","1","j","2","1","NA","0","1","0","0","0","0","0","0","0","0","64","64","64","0","0","0","NA","0","0","2","0","0","0","2","64","64","64","64","64","Sat Nov 11 20:10:35 2017","Forced-choice identification task with a practice and an experimental phase","yes","NAP_GER_AA_4blocks_noglides.osexp","/Users/aviadalbert/Documents/Academisch/UoC/Dissertation/Experiment/OpenSesame/NAP-FC/NAP_GER_AA_4blocks_noglides","yes","no","sans","no","20","no","black","no","Weiter","yes","768","legacy","54","9","0","/Users/aviadalbert/Documents/Academisch/UoC/Dissertation/Experiment/OpenSesame/NAP-FC/NAP_GER_AA_4blocks_noglides/subject-47.csv","xpyriment","Jazzy James","3.1.9","yes","yes","59a800d99ad5a1025d81bb03","59a801616c613b0251691de0","no","no","0","j","f","space","NA","space","space","j","837","2037","42762","NA","23471","23260","837","2","legacy","1024","1","44100","-16","experiment","elmal","2","1","1","0","1","Englisch","47","","odd","3237887","3194578","NA","NA","3239925","3237884","NA","3010895","3237397","3010895","3010895","3113068","3136543","3394708","3393204","3395547","3162126","3160096","3194578","NA","3062126","3098805","3192928","3159870","3237887","3160099","NA","3394708","3394708","3166830","3166827","3393200","NAP perception","45","57755","55","yes","1024"
