"acc","accept_status","accuracy","average_response_time","avg_rt","background","bidi","canvas_backend","checkbox_status","clock_backend","color_backend","compensation","coordinates","correct","correct_block_activation","correct_block_exit","correct_instructions_1","correct_instructions_2","correct_keyboard_response","correct_response","count_block_activation","count_block_exit","count_block_info_QA","count_cont_e_block_message","count_e_block_loop","count_e_block_sequence","count_end_of_experiment","count_experiment","count_experimental_loop","count_form_consent","count_info_forms","count_instructions_1","count_instructions_2","count_keyboard_response","count_listen_message","count_logger","count_p_block_loop","count_p_block_sequence","count_p_feedback","count_pause_feedback","count_personal_details_form_1","count_personal_details_form_2","count_post_loop_blank","count_practice_loop","count_pre_e_block_message","count_pre_p_block_message","count_reset_feedback","count_stimulus_image","count_stimulus_sound","count_timeout_message","count_timeout_sound","count_trial_sequence","datetime","description","disable_garbage_collection","experiment_file","experiment_path","expyriment_opengl","font_bold","font_family","font_italic","font_size","font_underline","foreground","form_clicks","form_response","fullscreen","height","keyboard_backend","live_row","live_row_p_block_loop","live_row_practice_loop","logfile","mouse_backend","opensesame_codename","opensesame_version","osf_always_upload_data","osf_always_upload_experiment","osf_datanode_id","osf_id","practice","pygame_doublebuf","repeat_cycle","response","response_block_activation","response_block_exit","response_block_info_QA","response_instructions_1","response_instructions_2","response_keyboard_response","response_time","response_time_block_activation","response_time_block_exit","response_time_block_info_QA","response_time_instructions_1","response_time_instructions_2","response_time_keyboard_response","round_decimals","sampler_backend","sound_buf_size","sound_channels","sound_freq","sound_sample_size","start","stimulus","subject_age","subject_education","subject_gender","subject_german_native","subject_handedness","subject_language_other","subject_nr","subject_other_native_lang","subject_parity","time_block_activation","time_block_exit","time_block_info_QA","time_cont_e_block_message","time_e_block_loop","time_e_block_sequence","time_end_of_experiment","time_experiment","time_experimental_loop","time_form_consent","time_info_forms","time_instructions_1","time_instructions_2","time_keyboard_response","time_listen_message","time_logger","time_p_block_loop","time_p_block_sequence","time_p_feedback","time_pause_feedback","time_personal_details_form_1","time_personal_details_form_2","time_post_loop_blank","time_practice_loop","time_pre_e_block_message","time_pre_p_block_message","time_reset_feedback","time_stimulus_image","time_stimulus_sound","time_timeout_message","time_timeout_sound","time_trial_sequence","title","total_correct","total_response_time","total_responses","uniform_coordinates","width"
"100","yes","100","1210","1210","white","no","xpyriment","Ich habe die obigen Informationen gelesen und verstanden.","legacy","legacy","0","uniform","1","0","NA","undefined","undefined","1","f","0","0","NA","NA","NA","NA","NA","0","0","0","0","0","0","0","0","0","0","0","NA","NA","0","0","0","0","NA","0","0","0","0","0","0","0","Wed Oct 25 12:06:56 2017","Forced-choice identification task with a practice and an experimental phase","yes","NAP_GER_AA_4blocks_noglides.osexp","/Users/aviadalbert/Documents/Academisch/UoC/Dissertation/Experiment/OpenSesame/NAP-FC/NAP_GER_AA_4blocks_noglides","yes","no","sans","no","20","no","black","no","Weiter","yes","768","legacy","0","0","0","/Users/aviadalbert/Documents/Academisch/UoC/Dissertation/Experiment/OpenSesame/NAP-FC/NAP_GER_AA_4blocks_noglides/subject-17.csv","xpyriment","Jazzy James","3.1.9","yes","yes","59a800d99ad5a1025d81bb03","59a801616c613b0251691de0","yes","no","0","f","f","NA","NA","return","return","f","1210","2729","NA","NA","20661","20424","1210","2","legacy","1024","1","44100","-16","experiment","flal","3","2","1","0","1","English, norwegian and danish","17","","odd","9532349","NA","NA","NA","NA","NA","NA","8150203","NA","8150204","8150203","9490975","9511640","9536785","9535281","9537996","9535079","9532345","NA","NA","9384722","9432285","NA","9532131","NA","9532349","NA","9536785","9536785","NA","NA","9535278","NAP perception","1","1210","1","yes","1024"
"100","yes","100","930.5","930.5","white","no","xpyriment","Ich habe die obigen Informationen gelesen und verstanden.","legacy","legacy","0","uniform","1","0","NA","undefined","undefined","1","j","0","0","NA","NA","NA","NA","NA","0","0","0","0","0","0","1","1","1","0","0","NA","NA","0","0","0","0","NA","0","0","1","1","1","1","1","Wed Oct 25 12:06:56 2017","Forced-choice identification task with a practice and an experimental phase","yes","NAP_GER_AA_4blocks_noglides.osexp","/Users/aviadalbert/Documents/Academisch/UoC/Dissertation/Experiment/OpenSesame/NAP-FC/NAP_GER_AA_4blocks_noglides","yes","no","sans","no","20","no","black","no","Weiter","yes","768","legacy","1","1","0","/Users/aviadalbert/Documents/Academisch/UoC/Dissertation/Experiment/OpenSesame/NAP-FC/NAP_GER_AA_4blocks_noglides/subject-17.csv","xpyriment","Jazzy James","3.1.9","yes","yes","59a800d99ad5a1025d81bb03","59a801616c613b0251691de0","yes","no","0","j","f","NA","NA","return","return","j","651","2729","NA","NA","20661","20424","651","2","legacy","1024","1","44100","-16","experiment","lepal","3","2","1","0","1","English, norwegian and danish","17","","odd","9532349","NA","NA","NA","NA","NA","NA","8150203","NA","8150204","8150203","9490975","9511640","9539777","9538269","9540429","9535079","9532345","NA","NA","9384722","9432285","NA","9532131","NA","9532349","NA","9539777","9539777","NA","NA","9538265","NAP perception","2","1861","2","yes","1024"
"100","yes","100","923.666666667","923.666666667","white","no","xpyriment","Ich habe die obigen Informationen gelesen und verstanden.","legacy","legacy","0","uniform","1","0","NA","undefined","undefined","1","j","0","0","NA","NA","NA","NA","NA","0","0","0","0","0","0","2","2","2","0","0","NA","NA","0","0","0","0","NA","0","0","2","2","2","2","2","Wed Oct 25 12:06:56 2017","Forced-choice identification task with a practice and an experimental phase","yes","NAP_GER_AA_4blocks_noglides.osexp","/Users/aviadalbert/Documents/Academisch/UoC/Dissertation/Experiment/OpenSesame/NAP-FC/NAP_GER_AA_4blocks_noglides","yes","no","sans","no","20","no","black","no","Weiter","yes","768","legacy","2","2","0","/Users/aviadalbert/Documents/Academisch/UoC/Dissertation/Experiment/OpenSesame/NAP-FC/NAP_GER_AA_4blocks_noglides/subject-17.csv","xpyriment","Jazzy James","3.1.9","yes","yes","59a800d99ad5a1025d81bb03","59a801616c613b0251691de0","yes","no","0","j","f","NA","NA","return","return","j","910","2729","NA","NA","20661","20424","910","2","legacy","1024","1","44100","-16","experiment","emtal","3","2","1","0","1","English, norwegian and danish","17","","odd","9532349","NA","NA","NA","NA","NA","NA","8150203","NA","8150204","8150203","9490975","9511640","9542189","9540686","9543100","9535079","9532345","NA","NA","9384722","9432285","NA","9532131","NA","9532349","NA","9542189","9542189","NA","NA","9540682","NAP perception","3","2771","3","yes","1024"
"100","yes","100","939.75","939.75","white","no","xpyriment","Ich habe die obigen Informationen gelesen und verstanden.","legacy","legacy","0","uniform","1","0","NA","undefined","undefined","1","f","0","0","NA","NA","NA","NA","NA","0","0","0","0","0","0","3","3","3","0","0","NA","NA","0","0","0","0","NA","0","0","3","3","3","3","3","Wed Oct 25 12:06:56 2017","Forced-choice identification task with a practice and an experimental phase","yes","NAP_GER_AA_4blocks_noglides.osexp","/Users/aviadalbert/Documents/Academisch/UoC/Dissertation/Experiment/OpenSesame/NAP-FC/NAP_GER_AA_4blocks_noglides","yes","no","sans","no","20","no","black","no","Weiter","yes","768","legacy","3","3","0","/Users/aviadalbert/Documents/Academisch/UoC/Dissertation/Experiment/OpenSesame/NAP-FC/NAP_GER_AA_4blocks_noglides/subject-17.csv","xpyriment","Jazzy James","3.1.9","yes","yes","59a800d99ad5a1025d81bb03","59a801616c613b0251691de0","yes","no","0","f","f","NA","NA","return","return","f","988","2729","NA","NA","20661","20424","988","2","legacy","1024","1","44100","-16","experiment","ʃpal","3","2","1","0","1","English, norwegian and danish","17","","odd","9532349","NA","NA","NA","NA","NA","NA","8150203","NA","8150204","8150203","9490975","9511640","9544890","9543383","9545879","9535079","9532345","NA","NA","9384722","9432285","NA","9532131","NA","9532349","NA","9544890","9544890","NA","NA","9543379","NAP perception","4","3759","4","yes","1024"
"100","yes","100","884.2","884.2","white","no","xpyriment","Ich habe die obigen Informationen gelesen und verstanden.","legacy","legacy","0","uniform","1","0","NA","undefined","undefined","1","j","0","0","NA","NA","NA","NA","NA","0","0","0","0","0","0","4","4","4","0","0","NA","NA","0","0","0","0","NA","0","0","4","4","4","4","4","Wed Oct 25 12:06:56 2017","Forced-choice identification task with a practice and an experimental phase","yes","NAP_GER_AA_4blocks_noglides.osexp","/Users/aviadalbert/Documents/Academisch/UoC/Dissertation/Experiment/OpenSesame/NAP-FC/NAP_GER_AA_4blocks_noglides","yes","no","sans","no","20","no","black","no","Weiter","yes","768","legacy","4","4","0","/Users/aviadalbert/Documents/Academisch/UoC/Dissertation/Experiment/OpenSesame/NAP-FC/NAP_GER_AA_4blocks_noglides/subject-17.csv","xpyriment","Jazzy James","3.1.9","yes","yes","59a800d99ad5a1025d81bb03","59a801616c613b0251691de0","yes","no","0","j","f","NA","NA","return","return","j","662","2729","NA","NA","20661","20424","662","2","legacy","1024","1","44100","-16","experiment","nefal","3","2","1","0","1","English, norwegian and danish","17","","odd","9532349","NA","NA","NA","NA","NA","NA","8150203","NA","8150204","8150203","9490975","9511640","9547668","9546164","9548331","9535079","9532345","NA","NA","9384722","9432285","NA","9532131","NA","9532349","NA","9547667","9547667","NA","NA","9546160","NAP perception","5","4421","5","yes","1024"
"100","yes","100","866.833333333","866.833333333","white","no","xpyriment","Ich habe die obigen Informationen gelesen und verstanden.","legacy","legacy","0","uniform","1","0","NA","undefined","undefined","1","f","0","0","NA","NA","NA","NA","NA","0","0","0","0","0","0","5","5","5","0","0","NA","NA","0","0","0","0","NA","0","0","5","5","5","5","5","Wed Oct 25 12:06:56 2017","Forced-choice identification task with a practice and an experimental phase","yes","NAP_GER_AA_4blocks_noglides.osexp","/Users/aviadalbert/Documents/Academisch/UoC/Dissertation/Experiment/OpenSesame/NAP-FC/NAP_GER_AA_4blocks_noglides","yes","no","sans","no","20","no","black","no","Weiter","yes","768","legacy","5","5","0","/Users/aviadalbert/Documents/Academisch/UoC/Dissertation/Experiment/OpenSesame/NAP-FC/NAP_GER_AA_4blocks_noglides/subject-17.csv","xpyriment","Jazzy James","3.1.9","yes","yes","59a800d99ad5a1025d81bb03","59a801616c613b0251691de0","yes","no","0","f","f","NA","NA","return","return","f","780","2729","NA","NA","20661","20424","780","2","legacy","1024","1","44100","-16","experiment","sfal","3","2","1","0","1","English, norwegian and danish","17","","odd","9532349","NA","NA","NA","NA","NA","NA","8150203","NA","8150204","8150203","9490975","9511640","9550108","9548603","9550889","9535079","9532345","NA","NA","9384722","9432285","NA","9532131","NA","9532349","NA","9550108","9550108","NA","NA","9548599","NAP perception","6","5201","6","yes","1024"
"85.7142857143","yes","85.7142857143","863.142857143","863.142857143","white","no","xpyriment","Ich habe die obigen Informationen gelesen und verstanden.","legacy","legacy","0","uniform","0","0","NA","undefined","undefined","0","f","0","0","NA","NA","NA","NA","NA","0","0","0","0","0","0","6","6","6","0","0","NA","NA","0","0","0","0","NA","0","0","6","6","6","6","6","Wed Oct 25 12:06:56 2017","Forced-choice identification task with a practice and an experimental phase","yes","NAP_GER_AA_4blocks_noglides.osexp","/Users/aviadalbert/Documents/Academisch/UoC/Dissertation/Experiment/OpenSesame/NAP-FC/NAP_GER_AA_4blocks_noglides","yes","no","sans","no","20","no","black","no","Weiter","yes","768","legacy","6","6","0","/Users/aviadalbert/Documents/Academisch/UoC/Dissertation/Experiment/OpenSesame/NAP-FC/NAP_GER_AA_4blocks_noglides/subject-17.csv","xpyriment","Jazzy James","3.1.9","yes","yes","59a800d99ad5a1025d81bb03","59a801616c613b0251691de0","yes","no","0","j","f","NA","NA","return","return","j","841","2729","NA","NA","20661","20424","841","2","legacy","1024","1","44100","-16","experiment","zmal","3","2","1","0","1","English, norwegian and danish","17","","odd","9532349","NA","NA","NA","NA","NA","NA","8150203","NA","8150204","8150203","9490975","9511640","9552664","9551160","9553506","9535079","9532345","NA","NA","9384722","9432285","NA","9532131","NA","9532349","NA","9552664","9552664","NA","NA","9551156","NAP perception","6","6042","7","yes","1024"
"87.5","yes","87.5","837.25","837.25","white","no","xpyriment","Ich habe die obigen Informationen gelesen und verstanden.","legacy","legacy","0","uniform","1","0","NA","undefined","undefined","1","j","0","0","NA","NA","NA","NA","NA","0","0","0","0","0","0","7","7","7","0","0","NA","NA","0","0","0","0","NA","0","0","7","7","7","7","7","Wed Oct 25 12:06:56 2017","Forced-choice identification task with a practice and an experimental phase","yes","NAP_GER_AA_4blocks_noglides.osexp","/Users/aviadalbert/Documents/Academisch/UoC/Dissertation/Experiment/OpenSesame/NAP-FC/NAP_GER_AA_4blocks_noglides","yes","no","sans","no","20","no","black","no","Weiter","yes","768","legacy","7","7","0","/Users/aviadalbert/Documents/Academisch/UoC/Dissertation/Experiment/OpenSesame/NAP-FC/NAP_GER_AA_4blocks_noglides/subject-17.csv","xpyriment","Jazzy James","3.1.9","yes","yes","59a800d99ad5a1025d81bb03","59a801616c613b0251691de0","yes","no","0","j","f","NA","NA","return","return","j","656","2729","NA","NA","20661","20424","656","2","legacy","1024","1","44100","-16","experiment","mesal","3","2","1","0","1","English, norwegian and danish","17","","odd","9532349","NA","NA","NA","NA","NA","NA","8150203","NA","8150204","8150203","9490975","9511640","9555308","9553802","9555965","9535079","9532345","NA","NA","9384722","9432285","NA","9532131","NA","9532349","NA","9555308","9555308","NA","NA","9553798","NAP perception","7","6698","8","yes","1024"
"88.8888888889","yes","88.8888888889","833.666666667","833.666666667","white","no","xpyriment","Ich habe die obigen Informationen gelesen und verstanden.","legacy","legacy","0","uniform","1","0","NA","undefined","undefined","1","j","0","0","NA","NA","NA","NA","NA","0","0","0","0","0","0","8","8","8","0","0","NA","NA","0","0","0","0","NA","0","0","8","8","8","8","8","Wed Oct 25 12:06:56 2017","Forced-choice identification task with a practice and an experimental phase","yes","NAP_GER_AA_4blocks_noglides.osexp","/Users/aviadalbert/Documents/Academisch/UoC/Dissertation/Experiment/OpenSesame/NAP-FC/NAP_GER_AA_4blocks_noglides","yes","no","sans","no","20","no","black","no","Weiter","yes","768","legacy","8","8","0","/Users/aviadalbert/Documents/Academisch/UoC/Dissertation/Experiment/OpenSesame/NAP-FC/NAP_GER_AA_4blocks_noglides/subject-17.csv","xpyriment","Jazzy James","3.1.9","yes","yes","59a800d99ad5a1025d81bb03","59a801616c613b0251691de0","yes","no","0","j","f","NA","NA","return","return","j","805","2729","NA","NA","20661","20424","805","2","legacy","1024","1","44100","-16","experiment","enval","3","2","1","0","1","English, norwegian and danish","17","","odd","9532349","NA","NA","NA","NA","NA","NA","8150203","NA","8150204","8150203","9490975","9511640","9557731","9556227","9558537","9535079","9532345","NA","NA","9384722","9432285","NA","9532131","NA","9532349","NA","9557731","9557731","NA","NA","9556223","NAP perception","8","7503","9","yes","1024"
"90","yes","90","816.5","816.5","white","no","xpyriment","Ich habe die obigen Informationen gelesen und verstanden.","legacy","legacy","0","uniform","1","0","NA","undefined","undefined","1","f","0","0","NA","NA","NA","NA","NA","0","0","0","0","0","0","9","9","9","0","0","NA","NA","0","0","0","0","NA","0","0","9","9","9","9","9","Wed Oct 25 12:06:56 2017","Forced-choice identification task with a practice and an experimental phase","yes","NAP_GER_AA_4blocks_noglides.osexp","/Users/aviadalbert/Documents/Academisch/UoC/Dissertation/Experiment/OpenSesame/NAP-FC/NAP_GER_AA_4blocks_noglides","yes","no","sans","no","20","no","black","no","Weiter","yes","768","legacy","9","9","0","/Users/aviadalbert/Documents/Academisch/UoC/Dissertation/Experiment/OpenSesame/NAP-FC/NAP_GER_AA_4blocks_noglides/subject-17.csv","xpyriment","Jazzy James","3.1.9","yes","yes","59a800d99ad5a1025d81bb03","59a801616c613b0251691de0","yes","no","0","f","f","NA","NA","return","return","f","662","2729","NA","NA","20661","20424","662","2","legacy","1024","1","44100","-16","experiment","vlal","3","2","1","0","1","English, norwegian and danish","17","","odd","9532349","NA","NA","NA","NA","NA","NA","8150203","NA","8150204","8150203","9490975","9511640","9560308","9558803","9560972","9535079","9532345","NA","NA","9384722","9432285","NA","9532131","NA","9532349","NA","9560307","9560307","NA","NA","9558799","NAP perception","9","8165","10","yes","1024"
"100","yes","100","1368","1368","white","no","xpyriment","Ich habe die obigen Informationen gelesen und verstanden.","legacy","legacy","0","uniform","1","0","0","undefined","undefined","1","j","2","1","NA","0","1","0","0","0","0","0","0","0","0","10","10","10","0","0","0","NA","0","0","2","0","0","0","2","10","10","10","10","10","Wed Oct 25 12:06:56 2017","Forced-choice identification task with a practice and an experimental phase","yes","NAP_GER_AA_4blocks_noglides.osexp","/Users/aviadalbert/Documents/Academisch/UoC/Dissertation/Experiment/OpenSesame/NAP-FC/NAP_GER_AA_4blocks_noglides","yes","no","sans","no","20","no","black","no","Weiter","yes","768","legacy","0","9","0","/Users/aviadalbert/Documents/Academisch/UoC/Dissertation/Experiment/OpenSesame/NAP-FC/NAP_GER_AA_4blocks_noglides/subject-17.csv","xpyriment","Jazzy James","3.1.9","yes","yes","59a800d99ad5a1025d81bb03","59a801616c613b0251691de0","no","no","0","j","f","space","NA","return","return","j","1368","1957","20963","NA","20661","20424","1368","2","legacy","1024","1","44100","-16","experiment","sefal","3","2","1","0","1","English, norwegian and danish","17","","odd","9584175","9562685","NA","NA","9586133","9584171","NA","8150203","9583704","8150204","8150203","9490975","9511640","9587855","9586352","9589224","9535079","9532345","9562684","NA","9384722","9432285","9561033","9532131","9584174","9532349","NA","9587855","9587855","NA","NA","9586348","NAP perception","1","1368","1","yes","1024"
"100","yes","100","1287.5","1287.5","white","no","xpyriment","Ich habe die obigen Informationen gelesen und verstanden.","legacy","legacy","0","uniform","1","0","0","undefined","undefined","1","j","2","1","NA","0","1","0","0","0","0","0","0","0","0","11","11","11","0","0","0","NA","0","0","2","0","0","0","2","11","11","11","11","11","Wed Oct 25 12:06:56 2017","Forced-choice identification task with a practice and an experimental phase","yes","NAP_GER_AA_4blocks_noglides.osexp","/Users/aviadalbert/Documents/Academisch/UoC/Dissertation/Experiment/OpenSesame/NAP-FC/NAP_GER_AA_4blocks_noglides","yes","no","sans","no","20","no","black","no","Weiter","yes","768","legacy","1","9","0","/Users/aviadalbert/Documents/Academisch/UoC/Dissertation/Experiment/OpenSesame/NAP-FC/NAP_GER_AA_4blocks_noglides/subject-17.csv","xpyriment","Jazzy James","3.1.9","yes","yes","59a800d99ad5a1025d81bb03","59a801616c613b0251691de0","no","no","0","j","f","space","NA","return","return","j","1207","1957","20963","NA","20661","20424","1207","2","legacy","1024","1","44100","-16","experiment","zemal","3","2","1","0","1","English, norwegian and danish","17","","odd","9584175","9562685","NA","NA","9586133","9584171","NA","8150203","9583704","8150204","8150203","9490975","9511640","9591018","9589513","9592226","9535079","9532345","9562684","NA","9384722","9432285","9561033","9532131","9584174","9532349","NA","9591018","9591018","NA","NA","9589509","NAP perception","2","2575","2","yes","1024"
"100","yes","100","1175","1175","white","no","xpyriment","Ich habe die obigen Informationen gelesen und verstanden.","legacy","legacy","0","uniform","1","0","0","undefined","undefined","1","j","2","1","NA","0","1","0","0","0","0","0","0","0","0","12","12","12","0","0","0","NA","0","0","2","0","0","0","2","12","12","12","12","12","Wed Oct 25 12:06:56 2017","Forced-choice identification task with a practice and an experimental phase","yes","NAP_GER_AA_4blocks_noglides.osexp","/Users/aviadalbert/Documents/Academisch/UoC/Dissertation/Experiment/OpenSesame/NAP-FC/NAP_GER_AA_4blocks_noglides","yes","no","sans","no","20","no","black","no","Weiter","yes","768","legacy","2","9","0","/Users/aviadalbert/Documents/Academisch/UoC/Dissertation/Experiment/OpenSesame/NAP-FC/NAP_GER_AA_4blocks_noglides/subject-17.csv","xpyriment","Jazzy James","3.1.9","yes","yes","59a800d99ad5a1025d81bb03","59a801616c613b0251691de0","no","no","0","j","f","space","NA","return","return","j","950","1957","20963","NA","20661","20424","950","2","legacy","1024","1","44100","-16","experiment","elmal","3","2","1","0","1","English, norwegian and danish","17","","odd","9584175","9562685","NA","NA","9586133","9584171","NA","8150203","9583704","8150204","8150203","9490975","9511640","9594016","9592513","9594967","9535079","9532345","9562684","NA","9384722","9432285","9561033","9532131","9584174","9532349","NA","9594016","9594016","NA","NA","9592509","NAP perception","3","3525","3","yes","1024"
"100","yes","100","1043","1043","white","no","xpyriment","Ich habe die obigen Informationen gelesen und verstanden.","legacy","legacy","0","uniform","1","0","0","undefined","undefined","1","j","2","1","NA","0","1","0","0","0","0","0","0","0","0","13","13","13","0","0","0","NA","0","0","2","0","0","0","2","13","13","13","13","13","Wed Oct 25 12:06:56 2017","Forced-choice identification task with a practice and an experimental phase","yes","NAP_GER_AA_4blocks_noglides.osexp","/Users/aviadalbert/Documents/Academisch/UoC/Dissertation/Experiment/OpenSesame/NAP-FC/NAP_GER_AA_4blocks_noglides","yes","no","sans","no","20","no","black","no","Weiter","yes","768","legacy","3","9","0","/Users/aviadalbert/Documents/Academisch/UoC/Dissertation/Experiment/OpenSesame/NAP-FC/NAP_GER_AA_4blocks_noglides/subject-17.csv","xpyriment","Jazzy James","3.1.9","yes","yes","59a800d99ad5a1025d81bb03","59a801616c613b0251691de0","no","no","0","j","f","space","NA","return","return","j","647","1957","20963","NA","20661","20424","647","2","legacy","1024","1","44100","-16","experiment","emsal","3","2","1","0","1","English, norwegian and danish","17","","odd","9584175","9562685","NA","NA","9586133","9584171","NA","8150203","9583704","8150204","8150203","9490975","9511640","9596753","9595246","9597401","9535079","9532345","9562684","NA","9384722","9432285","9561033","9532131","9584174","9532349","NA","9596753","9596753","NA","NA","9595242","NAP perception","4","4172","4","yes","1024"
"100","yes","100","997.4","997.4","white","no","xpyriment","Ich habe die obigen Informationen gelesen und verstanden.","legacy","legacy","0","uniform","1","0","0","undefined","undefined","1","j","2","1","NA","0","1","0","0","0","0","0","0","0","0","14","14","14","0","0","0","NA","0","0","2","0","0","0","2","14","14","14","14","14","Wed Oct 25 12:06:56 2017","Forced-choice identification task with a practice and an experimental phase","yes","NAP_GER_AA_4blocks_noglides.osexp","/Users/aviadalbert/Documents/Academisch/UoC/Dissertation/Experiment/OpenSesame/NAP-FC/NAP_GER_AA_4blocks_noglides","yes","no","sans","no","20","no","black","no","Weiter","yes","768","legacy","4","9","0","/Users/aviadalbert/Documents/Academisch/UoC/Dissertation/Experiment/OpenSesame/NAP-FC/NAP_GER_AA_4blocks_noglides/subject-17.csv","xpyriment","Jazzy James","3.1.9","yes","yes","59a800d99ad5a1025d81bb03","59a801616c613b0251691de0","no","no","0","j","f","space","NA","return","return","j","815","1957","20963","NA","20661","20424","815","2","legacy","1024","1","44100","-16","experiment","mesal","3","2","1","0","1","English, norwegian and danish","17","","odd","9584175","9562685","NA","NA","9586133","9584171","NA","8150203","9583704","8150204","8150203","9490975","9511640","9599180","9597677","9599996","9535079","9532345","9562684","NA","9384722","9432285","9561033","9532131","9584174","9532349","NA","9599180","9599180","NA","NA","9597673","NAP perception","5","4987","5","yes","1024"
"100","yes","100","969.833333333","969.833333333","white","no","xpyriment","Ich habe die obigen Informationen gelesen und verstanden.","legacy","legacy","0","uniform","1","0","0","undefined","undefined","1","j","2","1","NA","0","1","0","0","0","0","0","0","0","0","15","15","15","0","0","0","NA","0","0","2","0","0","0","2","15","15","15","15","15","Wed Oct 25 12:06:56 2017","Forced-choice identification task with a practice and an experimental phase","yes","NAP_GER_AA_4blocks_noglides.osexp","/Users/aviadalbert/Documents/Academisch/UoC/Dissertation/Experiment/OpenSesame/NAP-FC/NAP_GER_AA_4blocks_noglides","yes","no","sans","no","20","no","black","no","Weiter","yes","768","legacy","5","9","0","/Users/aviadalbert/Documents/Academisch/UoC/Dissertation/Experiment/OpenSesame/NAP-FC/NAP_GER_AA_4blocks_noglides/subject-17.csv","xpyriment","Jazzy James","3.1.9","yes","yes","59a800d99ad5a1025d81bb03","59a801616c613b0251691de0","no","no","0","j","f","space","NA","return","return","j","832","1957","20963","NA","20661","20424","832","2","legacy","1024","1","44100","-16","experiment","enpal","3","2","1","0","1","English, norwegian and danish","17","","odd","9584175","9562685","NA","NA","9586133","9584171","NA","8150203","9583704","8150204","8150203","9490975","9511640","9601785","9600277","9602618","9535079","9532345","9562684","NA","9384722","9432285","9561033","9532131","9584174","9532349","NA","9601785","9601785","NA","NA","9600273","NAP perception","6","5819","6","yes","1024"
"100","yes","100","972.571428571","972.571428571","white","no","xpyriment","Ich habe die obigen Informationen gelesen und verstanden.","legacy","legacy","0","uniform","1","0","0","undefined","undefined","1","j","2","1","NA","0","1","0","0","0","0","0","0","0","0","16","16","16","0","0","0","NA","0","0","2","0","0","0","2","16","16","16","16","16","Wed Oct 25 12:06:56 2017","Forced-choice identification task with a practice and an experimental phase","yes","NAP_GER_AA_4blocks_noglides.osexp","/Users/aviadalbert/Documents/Academisch/UoC/Dissertation/Experiment/OpenSesame/NAP-FC/NAP_GER_AA_4blocks_noglides","yes","no","sans","no","20","no","black","no","Weiter","yes","768","legacy","6","9","0","/Users/aviadalbert/Documents/Academisch/UoC/Dissertation/Experiment/OpenSesame/NAP-FC/NAP_GER_AA_4blocks_noglides/subject-17.csv","xpyriment","Jazzy James","3.1.9","yes","yes","59a800d99ad5a1025d81bb03","59a801616c613b0251691de0","no","no","0","j","f","space","NA","return","return","j","989","1957","20963","NA","20661","20424","989","2","legacy","1024","1","44100","-16","experiment","velal","3","2","1","0","1","English, norwegian and danish","17","","odd","9584175","9562685","NA","NA","9586133","9584171","NA","8150203","9583704","8150204","8150203","9490975","9511640","9604412","9602909","9605402","9535079","9532345","9562684","NA","9384722","9432285","9561033","9532131","9584174","9532349","NA","9604412","9604412","NA","NA","9602905","NAP perception","7","6808","7","yes","1024"
"100","yes","100","952.25","952.25","white","no","xpyriment","Ich habe die obigen Informationen gelesen und verstanden.","legacy","legacy","0","uniform","1","0","0","undefined","undefined","1","f","2","1","NA","0","1","0","0","0","0","0","0","0","0","17","17","17","0","0","0","NA","0","0","2","0","0","0","2","17","17","17","17","17","Wed Oct 25 12:06:56 2017","Forced-choice identification task with a practice and an experimental phase","yes","NAP_GER_AA_4blocks_noglides.osexp","/Users/aviadalbert/Documents/Academisch/UoC/Dissertation/Experiment/OpenSesame/NAP-FC/NAP_GER_AA_4blocks_noglides","yes","no","sans","no","20","no","black","no","Weiter","yes","768","legacy","7","9","0","/Users/aviadalbert/Documents/Academisch/UoC/Dissertation/Experiment/OpenSesame/NAP-FC/NAP_GER_AA_4blocks_noglides/subject-17.csv","xpyriment","Jazzy James","3.1.9","yes","yes","59a800d99ad5a1025d81bb03","59a801616c613b0251691de0","no","no","0","f","f","space","NA","return","return","f","810","1957","20963","NA","20661","20424","810","2","legacy","1024","1","44100","-16","experiment","zval","3","2","1","0","1","English, norwegian and danish","17","","odd","9584175","9562685","NA","NA","9586133","9584171","NA","8150203","9583704","8150204","8150203","9490975","9511640","9607179","9605674","9607990","9535079","9532345","9562684","NA","9384722","9432285","9561033","9532131","9584174","9532349","NA","9607179","9607179","NA","NA","9605670","NAP perception","8","7618","8","yes","1024"
"100","yes","100","919.333333333","919.333333333","white","no","xpyriment","Ich habe die obigen Informationen gelesen und verstanden.","legacy","legacy","0","uniform","1","0","0","undefined","undefined","1","f","2","1","NA","0","1","0","0","0","0","0","0","0","0","18","18","18","0","0","0","NA","0","0","2","0","0","0","2","18","18","18","18","18","Wed Oct 25 12:06:56 2017","Forced-choice identification task with a practice and an experimental phase","yes","NAP_GER_AA_4blocks_noglides.osexp","/Users/aviadalbert/Documents/Academisch/UoC/Dissertation/Experiment/OpenSesame/NAP-FC/NAP_GER_AA_4blocks_noglides","yes","no","sans","no","20","no","black","no","Weiter","yes","768","legacy","8","9","0","/Users/aviadalbert/Documents/Academisch/UoC/Dissertation/Experiment/OpenSesame/NAP-FC/NAP_GER_AA_4blocks_noglides/subject-17.csv","xpyriment","Jazzy James","3.1.9","yes","yes","59a800d99ad5a1025d81bb03","59a801616c613b0251691de0","no","no","0","f","f","space","NA","return","return","f","656","1957","20963","NA","20661","20424","656","2","legacy","1024","1","44100","-16","experiment","zval","3","2","1","0","1","English, norwegian and danish","17","","odd","9584175","9562685","NA","NA","9586133","9584171","NA","8150203","9583704","8150204","8150203","9490975","9511640","9609781","9608274","9610438","9535079","9532345","9562684","NA","9384722","9432285","9561033","9532131","9584174","9532349","NA","9609781","9609781","NA","NA","9608270","NAP perception","9","8274","9","yes","1024"
"100","yes","100","922.7","922.7","white","no","xpyriment","Ich habe die obigen Informationen gelesen und verstanden.","legacy","legacy","0","uniform","1","0","0","undefined","undefined","1","f","2","1","NA","0","1","0","0","0","0","0","0","0","0","19","19","19","0","0","0","NA","0","0","2","0","0","0","2","19","19","19","19","19","Wed Oct 25 12:06:56 2017","Forced-choice identification task with a practice and an experimental phase","yes","NAP_GER_AA_4blocks_noglides.osexp","/Users/aviadalbert/Documents/Academisch/UoC/Dissertation/Experiment/OpenSesame/NAP-FC/NAP_GER_AA_4blocks_noglides","yes","no","sans","no","20","no","black","no","Weiter","yes","768","legacy","9","9","0","/Users/aviadalbert/Documents/Academisch/UoC/Dissertation/Experiment/OpenSesame/NAP-FC/NAP_GER_AA_4blocks_noglides/subject-17.csv","xpyriment","Jazzy James","3.1.9","yes","yes","59a800d99ad5a1025d81bb03","59a801616c613b0251691de0","no","no","0","f","f","space","NA","return","return","f","953","1957","20963","NA","20661","20424","953","2","legacy","1024","1","44100","-16","experiment","vlal","3","2","1","0","1","English, norwegian and danish","17","","odd","9584175","9562685","NA","NA","9586133","9584171","NA","8150203","9583704","8150204","8150203","9490975","9511640","9612212","9610708","9613167","9535079","9532345","9562684","NA","9384722","9432285","9561033","9532131","9584174","9532349","NA","9612211","9612212","NA","NA","9610704","NAP perception","10","9227","10","yes","1024"
"100","yes","100","925.636363636","925.636363636","white","no","xpyriment","Ich habe die obigen Informationen gelesen und verstanden.","legacy","legacy","0","uniform","1","0","0","undefined","undefined","1","f","2","1","NA","0","1","0","0","0","0","0","0","0","0","20","20","20","0","0","0","NA","0","0","2","0","0","0","2","20","20","20","20","20","Wed Oct 25 12:06:56 2017","Forced-choice identification task with a practice and an experimental phase","yes","NAP_GER_AA_4blocks_noglides.osexp","/Users/aviadalbert/Documents/Academisch/UoC/Dissertation/Experiment/OpenSesame/NAP-FC/NAP_GER_AA_4blocks_noglides","yes","no","sans","no","20","no","black","no","Weiter","yes","768","legacy","10","9","0","/Users/aviadalbert/Documents/Academisch/UoC/Dissertation/Experiment/OpenSesame/NAP-FC/NAP_GER_AA_4blocks_noglides/subject-17.csv","xpyriment","Jazzy James","3.1.9","yes","yes","59a800d99ad5a1025d81bb03","59a801616c613b0251691de0","no","no","0","f","f","space","NA","return","return","f","955","1957","20963","NA","20661","20424","955","2","legacy","1024","1","44100","-16","experiment","sfal","3","2","1","0","1","English, norwegian and danish","17","","odd","9584175","9562685","NA","NA","9586133","9584171","NA","8150203","9583704","8150204","8150203","9490975","9511640","9614948","9613440","9615904","9535079","9532345","9562684","NA","9384722","9432285","9561033","9532131","9584174","9532349","NA","9614947","9614947","NA","NA","9613436","NAP perception","11","10182","11","yes","1024"
"100","yes","100","936","936","white","no","xpyriment","Ich habe die obigen Informationen gelesen und verstanden.","legacy","legacy","0","uniform","1","0","0","undefined","undefined","1","j","2","1","NA","0","1","0","0","0","0","0","0","0","0","21","21","21","0","0","0","NA","0","0","2","0","0","0","2","21","21","21","21","21","Wed Oct 25 12:06:56 2017","Forced-choice identification task with a practice and an experimental phase","yes","NAP_GER_AA_4blocks_noglides.osexp","/Users/aviadalbert/Documents/Academisch/UoC/Dissertation/Experiment/OpenSesame/NAP-FC/NAP_GER_AA_4blocks_noglides","yes","no","sans","no","20","no","black","no","Weiter","yes","768","legacy","11","9","0","/Users/aviadalbert/Documents/Academisch/UoC/Dissertation/Experiment/OpenSesame/NAP-FC/NAP_GER_AA_4blocks_noglides/subject-17.csv","xpyriment","Jazzy James","3.1.9","yes","yes","59a800d99ad5a1025d81bb03","59a801616c613b0251691de0","no","no","0","j","f","space","NA","return","return","j","1050","1957","20963","NA","20661","20424","1050","2","legacy","1024","1","44100","-16","experiment","evnal","3","2","1","0","1","English, norwegian and danish","17","","odd","9584175","9562685","NA","NA","9586133","9584171","NA","8150203","9583704","8150204","8150203","9490975","9511640","9617664","9616158","9618715","9535079","9532345","9562684","NA","9384722","9432285","9561033","9532131","9584174","9532349","NA","9617663","9617664","NA","NA","9616155","NAP perception","12","11232","12","yes","1024"
"100","yes","100","915.307692308","915.307692308","white","no","xpyriment","Ich habe die obigen Informationen gelesen und verstanden.","legacy","legacy","0","uniform","1","0","0","undefined","undefined","1","j","2","1","NA","0","1","0","0","0","0","0","0","0","0","22","22","22","0","0","0","NA","0","0","2","0","0","0","2","22","22","22","22","22","Wed Oct 25 12:06:56 2017","Forced-choice identification task with a practice and an experimental phase","yes","NAP_GER_AA_4blocks_noglides.osexp","/Users/aviadalbert/Documents/Academisch/UoC/Dissertation/Experiment/OpenSesame/NAP-FC/NAP_GER_AA_4blocks_noglides","yes","no","sans","no","20","no","black","no","Weiter","yes","768","legacy","12","9","0","/Users/aviadalbert/Documents/Academisch/UoC/Dissertation/Experiment/OpenSesame/NAP-FC/NAP_GER_AA_4blocks_noglides/subject-17.csv","xpyriment","Jazzy James","3.1.9","yes","yes","59a800d99ad5a1025d81bb03","59a801616c613b0251691de0","no","no","0","j","f","space","NA","return","return","j","667","1957","20963","NA","20661","20424","667","2","legacy","1024","1","44100","-16","experiment","nepal","3","2","1","0","1","English, norwegian and danish","17","","odd","9584175","9562685","NA","NA","9586133","9584171","NA","8150203","9583704","8150204","8150203","9490975","9511640","9620498","9618995","9621166","9535079","9532345","9562684","NA","9384722","9432285","9561033","9532131","9584174","9532349","NA","9620498","9620498","NA","NA","9618991","NAP perception","13","11899","13","yes","1024"
"100","yes","100","916.5","916.5","white","no","xpyriment","Ich habe die obigen Informationen gelesen und verstanden.","legacy","legacy","0","uniform","1","0","0","undefined","undefined","1","j","2","1","NA","0","1","0","0","0","0","0","0","0","0","23","23","23","0","0","0","NA","0","0","2","0","0","0","2","23","23","23","23","23","Wed Oct 25 12:06:56 2017","Forced-choice identification task with a practice and an experimental phase","yes","NAP_GER_AA_4blocks_noglides.osexp","/Users/aviadalbert/Documents/Academisch/UoC/Dissertation/Experiment/OpenSesame/NAP-FC/NAP_GER_AA_4blocks_noglides","yes","no","sans","no","20","no","black","no","Weiter","yes","768","legacy","13","9","0","/Users/aviadalbert/Documents/Academisch/UoC/Dissertation/Experiment/OpenSesame/NAP-FC/NAP_GER_AA_4blocks_noglides/subject-17.csv","xpyriment","Jazzy James","3.1.9","yes","yes","59a800d99ad5a1025d81bb03","59a801616c613b0251691de0","no","no","0","j","f","space","NA","return","return","j","932","1957","20963","NA","20661","20424","932","2","legacy","1024","1","44100","-16","experiment","leval","3","2","1","0","1","English, norwegian and danish","17","","odd","9584175","9562685","NA","NA","9586133","9584171","NA","8150203","9583704","8150204","8150203","9490975","9511640","9622932","9621426","9623865","9535079","9532345","9562684","NA","9384722","9432285","9561033","9532131","9584174","9532349","NA","9622932","9622932","NA","NA","9621422","NAP perception","14","12831","14","yes","1024"
"100","yes","100","897.6","897.6","white","no","xpyriment","Ich habe die obigen Informationen gelesen und verstanden.","legacy","legacy","0","uniform","1","0","0","undefined","undefined","1","j","2","1","NA","0","1","0","0","0","0","0","0","0","0","24","24","24","0","0","0","NA","0","0","2","0","0","0","2","24","24","24","24","24","Wed Oct 25 12:06:56 2017","Forced-choice identification task with a practice and an experimental phase","yes","NAP_GER_AA_4blocks_noglides.osexp","/Users/aviadalbert/Documents/Academisch/UoC/Dissertation/Experiment/OpenSesame/NAP-FC/NAP_GER_AA_4blocks_noglides","yes","no","sans","no","20","no","black","no","Weiter","yes","768","legacy","14","9","0","/Users/aviadalbert/Documents/Academisch/UoC/Dissertation/Experiment/OpenSesame/NAP-FC/NAP_GER_AA_4blocks_noglides/subject-17.csv","xpyriment","Jazzy James","3.1.9","yes","yes","59a800d99ad5a1025d81bb03","59a801616c613b0251691de0","no","no","0","j","f","space","NA","return","return","j","633","1957","20963","NA","20661","20424","633","2","legacy","1024","1","44100","-16","experiment","emnal","3","2","1","0","1","English, norwegian and danish","17","","odd","9584175","9562685","NA","NA","9586133","9584171","NA","8150203","9583704","8150204","8150203","9490975","9511640","9625636","9624132","9626270","9535079","9532345","9562684","NA","9384722","9432285","9561033","9532131","9584174","9532349","NA","9625636","9625636","NA","NA","9624128","NAP perception","15","13464","15","yes","1024"
"100","yes","100","899.3125","899.3125","white","no","xpyriment","Ich habe die obigen Informationen gelesen und verstanden.","legacy","legacy","0","uniform","1","0","0","undefined","undefined","1","j","2","1","NA","0","1","0","0","0","0","0","0","0","0","25","25","25","0","0","0","NA","0","0","2","0","0","0","2","25","25","25","25","25","Wed Oct 25 12:06:56 2017","Forced-choice identification task with a practice and an experimental phase","yes","NAP_GER_AA_4blocks_noglides.osexp","/Users/aviadalbert/Documents/Academisch/UoC/Dissertation/Experiment/OpenSesame/NAP-FC/NAP_GER_AA_4blocks_noglides","yes","no","sans","no","20","no","black","no","Weiter","yes","768","legacy","15","9","0","/Users/aviadalbert/Documents/Academisch/UoC/Dissertation/Experiment/OpenSesame/NAP-FC/NAP_GER_AA_4blocks_noglides/subject-17.csv","xpyriment","Jazzy James","3.1.9","yes","yes","59a800d99ad5a1025d81bb03","59a801616c613b0251691de0","no","no","0","j","f","space","NA","return","return","j","925","1957","20963","NA","20661","20424","925","2","legacy","1024","1","44100","-16","experiment","elpal","3","2","1","0","1","English, norwegian and danish","17","","odd","9584175","9562685","NA","NA","9586133","9584171","NA","8150203","9583704","8150204","8150203","9490975","9511640","9628039","9626536","9628965","9535079","9532345","9562684","NA","9384722","9432285","9561033","9532131","9584174","9532349","NA","9628039","9628039","NA","NA","9626532","NAP perception","16","14389","16","yes","1024"
"100","yes","100","895.823529412","895.823529412","white","no","xpyriment","Ich habe die obigen Informationen gelesen und verstanden.","legacy","legacy","0","uniform","1","0","0","undefined","undefined","1","j","2","1","NA","0","1","0","0","0","0","0","0","0","0","26","26","26","0","0","0","NA","0","0","2","0","0","0","2","26","26","26","26","26","Wed Oct 25 12:06:56 2017","Forced-choice identification task with a practice and an experimental phase","yes","NAP_GER_AA_4blocks_noglides.osexp","/Users/aviadalbert/Documents/Academisch/UoC/Dissertation/Experiment/OpenSesame/NAP-FC/NAP_GER_AA_4blocks_noglides","yes","no","sans","no","20","no","black","no","Weiter","yes","768","legacy","16","9","0","/Users/aviadalbert/Documents/Academisch/UoC/Dissertation/Experiment/OpenSesame/NAP-FC/NAP_GER_AA_4blocks_noglides/subject-17.csv","xpyriment","Jazzy James","3.1.9","yes","yes","59a800d99ad5a1025d81bb03","59a801616c613b0251691de0","no","no","0","j","f","space","NA","return","return","j","840","1957","20963","NA","20661","20424","840","2","legacy","1024","1","44100","-16","experiment","sepal","3","2","1","0","1","English, norwegian and danish","17","","odd","9584175","9562685","NA","NA","9586133","9584171","NA","8150203","9583704","8150204","8150203","9490975","9511640","9630740","9629236","9631582","9535079","9532345","9562684","NA","9384722","9432285","9561033","9532131","9584174","9532349","NA","9630739","9630740","NA","NA","9629232","NAP perception","17","15229","17","yes","1024"
"100","yes","100","917.888888889","917.888888889","white","no","xpyriment","Ich habe die obigen Informationen gelesen und verstanden.","legacy","legacy","0","uniform","1","0","0","undefined","undefined","1","f","2","1","NA","0","1","0","0","0","0","0","0","0","0","27","27","27","0","0","0","NA","0","0","2","0","0","0","2","27","27","27","27","27","Wed Oct 25 12:06:56 2017","Forced-choice identification task with a practice and an experimental phase","yes","NAP_GER_AA_4blocks_noglides.osexp","/Users/aviadalbert/Documents/Academisch/UoC/Dissertation/Experiment/OpenSesame/NAP-FC/NAP_GER_AA_4blocks_noglides","yes","no","sans","no","20","no","black","no","Weiter","yes","768","legacy","17","9","0","/Users/aviadalbert/Documents/Academisch/UoC/Dissertation/Experiment/OpenSesame/NAP-FC/NAP_GER_AA_4blocks_noglides/subject-17.csv","xpyriment","Jazzy James","3.1.9","yes","yes","59a800d99ad5a1025d81bb03","59a801616c613b0251691de0","no","no","0","f","f","space","NA","return","return","f","1293","1957","20963","NA","20661","20424","1293","2","legacy","1024","1","44100","-16","experiment","flal","3","2","1","0","1","English, norwegian and danish","17","","odd","9584175","9562685","NA","NA","9586133","9584171","NA","8150203","9583704","8150204","8150203","9490975","9511640","9633364","9631860","9634658","9535079","9532345","9562684","NA","9384722","9432285","9561033","9532131","9584174","9532349","NA","9633364","9633364","NA","NA","9631856","NAP perception","18","16522","18","yes","1024"
"100","yes","100","950.105263158","950.105263158","white","no","xpyriment","Ich habe die obigen Informationen gelesen und verstanden.","legacy","legacy","0","uniform","1","0","0","undefined","undefined","1","j","2","1","NA","0","1","0","0","0","0","0","0","0","0","28","28","28","0","0","0","NA","0","0","2","0","0","0","2","28","28","28","28","28","Wed Oct 25 12:06:56 2017","Forced-choice identification task with a practice and an experimental phase","yes","NAP_GER_AA_4blocks_noglides.osexp","/Users/aviadalbert/Documents/Academisch/UoC/Dissertation/Experiment/OpenSesame/NAP-FC/NAP_GER_AA_4blocks_noglides","yes","no","sans","no","20","no","black","no","Weiter","yes","768","legacy","18","9","0","/Users/aviadalbert/Documents/Academisch/UoC/Dissertation/Experiment/OpenSesame/NAP-FC/NAP_GER_AA_4blocks_noglides/subject-17.csv","xpyriment","Jazzy James","3.1.9","yes","yes","59a800d99ad5a1025d81bb03","59a801616c613b0251691de0","no","no","0","j","f","space","NA","return","return","j","1530","1957","20963","NA","20661","20424","1530","2","legacy","1024","1","44100","-16","experiment","eʃpal","3","2","1","0","1","English, norwegian and danish","17","","odd","9584175","9562685","NA","NA","9586133","9584171","NA","8150203","9583704","8150204","8150203","9490975","9511640","9636441","9634938","9637973","9535079","9532345","9562684","NA","9384722","9432285","9561033","9532131","9584174","9532349","NA","9636441","9636441","NA","NA","9634934","NAP perception","19","18052","19","yes","1024"
"100","yes","100","944.1","944.1","white","no","xpyriment","Ich habe die obigen Informationen gelesen und verstanden.","legacy","legacy","0","uniform","1","0","0","undefined","undefined","1","j","2","1","NA","0","1","0","0","0","0","0","0","0","0","29","29","29","0","0","0","NA","0","0","2","0","0","0","2","29","29","29","29","29","Wed Oct 25 12:06:56 2017","Forced-choice identification task with a practice and an experimental phase","yes","NAP_GER_AA_4blocks_noglides.osexp","/Users/aviadalbert/Documents/Academisch/UoC/Dissertation/Experiment/OpenSesame/NAP-FC/NAP_GER_AA_4blocks_noglides","yes","no","sans","no","20","no","black","no","Weiter","yes","768","legacy","19","9","0","/Users/aviadalbert/Documents/Academisch/UoC/Dissertation/Experiment/OpenSesame/NAP-FC/NAP_GER_AA_4blocks_noglides/subject-17.csv","xpyriment","Jazzy James","3.1.9","yes","yes","59a800d99ad5a1025d81bb03","59a801616c613b0251691de0","no","no","0","j","f","space","NA","return","return","j","830","1957","20963","NA","20661","20424","830","2","legacy","1024","1","44100","-16","experiment","enval","3","2","1","0","1","English, norwegian and danish","17","","odd","9584175","9562685","NA","NA","9586133","9584171","NA","8150203","9583704","8150204","8150203","9490975","9511640","9639748","9638241","9640579","9535079","9532345","9562684","NA","9384722","9432285","9561033","9532131","9584174","9532349","NA","9639747","9639748","NA","NA","9638237","NAP perception","20","18882","20","yes","1024"
"100","yes","100","936.476190476","936.476190476","white","no","xpyriment","Ich habe die obigen Informationen gelesen und verstanden.","legacy","legacy","0","uniform","1","0","0","undefined","undefined","1","f","2","1","NA","0","1","0","0","0","0","0","0","0","0","30","30","30","0","0","0","NA","0","0","2","0","0","0","2","30","30","30","30","30","Wed Oct 25 12:06:56 2017","Forced-choice identification task with a practice and an experimental phase","yes","NAP_GER_AA_4blocks_noglides.osexp","/Users/aviadalbert/Documents/Academisch/UoC/Dissertation/Experiment/OpenSesame/NAP-FC/NAP_GER_AA_4blocks_noglides","yes","no","sans","no","20","no","black","no","Weiter","yes","768","legacy","20","9","0","/Users/aviadalbert/Documents/Academisch/UoC/Dissertation/Experiment/OpenSesame/NAP-FC/NAP_GER_AA_4blocks_noglides/subject-17.csv","xpyriment","Jazzy James","3.1.9","yes","yes","59a800d99ad5a1025d81bb03","59a801616c613b0251691de0","no","no","0","f","f","space","NA","return","return","f","784","1957","20963","NA","20661","20424","784","2","legacy","1024","1","44100","-16","experiment","fnal","3","2","1","0","1","English, norwegian and danish","17","","odd","9584175","9562685","NA","NA","9586133","9584171","NA","8150203","9583704","8150204","8150203","9490975","9511640","9642354","9640850","9643140","9535079","9532345","9562684","NA","9384722","9432285","9561033","9532131","9584174","9532349","NA","9642354","9642354","NA","NA","9640846","NAP perception","21","19666","21","yes","1024"
"95.4545454545","yes","95.4545454545","954.409090909","954.409090909","white","no","xpyriment","Ich habe die obigen Informationen gelesen und verstanden.","legacy","legacy","0","uniform","0","0","0","undefined","undefined","0","f","2","1","NA","0","1","0","0","0","0","0","0","0","0","31","31","31","0","0","0","NA","0","0","2","0","0","0","2","31","31","31","31","31","Wed Oct 25 12:06:56 2017","Forced-choice identification task with a practice and an experimental phase","yes","NAP_GER_AA_4blocks_noglides.osexp","/Users/aviadalbert/Documents/Academisch/UoC/Dissertation/Experiment/OpenSesame/NAP-FC/NAP_GER_AA_4blocks_noglides","yes","no","sans","no","20","no","black","no","Weiter","yes","768","legacy","21","9","0","/Users/aviadalbert/Documents/Academisch/UoC/Dissertation/Experiment/OpenSesame/NAP-FC/NAP_GER_AA_4blocks_noglides/subject-17.csv","xpyriment","Jazzy James","3.1.9","yes","yes","59a800d99ad5a1025d81bb03","59a801616c613b0251691de0","no","no","0","j","f","space","NA","return","return","j","1331","1957","20963","NA","20661","20424","1331","2","legacy","1024","1","44100","-16","experiment","mtal","3","2","1","0","1","English, norwegian and danish","17","","odd","9584175","9562685","NA","NA","9586133","9584171","NA","8150203","9583704","8150204","8150203","9490975","9511640","9644926","9643421","9646259","9535079","9532345","9562684","NA","9384722","9432285","9561033","9532131","9584174","9532349","NA","9644926","9644926","NA","NA","9643418","NAP perception","21","20997","22","yes","1024"
"95.652173913","yes","95.652173913","966.217391304","966.217391304","white","no","xpyriment","Ich habe die obigen Informationen gelesen und verstanden.","legacy","legacy","0","uniform","1","0","0","undefined","undefined","1","j","2","1","NA","0","1","0","0","0","0","0","0","0","0","32","32","32","0","0","0","NA","0","0","2","0","0","0","2","32","32","32","32","32","Wed Oct 25 12:06:56 2017","Forced-choice identification task with a practice and an experimental phase","yes","NAP_GER_AA_4blocks_noglides.osexp","/Users/aviadalbert/Documents/Academisch/UoC/Dissertation/Experiment/OpenSesame/NAP-FC/NAP_GER_AA_4blocks_noglides","yes","no","sans","no","20","no","black","no","Weiter","yes","768","legacy","22","9","0","/Users/aviadalbert/Documents/Academisch/UoC/Dissertation/Experiment/OpenSesame/NAP-FC/NAP_GER_AA_4blocks_noglides/subject-17.csv","xpyriment","Jazzy James","3.1.9","yes","yes","59a800d99ad5a1025d81bb03","59a801616c613b0251691de0","no","no","0","j","f","space","NA","return","return","j","1226","1957","20963","NA","20661","20424","1226","2","legacy","1024","1","44100","-16","experiment","semal","3","2","1","0","1","English, norwegian and danish","17","","odd","9584175","9562685","NA","NA","9586133","9584171","NA","8150203","9583704","8150204","8150203","9490975","9511640","9648049","9646546","9649277","9535079","9532345","9562684","NA","9384722","9432285","9561033","9532131","9584174","9532349","NA","9648049","9648049","NA","NA","9646542","NAP perception","22","22223","23","yes","1024"
"95.8333333333","yes","95.8333333333","953.208333333","953.208333333","white","no","xpyriment","Ich habe die obigen Informationen gelesen und verstanden.","legacy","legacy","0","uniform","1","0","0","undefined","undefined","1","f","2","1","NA","0","1","0","0","0","0","0","0","0","0","33","33","33","0","0","0","NA","0","0","2","0","0","0","2","33","33","33","33","33","Wed Oct 25 12:06:56 2017","Forced-choice identification task with a practice and an experimental phase","yes","NAP_GER_AA_4blocks_noglides.osexp","/Users/aviadalbert/Documents/Academisch/UoC/Dissertation/Experiment/OpenSesame/NAP-FC/NAP_GER_AA_4blocks_noglides","yes","no","sans","no","20","no","black","no","Weiter","yes","768","legacy","23","9","0","/Users/aviadalbert/Documents/Academisch/UoC/Dissertation/Experiment/OpenSesame/NAP-FC/NAP_GER_AA_4blocks_noglides/subject-17.csv","xpyriment","Jazzy James","3.1.9","yes","yes","59a800d99ad5a1025d81bb03","59a801616c613b0251691de0","no","no","0","f","f","space","NA","return","return","f","654","1957","20963","NA","20661","20424","654","2","legacy","1024","1","44100","-16","experiment","zmal","3","2","1","0","1","English, norwegian and danish","17","","odd","9584175","9562685","NA","NA","9586133","9584171","NA","8150203","9583704","8150204","8150203","9490975","9511640","9651046","9649543","9651702","9535079","9532345","9562684","NA","9384722","9432285","9561033","9532131","9584174","9532349","NA","9651046","9651046","NA","NA","9649539","NAP perception","23","22877","24","yes","1024"
"96","yes","96","963.68","963.68","white","no","xpyriment","Ich habe die obigen Informationen gelesen und verstanden.","legacy","legacy","0","uniform","1","0","0","undefined","undefined","1","j","2","1","NA","0","1","0","0","0","0","0","0","0","0","34","34","34","0","0","0","NA","0","0","2","0","0","0","2","34","34","34","34","34","Wed Oct 25 12:06:56 2017","Forced-choice identification task with a practice and an experimental phase","yes","NAP_GER_AA_4blocks_noglides.osexp","/Users/aviadalbert/Documents/Academisch/UoC/Dissertation/Experiment/OpenSesame/NAP-FC/NAP_GER_AA_4blocks_noglides","yes","no","sans","no","20","no","black","no","Weiter","yes","768","legacy","24","9","0","/Users/aviadalbert/Documents/Academisch/UoC/Dissertation/Experiment/OpenSesame/NAP-FC/NAP_GER_AA_4blocks_noglides/subject-17.csv","xpyriment","Jazzy James","3.1.9","yes","yes","59a800d99ad5a1025d81bb03","59a801616c613b0251691de0","no","no","0","j","f","space","NA","return","return","j","1215","1957","20963","NA","20661","20424","1215","2","legacy","1024","1","44100","-16","experiment","eftal","3","2","1","0","1","English, norwegian and danish","17","","odd","9584175","9562685","NA","NA","9586133","9584171","NA","8150203","9583704","8150204","8150203","9490975","9511640","9653462","9651959","9654679","9535079","9532345","9562684","NA","9384722","9432285","9561033","9532131","9584174","9532349","NA","9653462","9653462","NA","NA","9651955","NAP perception","24","24092","25","yes","1024"
"96.1538461538","yes","96.1538461538","956.653846154","956.653846154","white","no","xpyriment","Ich habe die obigen Informationen gelesen und verstanden.","legacy","legacy","0","uniform","1","0","0","undefined","undefined","1","f","2","1","NA","0","1","0","0","0","0","0","0","0","0","35","35","35","0","0","0","NA","0","0","2","0","0","0","2","35","35","35","35","35","Wed Oct 25 12:06:56 2017","Forced-choice identification task with a practice and an experimental phase","yes","NAP_GER_AA_4blocks_noglides.osexp","/Users/aviadalbert/Documents/Academisch/UoC/Dissertation/Experiment/OpenSesame/NAP-FC/NAP_GER_AA_4blocks_noglides","yes","no","sans","no","20","no","black","no","Weiter","yes","768","legacy","25","9","0","/Users/aviadalbert/Documents/Academisch/UoC/Dissertation/Experiment/OpenSesame/NAP-FC/NAP_GER_AA_4blocks_noglides/subject-17.csv","xpyriment","Jazzy James","3.1.9","yes","yes","59a800d99ad5a1025d81bb03","59a801616c613b0251691de0","no","no","0","f","f","space","NA","return","return","f","781","1957","20963","NA","20661","20424","781","2","legacy","1024","1","44100","-16","experiment","ʃfal","3","2","1","0","1","English, norwegian and danish","17","","odd","9584175","9562685","NA","NA","9586133","9584171","NA","8150203","9583704","8150204","8150203","9490975","9511640","9656447","9654943","9657230","9535079","9532345","9562684","NA","9384722","9432285","9561033","9532131","9584174","9532349","NA","9656446","9656447","NA","NA","9654939","NAP perception","25","24873","26","yes","1024"
"96.2962962963","yes","96.2962962963","956.148148148","956.148148148","white","no","xpyriment","Ich habe die obigen Informationen gelesen und verstanden.","legacy","legacy","0","uniform","1","0","0","undefined","undefined","1","f","2","1","NA","0","1","0","0","0","0","0","0","0","0","36","36","36","0","0","0","NA","0","0","2","0","0","0","2","36","36","36","36","36","Wed Oct 25 12:06:56 2017","Forced-choice identification task with a practice and an experimental phase","yes","NAP_GER_AA_4blocks_noglides.osexp","/Users/aviadalbert/Documents/Academisch/UoC/Dissertation/Experiment/OpenSesame/NAP-FC/NAP_GER_AA_4blocks_noglides","yes","no","sans","no","20","no","black","no","Weiter","yes","768","legacy","26","9","0","/Users/aviadalbert/Documents/Academisch/UoC/Dissertation/Experiment/OpenSesame/NAP-FC/NAP_GER_AA_4blocks_noglides/subject-17.csv","xpyriment","Jazzy James","3.1.9","yes","yes","59a800d99ad5a1025d81bb03","59a801616c613b0251691de0","no","no","0","f","f","space","NA","return","return","f","943","1957","20963","NA","20661","20424","943","2","legacy","1024","1","44100","-16","experiment","ʃmal","3","2","1","0","1","English, norwegian and danish","17","","odd","9584175","9562685","NA","NA","9586133","9584171","NA","8150203","9583704","8150204","8150203","9490975","9511640","9659000","9657498","9659945","9535079","9532345","9562684","NA","9384722","9432285","9561033","9532131","9584174","9532349","NA","9659000","9659000","NA","NA","9657494","NAP perception","26","25816","27","yes","1024"
"96.4285714286","yes","96.4285714286","951.642857143","951.642857143","white","no","xpyriment","Ich habe die obigen Informationen gelesen und verstanden.","legacy","legacy","0","uniform","1","0","0","undefined","undefined","1","j","2","1","NA","0","1","0","0","0","0","0","0","0","0","37","37","37","0","0","0","NA","0","0","2","0","0","0","2","37","37","37","37","37","Wed Oct 25 12:06:56 2017","Forced-choice identification task with a practice and an experimental phase","yes","NAP_GER_AA_4blocks_noglides.osexp","/Users/aviadalbert/Documents/Academisch/UoC/Dissertation/Experiment/OpenSesame/NAP-FC/NAP_GER_AA_4blocks_noglides","yes","no","sans","no","20","no","black","no","Weiter","yes","768","legacy","27","9","0","/Users/aviadalbert/Documents/Academisch/UoC/Dissertation/Experiment/OpenSesame/NAP-FC/NAP_GER_AA_4blocks_noglides/subject-17.csv","xpyriment","Jazzy James","3.1.9","yes","yes","59a800d99ad5a1025d81bb03","59a801616c613b0251691de0","no","no","0","j","f","space","NA","return","return","j","830","1957","20963","NA","20661","20424","830","2","legacy","1024","1","44100","-16","experiment","nefal","3","2","1","0","1","English, norwegian and danish","17","","odd","9584175","9562685","NA","NA","9586133","9584171","NA","8150203","9583704","8150204","8150203","9490975","9511640","9661726","9660221","9662558","9535079","9532345","9562684","NA","9384722","9432285","9561033","9532131","9584174","9532349","NA","9661726","9661726","NA","NA","9660217","NAP perception","27","26646","28","yes","1024"
"96.5517241379","yes","96.5517241379","953.344827586","953.344827586","white","no","xpyriment","Ich habe die obigen Informationen gelesen und verstanden.","legacy","legacy","0","uniform","1","0","0","undefined","undefined","1","j","2","1","NA","0","1","0","0","0","0","0","0","0","0","38","38","38","0","0","0","NA","0","0","2","0","0","0","2","38","38","38","38","38","Wed Oct 25 12:06:56 2017","Forced-choice identification task with a practice and an experimental phase","yes","NAP_GER_AA_4blocks_noglides.osexp","/Users/aviadalbert/Documents/Academisch/UoC/Dissertation/Experiment/OpenSesame/NAP-FC/NAP_GER_AA_4blocks_noglides","yes","no","sans","no","20","no","black","no","Weiter","yes","768","legacy","28","9","0","/Users/aviadalbert/Documents/Academisch/UoC/Dissertation/Experiment/OpenSesame/NAP-FC/NAP_GER_AA_4blocks_noglides/subject-17.csv","xpyriment","Jazzy James","3.1.9","yes","yes","59a800d99ad5a1025d81bb03","59a801616c613b0251691de0","no","no","0","j","f","space","NA","return","return","j","1001","1957","20963","NA","20661","20424","1001","2","legacy","1024","1","44100","-16","experiment","espal","3","2","1","0","1","English, norwegian and danish","17","","odd","9584175","9562685","NA","NA","9586133","9584171","NA","8150203","9583704","8150204","8150203","9490975","9511640","9664344","9662840","9665348","9535079","9532345","9562684","NA","9384722","9432285","9561033","9532131","9584174","9532349","NA","9664344","9664344","NA","NA","9662837","NAP perception","28","27647","29","yes","1024"
"93.3333333333","yes","93.3333333333","980","980","white","no","xpyriment","Ich habe die obigen Informationen gelesen und verstanden.","legacy","legacy","0","uniform","0","0","0","undefined","undefined","0","f","2","1","NA","0","1","0","0","0","0","0","0","0","0","39","39","39","0","0","0","NA","0","0","2","0","0","0","2","39","39","39","39","39","Wed Oct 25 12:06:56 2017","Forced-choice identification task with a practice and an experimental phase","yes","NAP_GER_AA_4blocks_noglides.osexp","/Users/aviadalbert/Documents/Academisch/UoC/Dissertation/Experiment/OpenSesame/NAP-FC/NAP_GER_AA_4blocks_noglides","yes","no","sans","no","20","no","black","no","Weiter","yes","768","legacy","29","9","0","/Users/aviadalbert/Documents/Academisch/UoC/Dissertation/Experiment/OpenSesame/NAP-FC/NAP_GER_AA_4blocks_noglides/subject-17.csv","xpyriment","Jazzy James","3.1.9","yes","yes","59a800d99ad5a1025d81bb03","59a801616c613b0251691de0","no","no","0","j","f","space","NA","return","return","j","1753","1957","20963","NA","20661","20424","1753","2","legacy","1024","1","44100","-16","experiment","ftal","3","2","1","0","1","English, norwegian and danish","17","","odd","9584175","9562685","NA","NA","9586133","9584171","NA","8150203","9583704","8150204","8150203","9490975","9511640","9667125","9665619","9668880","9535079","9532345","9562684","NA","9384722","9432285","9561033","9532131","9584174","9532349","NA","9667125","9667125","NA","NA","9665615","NAP perception","28","29400","30","yes","1024"
"93.5483870968","yes","93.5483870968","979.935483871","979.935483871","white","no","xpyriment","Ich habe die obigen Informationen gelesen und verstanden.","legacy","legacy","0","uniform","1","0","0","undefined","undefined","1","j","2","1","NA","0","1","0","0","0","0","0","0","0","0","40","40","40","0","0","0","NA","0","0","2","0","0","0","2","40","40","40","40","40","Wed Oct 25 12:06:56 2017","Forced-choice identification task with a practice and an experimental phase","yes","NAP_GER_AA_4blocks_noglides.osexp","/Users/aviadalbert/Documents/Academisch/UoC/Dissertation/Experiment/OpenSesame/NAP-FC/NAP_GER_AA_4blocks_noglides","yes","no","sans","no","20","no","black","no","Weiter","yes","768","legacy","30","9","0","/Users/aviadalbert/Documents/Academisch/UoC/Dissertation/Experiment/OpenSesame/NAP-FC/NAP_GER_AA_4blocks_noglides/subject-17.csv","xpyriment","Jazzy James","3.1.9","yes","yes","59a800d99ad5a1025d81bb03","59a801616c613b0251691de0","no","no","0","j","f","space","NA","return","return","j","978","1957","20963","NA","20661","20424","978","2","legacy","1024","1","44100","-16","experiment","fetal","3","2","1","0","1","English, norwegian and danish","17","","odd","9584175","9562685","NA","NA","9586133","9584171","NA","8150203","9583704","8150204","8150203","9490975","9511640","9670649","9669144","9671628","9535079","9532345","9562684","NA","9384722","9432285","9561033","9532131","9584174","9532349","NA","9670649","9670649","NA","NA","9669141","NAP perception","29","30378","31","yes","1024"
"93.75","yes","93.75","995.4375","995.4375","white","no","xpyriment","Ich habe die obigen Informationen gelesen und verstanden.","legacy","legacy","0","uniform","1","0","0","undefined","undefined","1","f","2","1","NA","0","1","0","0","0","0","0","0","0","0","41","41","41","0","0","0","NA","0","0","2","0","0","0","2","41","41","41","41","41","Wed Oct 25 12:06:56 2017","Forced-choice identification task with a practice and an experimental phase","yes","NAP_GER_AA_4blocks_noglides.osexp","/Users/aviadalbert/Documents/Academisch/UoC/Dissertation/Experiment/OpenSesame/NAP-FC/NAP_GER_AA_4blocks_noglides","yes","no","sans","no","20","no","black","no","Weiter","yes","768","legacy","31","9","0","/Users/aviadalbert/Documents/Academisch/UoC/Dissertation/Experiment/OpenSesame/NAP-FC/NAP_GER_AA_4blocks_noglides/subject-17.csv","xpyriment","Jazzy James","3.1.9","yes","yes","59a800d99ad5a1025d81bb03","59a801616c613b0251691de0","no","no","0","f","f","space","NA","return","return","f","1476","1957","20963","NA","20661","20424","1476","2","legacy","1024","1","44100","-16","experiment","vzal","3","2","1","0","1","English, norwegian and danish","17","","odd","9584175","9562685","NA","NA","9586133","9584171","NA","8150203","9583704","8150204","8150203","9490975","9511640","9673409","9671906","9674886","9535079","9532345","9562684","NA","9384722","9432285","9561033","9532131","9584174","9532349","NA","9673409","9673409","NA","NA","9671902","NAP perception","30","31854","32","yes","1024"
"93.9393939394","yes","93.9393939394","996.121212121","996.121212121","white","no","xpyriment","Ich habe die obigen Informationen gelesen und verstanden.","legacy","legacy","0","uniform","1","0","0","undefined","undefined","1","j","2","1","NA","0","1","0","0","0","0","0","0","0","0","42","42","42","0","0","0","NA","0","0","2","0","0","0","2","42","42","42","42","42","Wed Oct 25 12:06:56 2017","Forced-choice identification task with a practice and an experimental phase","yes","NAP_GER_AA_4blocks_noglides.osexp","/Users/aviadalbert/Documents/Academisch/UoC/Dissertation/Experiment/OpenSesame/NAP-FC/NAP_GER_AA_4blocks_noglides","yes","no","sans","no","20","no","black","no","Weiter","yes","768","legacy","32","9","0","/Users/aviadalbert/Documents/Academisch/UoC/Dissertation/Experiment/OpenSesame/NAP-FC/NAP_GER_AA_4blocks_noglides/subject-17.csv","xpyriment","Jazzy James","3.1.9","yes","yes","59a800d99ad5a1025d81bb03","59a801616c613b0251691de0","no","no","0","j","f","space","NA","return","return","j","1018","1957","20963","NA","20661","20424","1018","2","legacy","1024","1","44100","-16","experiment","esfal","3","2","1","0","1","English, norwegian and danish","17","","odd","9584175","9562685","NA","NA","9586133","9584171","NA","8150203","9583704","8150204","8150203","9490975","9511640","9676651","9675148","9677670","9535079","9532345","9562684","NA","9384722","9432285","9561033","9532131","9584174","9532349","NA","9676651","9676651","NA","NA","9675144","NAP perception","31","32872","33","yes","1024"
"94.1176470588","yes","94.1176470588","1023.38235294","1023.38235294","white","no","xpyriment","Ich habe die obigen Informationen gelesen und verstanden.","legacy","legacy","0","uniform","1","0","0","undefined","undefined","1","f","2","1","NA","0","1","0","0","0","0","0","0","0","0","43","43","43","0","0","0","NA","0","0","2","0","0","0","2","43","43","43","43","43","Wed Oct 25 12:06:56 2017","Forced-choice identification task with a practice and an experimental phase","yes","NAP_GER_AA_4blocks_noglides.osexp","/Users/aviadalbert/Documents/Academisch/UoC/Dissertation/Experiment/OpenSesame/NAP-FC/NAP_GER_AA_4blocks_noglides","yes","no","sans","no","20","no","black","no","Weiter","yes","768","legacy","33","9","0","/Users/aviadalbert/Documents/Academisch/UoC/Dissertation/Experiment/OpenSesame/NAP-FC/NAP_GER_AA_4blocks_noglides/subject-17.csv","xpyriment","Jazzy James","3.1.9","yes","yes","59a800d99ad5a1025d81bb03","59a801616c613b0251691de0","no","no","0","f","f","space","NA","return","return","f","1923","1957","20963","NA","20661","20424","1923","2","legacy","1024","1","44100","-16","experiment","nfal","3","2","1","0","1","English, norwegian and danish","17","","odd","9584175","9562685","NA","NA","9586133","9584171","NA","8150203","9583704","8150204","8150203","9490975","9511640","9679454","9677948","9681378","9535079","9532345","9562684","NA","9384722","9432285","9561033","9532131","9584174","9532349","NA","9679454","9679454","NA","NA","9677945","NAP perception","32","34795","34","yes","1024"
"94.2857142857","yes","94.2857142857","1029.57142857","1029.57142857","white","no","xpyriment","Ich habe die obigen Informationen gelesen und verstanden.","legacy","legacy","0","uniform","1","0","0","undefined","undefined","1","f","2","1","NA","0","1","0","0","0","0","0","0","0","0","44","44","44","0","0","0","NA","0","0","2","0","0","0","2","44","44","44","44","44","Wed Oct 25 12:06:56 2017","Forced-choice identification task with a practice and an experimental phase","yes","NAP_GER_AA_4blocks_noglides.osexp","/Users/aviadalbert/Documents/Academisch/UoC/Dissertation/Experiment/OpenSesame/NAP-FC/NAP_GER_AA_4blocks_noglides","yes","no","sans","no","20","no","black","no","Weiter","yes","768","legacy","34","9","0","/Users/aviadalbert/Documents/Academisch/UoC/Dissertation/Experiment/OpenSesame/NAP-FC/NAP_GER_AA_4blocks_noglides/subject-17.csv","xpyriment","Jazzy James","3.1.9","yes","yes","59a800d99ad5a1025d81bb03","59a801616c613b0251691de0","no","no","0","f","f","space","NA","return","return","f","1240","1957","20963","NA","20661","20424","1240","2","legacy","1024","1","44100","-16","experiment","smal","3","2","1","0","1","English, norwegian and danish","17","","odd","9584175","9562685","NA","NA","9586133","9584171","NA","8150203","9583704","8150204","8150203","9490975","9511640","9683151","9681647","9684392","9535079","9532345","9562684","NA","9384722","9432285","9561033","9532131","9584174","9532349","NA","9683151","9683151","NA","NA","9681644","NAP perception","33","36035","35","yes","1024"
"91.6666666667","yes","91.6666666667","1051.38888889","1051.38888889","white","no","xpyriment","Ich habe die obigen Informationen gelesen und verstanden.","legacy","legacy","0","uniform","0","0","0","undefined","undefined","0","f","2","1","NA","0","1","0","0","0","0","0","0","0","0","45","45","45","0","0","0","NA","0","0","2","0","0","0","2","45","45","45","45","45","Wed Oct 25 12:06:56 2017","Forced-choice identification task with a practice and an experimental phase","yes","NAP_GER_AA_4blocks_noglides.osexp","/Users/aviadalbert/Documents/Academisch/UoC/Dissertation/Experiment/OpenSesame/NAP-FC/NAP_GER_AA_4blocks_noglides","yes","no","sans","no","20","no","black","no","Weiter","yes","768","legacy","35","9","0","/Users/aviadalbert/Documents/Academisch/UoC/Dissertation/Experiment/OpenSesame/NAP-FC/NAP_GER_AA_4blocks_noglides/subject-17.csv","xpyriment","Jazzy James","3.1.9","yes","yes","59a800d99ad5a1025d81bb03","59a801616c613b0251691de0","no","no","0","j","f","space","NA","return","return","j","1815","1957","20963","NA","20661","20424","1815","2","legacy","1024","1","44100","-16","experiment","lkal","3","2","1","0","1","English, norwegian and danish","17","","odd","9584175","9562685","NA","NA","9586133","9584171","NA","8150203","9583704","8150204","8150203","9490975","9511640","9686155","9684652","9687971","9535079","9532345","9562684","NA","9384722","9432285","9561033","9532131","9584174","9532349","NA","9686155","9686155","NA","NA","9684648","NAP perception","33","37850","36","yes","1024"
"91.8918918919","yes","91.8918918919","1047.94594595","1047.94594595","white","no","xpyriment","Ich habe die obigen Informationen gelesen und verstanden.","legacy","legacy","0","uniform","1","0","0","undefined","undefined","1","f","2","1","NA","0","1","0","0","0","0","0","0","0","0","46","46","46","0","0","0","NA","0","0","2","0","0","0","2","46","46","46","46","46","Wed Oct 25 12:06:56 2017","Forced-choice identification task with a practice and an experimental phase","yes","NAP_GER_AA_4blocks_noglides.osexp","/Users/aviadalbert/Documents/Academisch/UoC/Dissertation/Experiment/OpenSesame/NAP-FC/NAP_GER_AA_4blocks_noglides","yes","no","sans","no","20","no","black","no","Weiter","yes","768","legacy","36","9","0","/Users/aviadalbert/Documents/Academisch/UoC/Dissertation/Experiment/OpenSesame/NAP-FC/NAP_GER_AA_4blocks_noglides/subject-17.csv","xpyriment","Jazzy James","3.1.9","yes","yes","59a800d99ad5a1025d81bb03","59a801616c613b0251691de0","no","no","0","f","f","space","NA","return","return","f","924","1957","20963","NA","20661","20424","924","2","legacy","1024","1","44100","-16","experiment","spal","3","2","1","0","1","English, norwegian and danish","17","","odd","9584175","9562685","NA","NA","9586133","9584171","NA","8150203","9583704","8150204","8150203","9490975","9511640","9689750","9688242","9690675","9535079","9532345","9562684","NA","9384722","9432285","9561033","9532131","9584174","9532349","NA","9689749","9689749","NA","NA","9688239","NAP perception","34","38774","37","yes","1024"
"92.1052631579","yes","92.1052631579","1037.57894737","1037.57894737","white","no","xpyriment","Ich habe die obigen Informationen gelesen und verstanden.","legacy","legacy","0","uniform","1","0","0","undefined","undefined","1","f","2","1","NA","0","1","0","0","0","0","0","0","0","0","47","47","47","0","0","0","NA","0","0","2","0","0","0","2","47","47","47","47","47","Wed Oct 25 12:06:56 2017","Forced-choice identification task with a practice and an experimental phase","yes","NAP_GER_AA_4blocks_noglides.osexp","/Users/aviadalbert/Documents/Academisch/UoC/Dissertation/Experiment/OpenSesame/NAP-FC/NAP_GER_AA_4blocks_noglides","yes","no","sans","no","20","no","black","no","Weiter","yes","768","legacy","37","9","0","/Users/aviadalbert/Documents/Academisch/UoC/Dissertation/Experiment/OpenSesame/NAP-FC/NAP_GER_AA_4blocks_noglides/subject-17.csv","xpyriment","Jazzy James","3.1.9","yes","yes","59a800d99ad5a1025d81bb03","59a801616c613b0251691de0","no","no","0","f","f","space","NA","return","return","f","654","1957","20963","NA","20661","20424","654","2","legacy","1024","1","44100","-16","experiment","spal","3","2","1","0","1","English, norwegian and danish","17","","odd","9584175","9562685","NA","NA","9586133","9584171","NA","8150203","9583704","8150204","8150203","9490975","9511640","9692452","9690949","9693107","9535079","9532345","9562684","NA","9384722","9432285","9561033","9532131","9584174","9532349","NA","9692452","9692452","NA","NA","9690945","NAP perception","35","39428","38","yes","1024"
"92.3076923077","yes","92.3076923077","1033.51282051","1033.51282051","white","no","xpyriment","Ich habe die obigen Informationen gelesen und verstanden.","legacy","legacy","0","uniform","1","0","0","undefined","undefined","1","j","2","1","NA","0","1","0","0","0","0","0","0","0","0","48","48","48","0","0","0","NA","0","0","2","0","0","0","2","48","48","48","48","48","Wed Oct 25 12:06:56 2017","Forced-choice identification task with a practice and an experimental phase","yes","NAP_GER_AA_4blocks_noglides.osexp","/Users/aviadalbert/Documents/Academisch/UoC/Dissertation/Experiment/OpenSesame/NAP-FC/NAP_GER_AA_4blocks_noglides","yes","no","sans","no","20","no","black","no","Weiter","yes","768","legacy","38","9","0","/Users/aviadalbert/Documents/Academisch/UoC/Dissertation/Experiment/OpenSesame/NAP-FC/NAP_GER_AA_4blocks_noglides/subject-17.csv","xpyriment","Jazzy James","3.1.9","yes","yes","59a800d99ad5a1025d81bb03","59a801616c613b0251691de0","no","no","0","j","f","space","NA","return","return","j","879","1957","20963","NA","20661","20424","879","2","legacy","1024","1","44100","-16","experiment","lefal","3","2","1","0","1","English, norwegian and danish","17","","odd","9584175","9562685","NA","NA","9586133","9584171","NA","8150203","9583704","8150204","8150203","9490975","9511640","9694889","9693384","9695770","9535079","9532345","9562684","NA","9384722","9432285","9561033","9532131","9584174","9532349","NA","9694888","9694888","NA","NA","9693381","NAP perception","36","40307","39","yes","1024"
"92.5","yes","92.5","1030.45","1030.45","white","no","xpyriment","Ich habe die obigen Informationen gelesen und verstanden.","legacy","legacy","0","uniform","1","0","0","undefined","undefined","1","j","2","1","NA","0","1","0","0","0","0","0","0","0","0","49","49","49","0","0","0","NA","0","0","2","0","0","0","2","49","49","49","49","49","Wed Oct 25 12:06:56 2017","Forced-choice identification task with a practice and an experimental phase","yes","NAP_GER_AA_4blocks_noglides.osexp","/Users/aviadalbert/Documents/Academisch/UoC/Dissertation/Experiment/OpenSesame/NAP-FC/NAP_GER_AA_4blocks_noglides","yes","no","sans","no","20","no","black","no","Weiter","yes","768","legacy","39","9","0","/Users/aviadalbert/Documents/Academisch/UoC/Dissertation/Experiment/OpenSesame/NAP-FC/NAP_GER_AA_4blocks_noglides/subject-17.csv","xpyriment","Jazzy James","3.1.9","yes","yes","59a800d99ad5a1025d81bb03","59a801616c613b0251691de0","no","no","0","j","f","space","NA","return","return","j","911","1957","20963","NA","20661","20424","911","2","legacy","1024","1","44100","-16","experiment","neval","3","2","1","0","1","English, norwegian and danish","17","","odd","9584175","9562685","NA","NA","9586133","9584171","NA","8150203","9583704","8150204","8150203","9490975","9511640","9697556","9696049","9698468","9535079","9532345","9562684","NA","9384722","9432285","9561033","9532131","9584174","9532349","NA","9697556","9697556","NA","NA","9696045","NAP perception","37","41218","40","yes","1024"
"90.243902439","yes","90.243902439","1052.46341463","1052.46341463","white","no","xpyriment","Ich habe die obigen Informationen gelesen und verstanden.","legacy","legacy","0","uniform","0","0","0","undefined","undefined","0","f","2","1","NA","0","1","0","0","0","0","0","0","0","0","50","50","50","0","0","0","NA","0","0","2","0","0","0","2","50","50","50","50","50","Wed Oct 25 12:06:56 2017","Forced-choice identification task with a practice and an experimental phase","yes","NAP_GER_AA_4blocks_noglides.osexp","/Users/aviadalbert/Documents/Academisch/UoC/Dissertation/Experiment/OpenSesame/NAP-FC/NAP_GER_AA_4blocks_noglides","yes","no","sans","no","20","no","black","no","Weiter","yes","768","legacy","40","9","0","/Users/aviadalbert/Documents/Academisch/UoC/Dissertation/Experiment/OpenSesame/NAP-FC/NAP_GER_AA_4blocks_noglides/subject-17.csv","xpyriment","Jazzy James","3.1.9","yes","yes","59a800d99ad5a1025d81bb03","59a801616c613b0251691de0","no","no","0","j","f","space","NA","return","return","j","1933","1957","20963","NA","20661","20424","1933","2","legacy","1024","1","44100","-16","experiment","lval","3","2","1","0","1","English, norwegian and danish","17","","odd","9584175","9562685","NA","NA","9586133","9584171","NA","8150203","9583704","8150204","8150203","9490975","9511640","9700251","9698747","9702186","9535079","9532345","9562684","NA","9384722","9432285","9561033","9532131","9584174","9532349","NA","9700250","9700251","NA","NA","9698744","NAP perception","37","43151","41","yes","1024"
"90.4761904762","yes","90.4761904762","1045.52380952","1045.52380952","white","no","xpyriment","Ich habe die obigen Informationen gelesen und verstanden.","legacy","legacy","0","uniform","1","0","0","undefined","undefined","1","j","2","1","NA","0","1","0","0","0","0","0","0","0","0","51","51","51","0","0","0","NA","0","0","2","0","0","0","2","51","51","51","51","51","Wed Oct 25 12:06:56 2017","Forced-choice identification task with a practice and an experimental phase","yes","NAP_GER_AA_4blocks_noglides.osexp","/Users/aviadalbert/Documents/Academisch/UoC/Dissertation/Experiment/OpenSesame/NAP-FC/NAP_GER_AA_4blocks_noglides","yes","no","sans","no","20","no","black","no","Weiter","yes","768","legacy","41","9","0","/Users/aviadalbert/Documents/Academisch/UoC/Dissertation/Experiment/OpenSesame/NAP-FC/NAP_GER_AA_4blocks_noglides/subject-17.csv","xpyriment","Jazzy James","3.1.9","yes","yes","59a800d99ad5a1025d81bb03","59a801616c613b0251691de0","no","no","0","j","f","space","NA","return","return","j","761","1957","20963","NA","20661","20424","761","2","legacy","1024","1","44100","-16","experiment","ezmal","3","2","1","0","1","English, norwegian and danish","17","","odd","9584175","9562685","NA","NA","9586133","9584171","NA","8150203","9583704","8150204","8150203","9490975","9511640","9703968","9702464","9704730","9535079","9532345","9562684","NA","9384722","9432285","9561033","9532131","9584174","9532349","NA","9703968","9703968","NA","NA","9702461","NAP perception","38","43912","42","yes","1024"
"90.6976744186","yes","90.6976744186","1041.34883721","1041.34883721","white","no","xpyriment","Ich habe die obigen Informationen gelesen und verstanden.","legacy","legacy","0","uniform","1","0","0","undefined","undefined","1","j","2","1","NA","0","1","0","0","0","0","0","0","0","0","52","52","52","0","0","0","NA","0","0","2","0","0","0","2","52","52","52","52","52","Wed Oct 25 12:06:56 2017","Forced-choice identification task with a practice and an experimental phase","yes","NAP_GER_AA_4blocks_noglides.osexp","/Users/aviadalbert/Documents/Academisch/UoC/Dissertation/Experiment/OpenSesame/NAP-FC/NAP_GER_AA_4blocks_noglides","yes","no","sans","no","20","no","black","no","Weiter","yes","768","legacy","42","9","0","/Users/aviadalbert/Documents/Academisch/UoC/Dissertation/Experiment/OpenSesame/NAP-FC/NAP_GER_AA_4blocks_noglides/subject-17.csv","xpyriment","Jazzy James","3.1.9","yes","yes","59a800d99ad5a1025d81bb03","59a801616c613b0251691de0","no","no","0","j","f","space","NA","return","return","j","866","1957","20963","NA","20661","20424","866","2","legacy","1024","1","44100","-16","experiment","emlal","3","2","1","0","1","English, norwegian and danish","17","","odd","9584175","9562685","NA","NA","9586133","9584171","NA","8150203","9583704","8150204","8150203","9490975","9511640","9706515","9705010","9707383","9535079","9532345","9562684","NA","9384722","9432285","9561033","9532131","9584174","9532349","NA","9706515","9706515","NA","NA","9705006","NAP perception","39","44778","43","yes","1024"
"90.9090909091","yes","90.9090909091","1063.63636364","1063.63636364","white","no","xpyriment","Ich habe die obigen Informationen gelesen und verstanden.","legacy","legacy","0","uniform","1","0","0","undefined","undefined","1","f","2","1","NA","0","1","0","0","0","0","0","0","0","0","53","53","53","0","0","0","NA","0","0","2","0","0","0","2","53","53","53","53","53","Wed Oct 25 12:06:56 2017","Forced-choice identification task with a practice and an experimental phase","yes","NAP_GER_AA_4blocks_noglides.osexp","/Users/aviadalbert/Documents/Academisch/UoC/Dissertation/Experiment/OpenSesame/NAP-FC/NAP_GER_AA_4blocks_noglides","yes","no","sans","no","20","no","black","no","Weiter","yes","768","legacy","43","9","0","/Users/aviadalbert/Documents/Academisch/UoC/Dissertation/Experiment/OpenSesame/NAP-FC/NAP_GER_AA_4blocks_noglides/subject-17.csv","xpyriment","Jazzy James","3.1.9","yes","yes","59a800d99ad5a1025d81bb03","59a801616c613b0251691de0","no","no","0","f","f","space","NA","return","return","f","2022","1957","20963","NA","20661","20424","2022","2","legacy","1024","1","44100","-16","experiment","lval","3","2","1","0","1","English, norwegian and danish","17","","odd","9584175","9562685","NA","NA","9586133","9584171","NA","8150203","9583704","8150204","8150203","9490975","9511640","9709169","9707666","9711193","9535079","9532345","9562684","NA","9384722","9432285","9561033","9532131","9584174","9532349","NA","9709169","9709169","NA","NA","9707662","NAP perception","40","46800","44","yes","1024"
"91.1111111111","yes","91.1111111111","1077.77777778","1077.77777778","white","no","xpyriment","Ich habe die obigen Informationen gelesen und verstanden.","legacy","legacy","0","uniform","1","0","0","undefined","undefined","1","j","2","1","NA","0","1","0","0","0","0","0","0","0","0","54","54","54","0","0","0","NA","0","0","2","0","0","0","2","54","54","54","54","54","Wed Oct 25 12:06:56 2017","Forced-choice identification task with a practice and an experimental phase","yes","NAP_GER_AA_4blocks_noglides.osexp","/Users/aviadalbert/Documents/Academisch/UoC/Dissertation/Experiment/OpenSesame/NAP-FC/NAP_GER_AA_4blocks_noglides","yes","no","sans","no","20","no","black","no","Weiter","yes","768","legacy","44","9","0","/Users/aviadalbert/Documents/Academisch/UoC/Dissertation/Experiment/OpenSesame/NAP-FC/NAP_GER_AA_4blocks_noglides/subject-17.csv","xpyriment","Jazzy James","3.1.9","yes","yes","59a800d99ad5a1025d81bb03","59a801616c613b0251691de0","no","no","0","j","f","space","NA","return","return","j","1700","1957","20963","NA","20661","20424","1700","2","legacy","1024","1","44100","-16","experiment","ʃefal","3","2","1","0","1","English, norwegian and danish","17","","odd","9584175","9562685","NA","NA","9586133","9584171","NA","8150203","9583704","8150204","8150203","9490975","9511640","9712967","9711463","9714669","9535079","9532345","9562684","NA","9384722","9432285","9561033","9532131","9584174","9532349","NA","9712967","9712967","NA","NA","9711459","NAP perception","41","48500","45","yes","1024"
"89.1304347826","yes","89.1304347826","1105.06521739","1105.06521739","white","no","xpyriment","Ich habe die obigen Informationen gelesen und verstanden.","legacy","legacy","0","uniform","0","0","0","undefined","undefined","0","f","2","1","NA","0","1","0","0","0","0","0","0","0","0","55","55","55","0","0","0","NA","0","0","2","0","0","0","2","55","55","55","55","55","Wed Oct 25 12:06:56 2017","Forced-choice identification task with a practice and an experimental phase","yes","NAP_GER_AA_4blocks_noglides.osexp","/Users/aviadalbert/Documents/Academisch/UoC/Dissertation/Experiment/OpenSesame/NAP-FC/NAP_GER_AA_4blocks_noglides","yes","no","sans","no","20","no","black","no","Weiter","yes","768","legacy","45","9","0","/Users/aviadalbert/Documents/Academisch/UoC/Dissertation/Experiment/OpenSesame/NAP-FC/NAP_GER_AA_4blocks_noglides/subject-17.csv","xpyriment","Jazzy James","3.1.9","yes","yes","59a800d99ad5a1025d81bb03","59a801616c613b0251691de0","no","no","0","j","f","space","NA","return","return","j","2333","1957","20963","NA","20661","20424","2333","2","legacy","1024","1","44100","-16","experiment","nmal","3","2","1","0","1","English, norwegian and danish","17","","odd","9584175","9562685","NA","NA","9586133","9584171","NA","8150203","9583704","8150204","8150203","9490975","9511640","9716446","9714943","9718781","9535079","9532345","9562684","NA","9384722","9432285","9561033","9532131","9584174","9532349","NA","9716446","9716446","NA","NA","9714939","NAP perception","41","50833","46","yes","1024"
"89.3617021277","yes","89.3617021277","1102.42553191","1102.42553191","white","no","xpyriment","Ich habe die obigen Informationen gelesen und verstanden.","legacy","legacy","0","uniform","1","0","0","undefined","undefined","1","j","2","1","NA","0","1","0","0","0","0","0","0","0","0","56","56","56","0","0","0","NA","0","0","2","0","0","0","2","56","56","56","56","56","Wed Oct 25 12:06:56 2017","Forced-choice identification task with a practice and an experimental phase","yes","NAP_GER_AA_4blocks_noglides.osexp","/Users/aviadalbert/Documents/Academisch/UoC/Dissertation/Experiment/OpenSesame/NAP-FC/NAP_GER_AA_4blocks_noglides","yes","no","sans","no","20","no","black","no","Weiter","yes","768","legacy","46","9","0","/Users/aviadalbert/Documents/Academisch/UoC/Dissertation/Experiment/OpenSesame/NAP-FC/NAP_GER_AA_4blocks_noglides/subject-17.csv","xpyriment","Jazzy James","3.1.9","yes","yes","59a800d99ad5a1025d81bb03","59a801616c613b0251691de0","no","no","0","j","f","space","NA","return","return","j","981","1957","20963","NA","20661","20424","981","2","legacy","1024","1","44100","-16","experiment","mezal","3","2","1","0","1","English, norwegian and danish","17","","odd","9584175","9562685","NA","NA","9586133","9584171","NA","8150203","9583704","8150204","8150203","9490975","9511640","9720562","9719058","9721544","9535079","9532345","9562684","NA","9384722","9432285","9561033","9532131","9584174","9532349","NA","9720562","9720562","NA","NA","9719054","NAP perception","42","51814","47","yes","1024"
"89.5833333333","yes","89.5833333333","1097.16666667","1097.16666667","white","no","xpyriment","Ich habe die obigen Informationen gelesen und verstanden.","legacy","legacy","0","uniform","1","0","0","undefined","undefined","1","j","2","1","NA","0","1","0","0","0","0","0","0","0","0","57","57","57","0","0","0","NA","0","0","2","0","0","0","2","57","57","57","57","57","Wed Oct 25 12:06:56 2017","Forced-choice identification task with a practice and an experimental phase","yes","NAP_GER_AA_4blocks_noglides.osexp","/Users/aviadalbert/Documents/Academisch/UoC/Dissertation/Experiment/OpenSesame/NAP-FC/NAP_GER_AA_4blocks_noglides","yes","no","sans","no","20","no","black","no","Weiter","yes","768","legacy","47","9","0","/Users/aviadalbert/Documents/Academisch/UoC/Dissertation/Experiment/OpenSesame/NAP-FC/NAP_GER_AA_4blocks_noglides/subject-17.csv","xpyriment","Jazzy James","3.1.9","yes","yes","59a800d99ad5a1025d81bb03","59a801616c613b0251691de0","no","no","0","j","f","space","NA","return","return","j","850","1957","20963","NA","20661","20424","850","2","legacy","1024","1","44100","-16","experiment","felal","3","2","1","0","1","English, norwegian and danish","17","","odd","9584175","9562685","NA","NA","9586133","9584171","NA","8150203","9583704","8150204","8150203","9490975","9511640","9723332","9721828","9724184","9535079","9532345","9562684","NA","9384722","9432285","9561033","9532131","9584174","9532349","NA","9723331","9723332","NA","NA","9721824","NAP perception","43","52664","48","yes","1024"
"89.7959183673","yes","89.7959183673","1088.6122449","1088.6122449","white","no","xpyriment","Ich habe die obigen Informationen gelesen und verstanden.","legacy","legacy","0","uniform","1","0","0","undefined","undefined","1","j","2","1","NA","0","1","0","0","0","0","0","0","0","0","58","58","58","0","0","0","NA","0","0","2","0","0","0","2","58","58","58","58","58","Wed Oct 25 12:06:56 2017","Forced-choice identification task with a practice and an experimental phase","yes","NAP_GER_AA_4blocks_noglides.osexp","/Users/aviadalbert/Documents/Academisch/UoC/Dissertation/Experiment/OpenSesame/NAP-FC/NAP_GER_AA_4blocks_noglides","yes","no","sans","no","20","no","black","no","Weiter","yes","768","legacy","48","9","0","/Users/aviadalbert/Documents/Academisch/UoC/Dissertation/Experiment/OpenSesame/NAP-FC/NAP_GER_AA_4blocks_noglides/subject-17.csv","xpyriment","Jazzy James","3.1.9","yes","yes","59a800d99ad5a1025d81bb03","59a801616c613b0251691de0","no","no","0","j","f","space","NA","return","return","j","678","1957","20963","NA","20661","20424","678","2","legacy","1024","1","44100","-16","experiment","metal","3","2","1","0","1","English, norwegian and danish","17","","odd","9584175","9562685","NA","NA","9586133","9584171","NA","8150203","9583704","8150204","8150203","9490975","9511640","9725950","9724443","9726629","9535079","9532345","9562684","NA","9384722","9432285","9561033","9532131","9584174","9532349","NA","9725950","9725950","NA","NA","9724439","NAP perception","44","53342","49","yes","1024"
"90","yes","90","1080.86","1080.86","white","no","xpyriment","Ich habe die obigen Informationen gelesen und verstanden.","legacy","legacy","0","uniform","1","0","0","undefined","undefined","1","f","2","1","NA","0","1","0","0","0","0","0","0","0","0","59","59","59","0","0","0","NA","0","0","2","0","0","0","2","59","59","59","59","59","Wed Oct 25 12:06:56 2017","Forced-choice identification task with a practice and an experimental phase","yes","NAP_GER_AA_4blocks_noglides.osexp","/Users/aviadalbert/Documents/Academisch/UoC/Dissertation/Experiment/OpenSesame/NAP-FC/NAP_GER_AA_4blocks_noglides","yes","no","sans","no","20","no","black","no","Weiter","yes","768","legacy","49","9","0","/Users/aviadalbert/Documents/Academisch/UoC/Dissertation/Experiment/OpenSesame/NAP-FC/NAP_GER_AA_4blocks_noglides/subject-17.csv","xpyriment","Jazzy James","3.1.9","yes","yes","59a800d99ad5a1025d81bb03","59a801616c613b0251691de0","no","no","0","f","f","space","NA","return","return","f","701","1957","20963","NA","20661","20424","701","2","legacy","1024","1","44100","-16","experiment","ʃmal","3","2","1","0","1","English, norwegian and danish","17","","odd","9584175","9562685","NA","NA","9586133","9584171","NA","8150203","9583704","8150204","8150203","9490975","9511640","9728412","9726909","9729114","9535079","9532345","9562684","NA","9384722","9432285","9561033","9532131","9584174","9532349","NA","9728412","9728412","NA","NA","9726905","NAP perception","45","54043","50","yes","1024"
"90.1960784314","yes","90.1960784314","1072.19607843","1072.19607843","white","no","xpyriment","Ich habe die obigen Informationen gelesen und verstanden.","legacy","legacy","0","uniform","1","0","0","undefined","undefined","1","j","2","1","NA","0","1","0","0","0","0","0","0","0","0","60","60","60","0","0","0","NA","0","0","2","0","0","0","2","60","60","60","60","60","Wed Oct 25 12:06:56 2017","Forced-choice identification task with a practice and an experimental phase","yes","NAP_GER_AA_4blocks_noglides.osexp","/Users/aviadalbert/Documents/Academisch/UoC/Dissertation/Experiment/OpenSesame/NAP-FC/NAP_GER_AA_4blocks_noglides","yes","no","sans","no","20","no","black","no","Weiter","yes","768","legacy","50","9","0","/Users/aviadalbert/Documents/Academisch/UoC/Dissertation/Experiment/OpenSesame/NAP-FC/NAP_GER_AA_4blocks_noglides/subject-17.csv","xpyriment","Jazzy James","3.1.9","yes","yes","59a800d99ad5a1025d81bb03","59a801616c613b0251691de0","no","no","0","j","f","space","NA","return","return","j","639","1957","20963","NA","20661","20424","639","2","legacy","1024","1","44100","-16","experiment","venal","3","2","1","0","1","English, norwegian and danish","17","","odd","9584175","9562685","NA","NA","9586133","9584171","NA","8150203","9583704","8150204","8150203","9490975","9511640","9730883","9729379","9731524","9535079","9532345","9562684","NA","9384722","9432285","9561033","9532131","9584174","9532349","NA","9730883","9730883","NA","NA","9729375","NAP perception","46","54682","51","yes","1024"
"90.3846153846","yes","90.3846153846","1066.23076923","1066.23076923","white","no","xpyriment","Ich habe die obigen Informationen gelesen und verstanden.","legacy","legacy","0","uniform","1","0","0","undefined","undefined","1","j","2","1","NA","0","1","0","0","0","0","0","0","0","0","61","61","61","0","0","0","NA","0","0","2","0","0","0","2","61","61","61","61","61","Wed Oct 25 12:06:56 2017","Forced-choice identification task with a practice and an experimental phase","yes","NAP_GER_AA_4blocks_noglides.osexp","/Users/aviadalbert/Documents/Academisch/UoC/Dissertation/Experiment/OpenSesame/NAP-FC/NAP_GER_AA_4blocks_noglides","yes","no","sans","no","20","no","black","no","Weiter","yes","768","legacy","51","9","0","/Users/aviadalbert/Documents/Academisch/UoC/Dissertation/Experiment/OpenSesame/NAP-FC/NAP_GER_AA_4blocks_noglides/subject-17.csv","xpyriment","Jazzy James","3.1.9","yes","yes","59a800d99ad5a1025d81bb03","59a801616c613b0251691de0","no","no","0","j","f","space","NA","return","return","j","762","1957","20963","NA","20661","20424","762","2","legacy","1024","1","44100","-16","experiment","lepal","3","2","1","0","1","English, norwegian and danish","17","","odd","9584175","9562685","NA","NA","9586133","9584171","NA","8150203","9583704","8150204","8150203","9490975","9511640","9733294","9731791","9734058","9535079","9532345","9562684","NA","9384722","9432285","9561033","9532131","9584174","9532349","NA","9733294","9733294","NA","NA","9731787","NAP perception","47","55444","52","yes","1024"
"90.5660377358","yes","90.5660377358","1074.67924528","1074.67924528","white","no","xpyriment","Ich habe die obigen Informationen gelesen und verstanden.","legacy","legacy","0","uniform","1","0","0","undefined","undefined","1","f","2","1","NA","0","1","0","0","0","0","0","0","0","0","62","62","62","0","0","0","NA","0","0","2","0","0","0","2","62","62","62","62","62","Wed Oct 25 12:06:56 2017","Forced-choice identification task with a practice and an experimental phase","yes","NAP_GER_AA_4blocks_noglides.osexp","/Users/aviadalbert/Documents/Academisch/UoC/Dissertation/Experiment/OpenSesame/NAP-FC/NAP_GER_AA_4blocks_noglides","yes","no","sans","no","20","no","black","no","Weiter","yes","768","legacy","52","9","0","/Users/aviadalbert/Documents/Academisch/UoC/Dissertation/Experiment/OpenSesame/NAP-FC/NAP_GER_AA_4blocks_noglides/subject-17.csv","xpyriment","Jazzy James","3.1.9","yes","yes","59a800d99ad5a1025d81bb03","59a801616c613b0251691de0","no","no","0","f","f","space","NA","return","return","f","1514","1957","20963","NA","20661","20424","1514","2","legacy","1024","1","44100","-16","experiment","mlal","3","2","1","0","1","English, norwegian and danish","17","","odd","9584175","9562685","NA","NA","9586133","9584171","NA","8150203","9583704","8150204","8150203","9490975","9511640","9735824","9734318","9737340","9535079","9532345","9562684","NA","9384722","9432285","9561033","9532131","9584174","9532349","NA","9735824","9735824","NA","NA","9734314","NAP perception","48","56958","53","yes","1024"
"90.7407407407","yes","90.7407407407","1070.85185185","1070.85185185","white","no","xpyriment","Ich habe die obigen Informationen gelesen und verstanden.","legacy","legacy","0","uniform","1","0","0","undefined","undefined","1","j","2","1","NA","0","1","0","0","0","0","0","0","0","0","63","63","63","0","0","0","NA","0","0","2","0","0","0","2","63","63","63","63","63","Wed Oct 25 12:06:56 2017","Forced-choice identification task with a practice and an experimental phase","yes","NAP_GER_AA_4blocks_noglides.osexp","/Users/aviadalbert/Documents/Academisch/UoC/Dissertation/Experiment/OpenSesame/NAP-FC/NAP_GER_AA_4blocks_noglides","yes","no","sans","no","20","no","black","no","Weiter","yes","768","legacy","53","9","0","/Users/aviadalbert/Documents/Academisch/UoC/Dissertation/Experiment/OpenSesame/NAP-FC/NAP_GER_AA_4blocks_noglides/subject-17.csv","xpyriment","Jazzy James","3.1.9","yes","yes","59a800d99ad5a1025d81bb03","59a801616c613b0251691de0","no","no","0","j","f","space","NA","return","return","j","868","1957","20963","NA","20661","20424","868","2","legacy","1024","1","44100","-16","experiment","elval","3","2","1","0","1","English, norwegian and danish","17","","odd","9584175","9562685","NA","NA","9586133","9584171","NA","8150203","9583704","8150204","8150203","9490975","9511640","9739115","9737612","9739985","9535079","9532345","9562684","NA","9384722","9432285","9561033","9532131","9584174","9532349","NA","9739115","9739115","NA","NA","9737608","NAP perception","49","57826","54","yes","1024"
