"acc","accept_status","accuracy","average_response_time","avg_rt","background","bidi","canvas_backend","checkbox_status","clock_backend","color_backend","compensation","coordinates","correct","correct_block_activation","correct_block_exit","correct_instructions_1","correct_instructions_2","correct_keyboard_response","correct_response","count_block_activation","count_block_exit","count_block_info_QA","count_cont_e_block_message","count_e_block_loop","count_e_block_sequence","count_end_of_experiment","count_experiment","count_experimental_loop","count_form_consent","count_info_forms","count_instructions_1","count_instructions_2","count_keyboard_response","count_listen_message","count_logger","count_p_block_loop","count_p_block_sequence","count_p_feedback","count_pause_feedback","count_personal_details_form_1","count_personal_details_form_2","count_post_loop_blank","count_practice_loop","count_pre_e_block_message","count_pre_p_block_message","count_reset_feedback","count_stimulus_image","count_stimulus_sound","count_timeout_message","count_timeout_sound","count_trial_sequence","datetime","description","disable_garbage_collection","experiment_file","experiment_path","expyriment_opengl","font_bold","font_family","font_italic","font_size","font_underline","foreground","form_clicks","form_response","fullscreen","height","keyboard_backend","live_row","live_row_p_block_loop","live_row_practice_loop","logfile","mouse_backend","opensesame_codename","opensesame_version","osf_always_upload_data","osf_always_upload_experiment","osf_datanode_id","osf_id","practice","pygame_doublebuf","repeat_cycle","response","response_block_activation","response_block_exit","response_block_info_QA","response_instructions_1","response_instructions_2","response_keyboard_response","response_time","response_time_block_activation","response_time_block_exit","response_time_block_info_QA","response_time_instructions_1","response_time_instructions_2","response_time_keyboard_response","round_decimals","sampler_backend","sound_buf_size","sound_channels","sound_freq","sound_sample_size","start","stimulus","subject_age","subject_education","subject_gender","subject_german_native","subject_handedness","subject_language_other","subject_nr","subject_other_native_lang","subject_parity","time_block_activation","time_block_exit","time_block_info_QA","time_cont_e_block_message","time_e_block_loop","time_e_block_sequence","time_end_of_experiment","time_experiment","time_experimental_loop","time_form_consent","time_info_forms","time_instructions_1","time_instructions_2","time_keyboard_response","time_listen_message","time_logger","time_p_block_loop","time_p_block_sequence","time_p_feedback","time_pause_feedback","time_personal_details_form_1","time_personal_details_form_2","time_post_loop_blank","time_practice_loop","time_pre_e_block_message","time_pre_p_block_message","time_reset_feedback","time_stimulus_image","time_stimulus_sound","time_timeout_message","time_timeout_sound","time_trial_sequence","title","total_correct","total_response_time","total_responses","uniform_coordinates","width"
"0","yes","0","3000","3000","white","no","xpyriment","Ich habe die obigen Informationen gelesen und verstanden.","legacy","legacy","0","uniform","0","0","NA","undefined","undefined","0","f","0","0","NA","NA","NA","NA","NA","0","0","0","0","0","0","0","0","0","0","0","NA","NA","0","0","0","0","NA","0","0","0","0","0","0","0","Thu Oct 12 23:42:33 2017","Forced-choice identification task with a practice and an experimental phase","yes","NAP_GER_AA_4blocks_noglides.osexp","/Users/aviadalbert/Documents/Academisch/UoC/Dissertation/Experiment/OpenSesame/NAP-FC/NAP_GER_AA_4blocks_noglides","yes","no","sans","no","20","no","black","no","Weiter","yes","768","legacy","0","0","0","/Users/aviadalbert/Documents/Academisch/UoC/Dissertation/Experiment/OpenSesame/NAP-FC/NAP_GER_AA_4blocks_noglides/subject-11.csv","xpyriment","Jazzy James","3.1.9","yes","yes","59a800d99ad5a1025d81bb03","59a801616c613b0251691de0","yes","no","0","None","j","NA","NA","space","space","None","3000","3307","NA","NA","27056","7662","3000","2","legacy","1024","1","44100","-16","experiment","flal","3","1","1","0","1","English, French","11","","odd","697453","NA","NA","NA","NA","NA","NA","1910","NA","1911","1910","662415","689476","702499","700996","706502","700761","697449","NA","NA","576808","637040","NA","697208","NA","697453","NA","702499","702499","705502","705499","700992","NAP perception","0","3000","1","yes","1024"
"0","yes","0","3000","3000","white","no","xpyriment","Ich habe die obigen Informationen gelesen und verstanden.","legacy","legacy","0","uniform","0","0","NA","undefined","undefined","0","j","0","0","NA","NA","NA","NA","NA","0","0","0","0","0","0","1","1","1","0","0","NA","NA","0","0","0","0","NA","0","0","1","1","1","1","1","Thu Oct 12 23:42:33 2017","Forced-choice identification task with a practice and an experimental phase","yes","NAP_GER_AA_4blocks_noglides.osexp","/Users/aviadalbert/Documents/Academisch/UoC/Dissertation/Experiment/OpenSesame/NAP-FC/NAP_GER_AA_4blocks_noglides","yes","no","sans","no","20","no","black","no","Weiter","yes","768","legacy","1","1","0","/Users/aviadalbert/Documents/Academisch/UoC/Dissertation/Experiment/OpenSesame/NAP-FC/NAP_GER_AA_4blocks_noglides/subject-11.csv","xpyriment","Jazzy James","3.1.9","yes","yes","59a800d99ad5a1025d81bb03","59a801616c613b0251691de0","yes","no","0","None","j","NA","NA","space","space","None","3000","3307","NA","NA","27056","7662","3000","2","legacy","1024","1","44100","-16","experiment","lepal","3","1","1","0","1","English, French","11","","odd","697453","NA","NA","NA","NA","NA","NA","1910","NA","1911","1910","662415","689476","708292","706788","712295","700761","697449","NA","NA","576808","637040","NA","697208","NA","697453","NA","708292","708292","711295","711292","706784","NAP perception","0","6000","2","yes","1024"
"33.3333333333","yes","33.3333333333","2376.66666667","2376.66666667","white","no","xpyriment","Ich habe die obigen Informationen gelesen und verstanden.","legacy","legacy","0","uniform","1","0","NA","undefined","undefined","1","j","0","0","NA","NA","NA","NA","NA","0","0","0","0","0","0","2","2","2","0","0","NA","NA","0","0","0","0","NA","0","0","2","2","2","2","2","Thu Oct 12 23:42:33 2017","Forced-choice identification task with a practice and an experimental phase","yes","NAP_GER_AA_4blocks_noglides.osexp","/Users/aviadalbert/Documents/Academisch/UoC/Dissertation/Experiment/OpenSesame/NAP-FC/NAP_GER_AA_4blocks_noglides","yes","no","sans","no","20","no","black","no","Weiter","yes","768","legacy","2","2","0","/Users/aviadalbert/Documents/Academisch/UoC/Dissertation/Experiment/OpenSesame/NAP-FC/NAP_GER_AA_4blocks_noglides/subject-11.csv","xpyriment","Jazzy James","3.1.9","yes","yes","59a800d99ad5a1025d81bb03","59a801616c613b0251691de0","yes","no","0","j","j","NA","NA","space","space","j","1130","3307","NA","NA","27056","7662","1130","2","legacy","1024","1","44100","-16","experiment","emtal","3","1","1","0","1","English, French","11","","odd","697453","NA","NA","NA","NA","NA","NA","1910","NA","1911","1910","662415","689476","714074","712570","715205","700761","697449","NA","NA","576808","637040","NA","697208","NA","697453","NA","714074","714074","711295","711292","712565","NAP perception","1","7130","3","yes","1024"
"50","yes","50","2033","2033","white","no","xpyriment","Ich habe die obigen Informationen gelesen und verstanden.","legacy","legacy","0","uniform","1","0","NA","undefined","undefined","1","f","0","0","NA","NA","NA","NA","NA","0","0","0","0","0","0","3","3","3","0","0","NA","NA","0","0","0","0","NA","0","0","3","3","3","3","3","Thu Oct 12 23:42:33 2017","Forced-choice identification task with a practice and an experimental phase","yes","NAP_GER_AA_4blocks_noglides.osexp","/Users/aviadalbert/Documents/Academisch/UoC/Dissertation/Experiment/OpenSesame/NAP-FC/NAP_GER_AA_4blocks_noglides","yes","no","sans","no","20","no","black","no","Weiter","yes","768","legacy","3","3","0","/Users/aviadalbert/Documents/Academisch/UoC/Dissertation/Experiment/OpenSesame/NAP-FC/NAP_GER_AA_4blocks_noglides/subject-11.csv","xpyriment","Jazzy James","3.1.9","yes","yes","59a800d99ad5a1025d81bb03","59a801616c613b0251691de0","yes","no","0","f","j","NA","NA","space","space","f","1002","3307","NA","NA","27056","7662","1002","2","legacy","1024","1","44100","-16","experiment","ʃpal","3","1","1","0","1","English, French","11","","odd","697453","NA","NA","NA","NA","NA","NA","1910","NA","1911","1910","662415","689476","717008","715500","718011","700761","697449","NA","NA","576808","637040","NA","697208","NA","697453","NA","717008","717008","711295","711292","715496","NAP perception","2","8132","4","yes","1024"
"60","yes","60","1812.6","1812.6","white","no","xpyriment","Ich habe die obigen Informationen gelesen und verstanden.","legacy","legacy","0","uniform","1","0","NA","undefined","undefined","1","j","0","0","NA","NA","NA","NA","NA","0","0","0","0","0","0","4","4","4","0","0","NA","NA","0","0","0","0","NA","0","0","4","4","4","4","4","Thu Oct 12 23:42:33 2017","Forced-choice identification task with a practice and an experimental phase","yes","NAP_GER_AA_4blocks_noglides.osexp","/Users/aviadalbert/Documents/Academisch/UoC/Dissertation/Experiment/OpenSesame/NAP-FC/NAP_GER_AA_4blocks_noglides","yes","no","sans","no","20","no","black","no","Weiter","yes","768","legacy","4","4","0","/Users/aviadalbert/Documents/Academisch/UoC/Dissertation/Experiment/OpenSesame/NAP-FC/NAP_GER_AA_4blocks_noglides/subject-11.csv","xpyriment","Jazzy James","3.1.9","yes","yes","59a800d99ad5a1025d81bb03","59a801616c613b0251691de0","yes","no","0","j","j","NA","NA","space","space","j","931","3307","NA","NA","27056","7662","931","2","legacy","1024","1","44100","-16","experiment","nefal","3","1","1","0","1","English, French","11","","odd","697453","NA","NA","NA","NA","NA","NA","1910","NA","1911","1910","662415","689476","719798","718292","720730","700761","697449","NA","NA","576808","637040","NA","697208","NA","697453","NA","719798","719798","711295","711292","718288","NAP perception","3","9063","5","yes","1024"
"66.6666666667","yes","66.6666666667","1662","1662","white","no","xpyriment","Ich habe die obigen Informationen gelesen und verstanden.","legacy","legacy","0","uniform","1","0","NA","undefined","undefined","1","f","0","0","NA","NA","NA","NA","NA","0","0","0","0","0","0","5","5","5","0","0","NA","NA","0","0","0","0","NA","0","0","5","5","5","5","5","Thu Oct 12 23:42:33 2017","Forced-choice identification task with a practice and an experimental phase","yes","NAP_GER_AA_4blocks_noglides.osexp","/Users/aviadalbert/Documents/Academisch/UoC/Dissertation/Experiment/OpenSesame/NAP-FC/NAP_GER_AA_4blocks_noglides","yes","no","sans","no","20","no","black","no","Weiter","yes","768","legacy","5","5","0","/Users/aviadalbert/Documents/Academisch/UoC/Dissertation/Experiment/OpenSesame/NAP-FC/NAP_GER_AA_4blocks_noglides/subject-11.csv","xpyriment","Jazzy James","3.1.9","yes","yes","59a800d99ad5a1025d81bb03","59a801616c613b0251691de0","yes","no","0","f","j","NA","NA","space","space","f","909","3307","NA","NA","27056","7662","909","2","legacy","1024","1","44100","-16","experiment","sfal","3","1","1","0","1","English, French","11","","odd","697453","NA","NA","NA","NA","NA","NA","1910","NA","1911","1910","662415","689476","722545","721040","723455","700761","697449","NA","NA","576808","637040","NA","697208","NA","697453","NA","722544","722544","711295","711292","721036","NAP perception","4","9972","6","yes","1024"
"71.4285714286","yes","71.4285714286","1571.85714286","1571.85714286","white","no","xpyriment","Ich habe die obigen Informationen gelesen und verstanden.","legacy","legacy","0","uniform","1","0","NA","undefined","undefined","1","f","0","0","NA","NA","NA","NA","NA","0","0","0","0","0","0","6","6","6","0","0","NA","NA","0","0","0","0","NA","0","0","6","6","6","6","6","Thu Oct 12 23:42:33 2017","Forced-choice identification task with a practice and an experimental phase","yes","NAP_GER_AA_4blocks_noglides.osexp","/Users/aviadalbert/Documents/Academisch/UoC/Dissertation/Experiment/OpenSesame/NAP-FC/NAP_GER_AA_4blocks_noglides","yes","no","sans","no","20","no","black","no","Weiter","yes","768","legacy","6","6","0","/Users/aviadalbert/Documents/Academisch/UoC/Dissertation/Experiment/OpenSesame/NAP-FC/NAP_GER_AA_4blocks_noglides/subject-11.csv","xpyriment","Jazzy James","3.1.9","yes","yes","59a800d99ad5a1025d81bb03","59a801616c613b0251691de0","yes","no","0","f","j","NA","NA","space","space","f","1031","3307","NA","NA","27056","7662","1031","2","legacy","1024","1","44100","-16","experiment","zmal","3","1","1","0","1","English, French","11","","odd","697453","NA","NA","NA","NA","NA","NA","1910","NA","1911","1910","662415","689476","725237","723731","726270","700761","697449","NA","NA","576808","637040","NA","697208","NA","697453","NA","725237","725237","711295","711292","723727","NAP perception","5","11003","7","yes","1024"
"75","yes","75","1474.75","1474.75","white","no","xpyriment","Ich habe die obigen Informationen gelesen und verstanden.","legacy","legacy","0","uniform","1","0","NA","undefined","undefined","1","j","0","0","NA","NA","NA","NA","NA","0","0","0","0","0","0","7","7","7","0","0","NA","NA","0","0","0","0","NA","0","0","7","7","7","7","7","Thu Oct 12 23:42:33 2017","Forced-choice identification task with a practice and an experimental phase","yes","NAP_GER_AA_4blocks_noglides.osexp","/Users/aviadalbert/Documents/Academisch/UoC/Dissertation/Experiment/OpenSesame/NAP-FC/NAP_GER_AA_4blocks_noglides","yes","no","sans","no","20","no","black","no","Weiter","yes","768","legacy","7","7","0","/Users/aviadalbert/Documents/Academisch/UoC/Dissertation/Experiment/OpenSesame/NAP-FC/NAP_GER_AA_4blocks_noglides/subject-11.csv","xpyriment","Jazzy James","3.1.9","yes","yes","59a800d99ad5a1025d81bb03","59a801616c613b0251691de0","yes","no","0","j","j","NA","NA","space","space","j","795","3307","NA","NA","27056","7662","795","2","legacy","1024","1","44100","-16","experiment","mesal","3","1","1","0","1","English, French","11","","odd","697453","NA","NA","NA","NA","NA","NA","1910","NA","1911","1910","662415","689476","728046","726543","728843","700761","697449","NA","NA","576808","637040","NA","697208","NA","697453","NA","728046","728046","711295","711292","726539","NAP perception","6","11798","8","yes","1024"
"77.7777777778","yes","77.7777777778","1417.77777778","1417.77777778","white","no","xpyriment","Ich habe die obigen Informationen gelesen und verstanden.","legacy","legacy","0","uniform","1","0","NA","undefined","undefined","1","j","0","0","NA","NA","NA","NA","NA","0","0","0","0","0","0","8","8","8","0","0","NA","NA","0","0","0","0","NA","0","0","8","8","8","8","8","Thu Oct 12 23:42:33 2017","Forced-choice identification task with a practice and an experimental phase","yes","NAP_GER_AA_4blocks_noglides.osexp","/Users/aviadalbert/Documents/Academisch/UoC/Dissertation/Experiment/OpenSesame/NAP-FC/NAP_GER_AA_4blocks_noglides","yes","no","sans","no","20","no","black","no","Weiter","yes","768","legacy","8","8","0","/Users/aviadalbert/Documents/Academisch/UoC/Dissertation/Experiment/OpenSesame/NAP-FC/NAP_GER_AA_4blocks_noglides/subject-11.csv","xpyriment","Jazzy James","3.1.9","yes","yes","59a800d99ad5a1025d81bb03","59a801616c613b0251691de0","yes","no","0","j","j","NA","NA","space","space","j","962","3307","NA","NA","27056","7662","962","2","legacy","1024","1","44100","-16","experiment","enval","3","1","1","0","1","English, French","11","","odd","697453","NA","NA","NA","NA","NA","NA","1910","NA","1911","1910","662415","689476","730622","729118","731586","700761","697449","NA","NA","576808","637040","NA","697208","NA","697453","NA","730622","730622","711295","711292","729114","NAP perception","7","12760","9","yes","1024"
"80","yes","80","1364.9","1364.9","white","no","xpyriment","Ich habe die obigen Informationen gelesen und verstanden.","legacy","legacy","0","uniform","1","0","NA","undefined","undefined","1","f","0","0","NA","NA","NA","NA","NA","0","0","0","0","0","0","9","9","9","0","0","NA","NA","0","0","0","0","NA","0","0","9","9","9","9","9","Thu Oct 12 23:42:33 2017","Forced-choice identification task with a practice and an experimental phase","yes","NAP_GER_AA_4blocks_noglides.osexp","/Users/aviadalbert/Documents/Academisch/UoC/Dissertation/Experiment/OpenSesame/NAP-FC/NAP_GER_AA_4blocks_noglides","yes","no","sans","no","20","no","black","no","Weiter","yes","768","legacy","9","9","0","/Users/aviadalbert/Documents/Academisch/UoC/Dissertation/Experiment/OpenSesame/NAP-FC/NAP_GER_AA_4blocks_noglides/subject-11.csv","xpyriment","Jazzy James","3.1.9","yes","yes","59a800d99ad5a1025d81bb03","59a801616c613b0251691de0","yes","no","0","f","j","NA","NA","space","space","f","889","3307","NA","NA","27056","7662","889","2","legacy","1024","1","44100","-16","experiment","vlal","3","1","1","0","1","English, French","11","","odd","697453","NA","NA","NA","NA","NA","NA","1910","NA","1911","1910","662415","689476","733369","731863","734259","700761","697449","NA","NA","576808","637040","NA","697208","NA","697453","NA","733369","733369","711295","711292","731859","NAP perception","8","13649","10","yes","1024"
"100","yes","100","1516","1516","white","no","xpyriment","Ich habe die obigen Informationen gelesen und verstanden.","legacy","legacy","0","uniform","1","0","0","undefined","undefined","1","j","2","1","NA","0","1","0","0","0","0","0","0","0","0","10","10","10","0","0","0","NA","0","0","2","0","0","0","2","10","10","10","10","10","Thu Oct 12 23:42:33 2017","Forced-choice identification task with a practice and an experimental phase","yes","NAP_GER_AA_4blocks_noglides.osexp","/Users/aviadalbert/Documents/Academisch/UoC/Dissertation/Experiment/OpenSesame/NAP-FC/NAP_GER_AA_4blocks_noglides","yes","no","sans","no","20","no","black","no","Weiter","yes","768","legacy","0","9","0","/Users/aviadalbert/Documents/Academisch/UoC/Dissertation/Experiment/OpenSesame/NAP-FC/NAP_GER_AA_4blocks_noglides/subject-11.csv","xpyriment","Jazzy James","3.1.9","yes","yes","59a800d99ad5a1025d81bb03","59a801616c613b0251691de0","no","no","0","j","f","space","NA","space","space","j","1516","2829","30818","NA","27056","7662","1516","2","legacy","1024","1","44100","-16","experiment","fenal","3","1","1","0","1","English, French","11","","odd","767337","736004","NA","NA","770167","767333","NA","1910","766881","1911","1910","662415","689476","771890","770381","773407","700761","697449","736003","NA","576808","637040","734320","697208","767337","697453","NA","771889","771890","711295","711292","770378","NAP perception","1","1516","1","yes","1024"
"100","yes","100","1317","1317","white","no","xpyriment","Ich habe die obigen Informationen gelesen und verstanden.","legacy","legacy","0","uniform","1","0","0","undefined","undefined","1","j","2","1","NA","0","1","0","0","0","0","0","0","0","0","11","11","11","0","0","0","NA","0","0","2","0","0","0","2","11","11","11","11","11","Thu Oct 12 23:42:33 2017","Forced-choice identification task with a practice and an experimental phase","yes","NAP_GER_AA_4blocks_noglides.osexp","/Users/aviadalbert/Documents/Academisch/UoC/Dissertation/Experiment/OpenSesame/NAP-FC/NAP_GER_AA_4blocks_noglides","yes","no","sans","no","20","no","black","no","Weiter","yes","768","legacy","1","9","0","/Users/aviadalbert/Documents/Academisch/UoC/Dissertation/Experiment/OpenSesame/NAP-FC/NAP_GER_AA_4blocks_noglides/subject-11.csv","xpyriment","Jazzy James","3.1.9","yes","yes","59a800d99ad5a1025d81bb03","59a801616c613b0251691de0","no","no","0","j","f","space","NA","space","space","j","1118","2829","30818","NA","27056","7662","1118","2","legacy","1024","1","44100","-16","experiment","eʃfal","3","1","1","0","1","English, French","11","","odd","767337","736004","NA","NA","770167","767333","NA","1910","766881","1911","1910","662415","689476","775189","773686","776308","700761","697449","736003","NA","576808","637040","734320","697208","767337","697453","NA","775189","775189","711295","711292","773682","NAP perception","2","2634","2","yes","1024"
"100","yes","100","1152.33333333","1152.33333333","white","no","xpyriment","Ich habe die obigen Informationen gelesen und verstanden.","legacy","legacy","0","uniform","1","0","0","undefined","undefined","1","j","2","1","NA","0","1","0","0","0","0","0","0","0","0","12","12","12","0","0","0","NA","0","0","2","0","0","0","2","12","12","12","12","12","Thu Oct 12 23:42:33 2017","Forced-choice identification task with a practice and an experimental phase","yes","NAP_GER_AA_4blocks_noglides.osexp","/Users/aviadalbert/Documents/Academisch/UoC/Dissertation/Experiment/OpenSesame/NAP-FC/NAP_GER_AA_4blocks_noglides","yes","no","sans","no","20","no","black","no","Weiter","yes","768","legacy","2","9","0","/Users/aviadalbert/Documents/Academisch/UoC/Dissertation/Experiment/OpenSesame/NAP-FC/NAP_GER_AA_4blocks_noglides/subject-11.csv","xpyriment","Jazzy James","3.1.9","yes","yes","59a800d99ad5a1025d81bb03","59a801616c613b0251691de0","no","no","0","j","f","space","NA","space","space","j","823","2829","30818","NA","27056","7662","823","2","legacy","1024","1","44100","-16","experiment","ʃepal","3","1","1","0","1","English, French","11","","odd","767337","736004","NA","NA","770167","767333","NA","1910","766881","1911","1910","662415","689476","778082","776578","778906","700761","697449","736003","NA","576808","637040","734320","697208","767337","697453","NA","778082","778082","711295","711292","776574","NAP perception","3","3457","3","yes","1024"
"100","yes","100","1063.25","1063.25","white","no","xpyriment","Ich habe die obigen Informationen gelesen und verstanden.","legacy","legacy","0","uniform","1","0","0","undefined","undefined","1","f","2","1","NA","0","1","0","0","0","0","0","0","0","0","13","13","13","0","0","0","NA","0","0","2","0","0","0","2","13","13","13","13","13","Thu Oct 12 23:42:33 2017","Forced-choice identification task with a practice and an experimental phase","yes","NAP_GER_AA_4blocks_noglides.osexp","/Users/aviadalbert/Documents/Academisch/UoC/Dissertation/Experiment/OpenSesame/NAP-FC/NAP_GER_AA_4blocks_noglides","yes","no","sans","no","20","no","black","no","Weiter","yes","768","legacy","3","9","0","/Users/aviadalbert/Documents/Academisch/UoC/Dissertation/Experiment/OpenSesame/NAP-FC/NAP_GER_AA_4blocks_noglides/subject-11.csv","xpyriment","Jazzy James","3.1.9","yes","yes","59a800d99ad5a1025d81bb03","59a801616c613b0251691de0","no","no","0","f","f","space","NA","space","space","f","796","2829","30818","NA","27056","7662","796","2","legacy","1024","1","44100","-16","experiment","vlal","3","1","1","0","1","English, French","11","","odd","767337","736004","NA","NA","770167","767333","NA","1910","766881","1911","1910","662415","689476","780682","779178","781479","700761","697449","736003","NA","576808","637040","734320","697208","767337","697453","NA","780682","780682","711295","711292","779174","NAP perception","4","4253","4","yes","1024"
"100","yes","100","1017.6","1017.6","white","no","xpyriment","Ich habe die obigen Informationen gelesen und verstanden.","legacy","legacy","0","uniform","1","0","0","undefined","undefined","1","j","2","1","NA","0","1","0","0","0","0","0","0","0","0","14","14","14","0","0","0","NA","0","0","2","0","0","0","2","14","14","14","14","14","Thu Oct 12 23:42:33 2017","Forced-choice identification task with a practice and an experimental phase","yes","NAP_GER_AA_4blocks_noglides.osexp","/Users/aviadalbert/Documents/Academisch/UoC/Dissertation/Experiment/OpenSesame/NAP-FC/NAP_GER_AA_4blocks_noglides","yes","no","sans","no","20","no","black","no","Weiter","yes","768","legacy","4","9","0","/Users/aviadalbert/Documents/Academisch/UoC/Dissertation/Experiment/OpenSesame/NAP-FC/NAP_GER_AA_4blocks_noglides/subject-11.csv","xpyriment","Jazzy James","3.1.9","yes","yes","59a800d99ad5a1025d81bb03","59a801616c613b0251691de0","no","no","0","j","f","space","NA","space","space","j","835","2829","30818","NA","27056","7662","835","2","legacy","1024","1","44100","-16","experiment","eʃpal","3","1","1","0","1","English, French","11","","odd","767337","736004","NA","NA","770167","767333","NA","1910","766881","1911","1910","662415","689476","783265","781760","784102","700761","697449","736003","NA","576808","637040","734320","697208","767337","697453","NA","783265","783265","711295","711292","781756","NAP perception","5","5088","5","yes","1024"
"100","yes","100","951.833333333","951.833333333","white","no","xpyriment","Ich habe die obigen Informationen gelesen und verstanden.","legacy","legacy","0","uniform","1","0","0","undefined","undefined","1","f","2","1","NA","0","1","0","0","0","0","0","0","0","0","15","15","15","0","0","0","NA","0","0","2","0","0","0","2","15","15","15","15","15","Thu Oct 12 23:42:33 2017","Forced-choice identification task with a practice and an experimental phase","yes","NAP_GER_AA_4blocks_noglides.osexp","/Users/aviadalbert/Documents/Academisch/UoC/Dissertation/Experiment/OpenSesame/NAP-FC/NAP_GER_AA_4blocks_noglides","yes","no","sans","no","20","no","black","no","Weiter","yes","768","legacy","5","9","0","/Users/aviadalbert/Documents/Academisch/UoC/Dissertation/Experiment/OpenSesame/NAP-FC/NAP_GER_AA_4blocks_noglides/subject-11.csv","xpyriment","Jazzy James","3.1.9","yes","yes","59a800d99ad5a1025d81bb03","59a801616c613b0251691de0","no","no","0","f","f","space","NA","space","space","f","623","2829","30818","NA","27056","7662","623","2","legacy","1024","1","44100","-16","experiment","msal","3","1","1","0","1","English, French","11","","odd","767337","736004","NA","NA","770167","767333","NA","1910","766881","1911","1910","662415","689476","785889","784382","786513","700761","697449","736003","NA","576808","637040","734320","697208","767337","697453","NA","785889","785889","711295","711292","784378","NAP perception","6","5711","6","yes","1024"
"100","yes","100","1042.57142857","1042.57142857","white","no","xpyriment","Ich habe die obigen Informationen gelesen und verstanden.","legacy","legacy","0","uniform","1","0","0","undefined","undefined","1","f","2","1","NA","0","1","0","0","0","0","0","0","0","0","16","16","16","0","0","0","NA","0","0","2","0","0","0","2","16","16","16","16","16","Thu Oct 12 23:42:33 2017","Forced-choice identification task with a practice and an experimental phase","yes","NAP_GER_AA_4blocks_noglides.osexp","/Users/aviadalbert/Documents/Academisch/UoC/Dissertation/Experiment/OpenSesame/NAP-FC/NAP_GER_AA_4blocks_noglides","yes","no","sans","no","20","no","black","no","Weiter","yes","768","legacy","6","9","0","/Users/aviadalbert/Documents/Academisch/UoC/Dissertation/Experiment/OpenSesame/NAP-FC/NAP_GER_AA_4blocks_noglides/subject-11.csv","xpyriment","Jazzy James","3.1.9","yes","yes","59a800d99ad5a1025d81bb03","59a801616c613b0251691de0","no","no","0","f","f","space","NA","space","space","f","1587","2829","30818","NA","27056","7662","1587","2","legacy","1024","1","44100","-16","experiment","nval","3","1","1","0","1","English, French","11","","odd","767337","736004","NA","NA","770167","767333","NA","1910","766881","1911","1910","662415","689476","788289","786783","789877","700761","697449","736003","NA","576808","637040","734320","697208","767337","697453","NA","788288","788289","711295","711292","786779","NAP perception","7","7298","7","yes","1024"
"100","yes","100","1027.125","1027.125","white","no","xpyriment","Ich habe die obigen Informationen gelesen und verstanden.","legacy","legacy","0","uniform","1","0","0","undefined","undefined","1","f","2","1","NA","0","1","0","0","0","0","0","0","0","0","17","17","17","0","0","0","NA","0","0","2","0","0","0","2","17","17","17","17","17","Thu Oct 12 23:42:33 2017","Forced-choice identification task with a practice and an experimental phase","yes","NAP_GER_AA_4blocks_noglides.osexp","/Users/aviadalbert/Documents/Academisch/UoC/Dissertation/Experiment/OpenSesame/NAP-FC/NAP_GER_AA_4blocks_noglides","yes","no","sans","no","20","no","black","no","Weiter","yes","768","legacy","7","9","0","/Users/aviadalbert/Documents/Academisch/UoC/Dissertation/Experiment/OpenSesame/NAP-FC/NAP_GER_AA_4blocks_noglides/subject-11.csv","xpyriment","Jazzy James","3.1.9","yes","yes","59a800d99ad5a1025d81bb03","59a801616c613b0251691de0","no","no","0","f","f","space","NA","space","space","f","919","2829","30818","NA","27056","7662","919","2","legacy","1024","1","44100","-16","experiment","smal","3","1","1","0","1","English, French","11","","odd","767337","736004","NA","NA","770167","767333","NA","1910","766881","1911","1910","662415","689476","791664","790159","792584","700761","697449","736003","NA","576808","637040","734320","697208","767337","697453","NA","791664","791664","711295","711292","790155","NAP perception","8","8217","8","yes","1024"
"100","yes","100","1003.44444444","1003.44444444","white","no","xpyriment","Ich habe die obigen Informationen gelesen und verstanden.","legacy","legacy","0","uniform","1","0","0","undefined","undefined","1","j","2","1","NA","0","1","0","0","0","0","0","0","0","0","18","18","18","0","0","0","NA","0","0","2","0","0","0","2","18","18","18","18","18","Thu Oct 12 23:42:33 2017","Forced-choice identification task with a practice and an experimental phase","yes","NAP_GER_AA_4blocks_noglides.osexp","/Users/aviadalbert/Documents/Academisch/UoC/Dissertation/Experiment/OpenSesame/NAP-FC/NAP_GER_AA_4blocks_noglides","yes","no","sans","no","20","no","black","no","Weiter","yes","768","legacy","8","9","0","/Users/aviadalbert/Documents/Academisch/UoC/Dissertation/Experiment/OpenSesame/NAP-FC/NAP_GER_AA_4blocks_noglides/subject-11.csv","xpyriment","Jazzy James","3.1.9","yes","yes","59a800d99ad5a1025d81bb03","59a801616c613b0251691de0","no","no","0","j","f","space","NA","space","space","j","814","2829","30818","NA","27056","7662","814","2","legacy","1024","1","44100","-16","experiment","mesal","3","1","1","0","1","English, French","11","","odd","767337","736004","NA","NA","770167","767333","NA","1910","766881","1911","1910","662415","689476","794371","792865","795186","700761","697449","736003","NA","576808","637040","734320","697208","767337","697453","NA","794370","794370","711295","711292","792861","NAP perception","9","9031","9","yes","1024"
"100","yes","100","1025","1025","white","no","xpyriment","Ich habe die obigen Informationen gelesen und verstanden.","legacy","legacy","0","uniform","1","0","0","undefined","undefined","1","f","2","1","NA","0","1","0","0","0","0","0","0","0","0","19","19","19","0","0","0","NA","0","0","2","0","0","0","2","19","19","19","19","19","Thu Oct 12 23:42:33 2017","Forced-choice identification task with a practice and an experimental phase","yes","NAP_GER_AA_4blocks_noglides.osexp","/Users/aviadalbert/Documents/Academisch/UoC/Dissertation/Experiment/OpenSesame/NAP-FC/NAP_GER_AA_4blocks_noglides","yes","no","sans","no","20","no","black","no","Weiter","yes","768","legacy","9","9","0","/Users/aviadalbert/Documents/Academisch/UoC/Dissertation/Experiment/OpenSesame/NAP-FC/NAP_GER_AA_4blocks_noglides/subject-11.csv","xpyriment","Jazzy James","3.1.9","yes","yes","59a800d99ad5a1025d81bb03","59a801616c613b0251691de0","no","no","0","f","f","space","NA","space","space","f","1219","2829","30818","NA","27056","7662","1219","2","legacy","1024","1","44100","-16","experiment","flal","3","1","1","0","1","English, French","11","","odd","767337","736004","NA","NA","770167","767333","NA","1910","766881","1911","1910","662415","689476","796983","795480","798203","700761","697449","736003","NA","576808","637040","734320","697208","767337","697453","NA","796983","796983","711295","711292","795476","NAP perception","10","10250","10","yes","1024"
"100","yes","100","1008.27272727","1008.27272727","white","no","xpyriment","Ich habe die obigen Informationen gelesen und verstanden.","legacy","legacy","0","uniform","1","0","0","undefined","undefined","1","j","2","1","NA","0","1","0","0","0","0","0","0","0","0","20","20","20","0","0","0","NA","0","0","2","0","0","0","2","20","20","20","20","20","Thu Oct 12 23:42:33 2017","Forced-choice identification task with a practice and an experimental phase","yes","NAP_GER_AA_4blocks_noglides.osexp","/Users/aviadalbert/Documents/Academisch/UoC/Dissertation/Experiment/OpenSesame/NAP-FC/NAP_GER_AA_4blocks_noglides","yes","no","sans","no","20","no","black","no","Weiter","yes","768","legacy","10","9","0","/Users/aviadalbert/Documents/Academisch/UoC/Dissertation/Experiment/OpenSesame/NAP-FC/NAP_GER_AA_4blocks_noglides/subject-11.csv","xpyriment","Jazzy James","3.1.9","yes","yes","59a800d99ad5a1025d81bb03","59a801616c613b0251691de0","no","no","0","j","f","space","NA","space","space","j","841","2829","30818","NA","27056","7662","841","2","legacy","1024","1","44100","-16","experiment","emtal","3","1","1","0","1","English, French","11","","odd","767337","736004","NA","NA","770167","767333","NA","1910","766881","1911","1910","662415","689476","799984","798480","800827","700761","697449","736003","NA","576808","637040","734320","697208","767337","697453","NA","799984","799984","711295","711292","798476","NAP perception","11","11091","11","yes","1024"
"100","yes","100","985.333333333","985.333333333","white","no","xpyriment","Ich habe die obigen Informationen gelesen und verstanden.","legacy","legacy","0","uniform","1","0","0","undefined","undefined","1","j","2","1","NA","0","1","0","0","0","0","0","0","0","0","21","21","21","0","0","0","NA","0","0","2","0","0","0","2","21","21","21","21","21","Thu Oct 12 23:42:33 2017","Forced-choice identification task with a practice and an experimental phase","yes","NAP_GER_AA_4blocks_noglides.osexp","/Users/aviadalbert/Documents/Academisch/UoC/Dissertation/Experiment/OpenSesame/NAP-FC/NAP_GER_AA_4blocks_noglides","yes","no","sans","no","20","no","black","no","Weiter","yes","768","legacy","11","9","0","/Users/aviadalbert/Documents/Academisch/UoC/Dissertation/Experiment/OpenSesame/NAP-FC/NAP_GER_AA_4blocks_noglides/subject-11.csv","xpyriment","Jazzy James","3.1.9","yes","yes","59a800d99ad5a1025d81bb03","59a801616c613b0251691de0","no","no","0","j","f","space","NA","space","space","j","733","2829","30818","NA","27056","7662","733","2","legacy","1024","1","44100","-16","experiment","leval","3","1","1","0","1","English, French","11","","odd","767337","736004","NA","NA","770167","767333","NA","1910","766881","1911","1910","662415","689476","802606","801103","803340","700761","697449","736003","NA","576808","637040","734320","697208","767337","697453","NA","802606","802606","711295","711292","801099","NAP perception","12","11824","12","yes","1024"
"100","yes","100","971.461538462","971.461538462","white","no","xpyriment","Ich habe die obigen Informationen gelesen und verstanden.","legacy","legacy","0","uniform","1","0","0","undefined","undefined","1","f","2","1","NA","0","1","0","0","0","0","0","0","0","0","22","22","22","0","0","0","NA","0","0","2","0","0","0","2","22","22","22","22","22","Thu Oct 12 23:42:33 2017","Forced-choice identification task with a practice and an experimental phase","yes","NAP_GER_AA_4blocks_noglides.osexp","/Users/aviadalbert/Documents/Academisch/UoC/Dissertation/Experiment/OpenSesame/NAP-FC/NAP_GER_AA_4blocks_noglides","yes","no","sans","no","20","no","black","no","Weiter","yes","768","legacy","12","9","0","/Users/aviadalbert/Documents/Academisch/UoC/Dissertation/Experiment/OpenSesame/NAP-FC/NAP_GER_AA_4blocks_noglides/subject-11.csv","xpyriment","Jazzy James","3.1.9","yes","yes","59a800d99ad5a1025d81bb03","59a801616c613b0251691de0","no","no","0","f","f","space","NA","space","space","f","805","2829","30818","NA","27056","7662","805","2","legacy","1024","1","44100","-16","experiment","zmal","3","1","1","0","1","English, French","11","","odd","767337","736004","NA","NA","770167","767333","NA","1910","766881","1911","1910","662415","689476","805114","803610","805920","700761","697449","736003","NA","576808","637040","734320","697208","767337","697453","NA","805114","805114","711295","711292","803606","NAP perception","13","12629","13","yes","1024"
"100","yes","100","957.285714286","957.285714286","white","no","xpyriment","Ich habe die obigen Informationen gelesen und verstanden.","legacy","legacy","0","uniform","1","0","0","undefined","undefined","1","f","2","1","NA","0","1","0","0","0","0","0","0","0","0","23","23","23","0","0","0","NA","0","0","2","0","0","0","2","23","23","23","23","23","Thu Oct 12 23:42:33 2017","Forced-choice identification task with a practice and an experimental phase","yes","NAP_GER_AA_4blocks_noglides.osexp","/Users/aviadalbert/Documents/Academisch/UoC/Dissertation/Experiment/OpenSesame/NAP-FC/NAP_GER_AA_4blocks_noglides","yes","no","sans","no","20","no","black","no","Weiter","yes","768","legacy","13","9","0","/Users/aviadalbert/Documents/Academisch/UoC/Dissertation/Experiment/OpenSesame/NAP-FC/NAP_GER_AA_4blocks_noglides/subject-11.csv","xpyriment","Jazzy James","3.1.9","yes","yes","59a800d99ad5a1025d81bb03","59a801616c613b0251691de0","no","no","0","f","f","space","NA","space","space","f","773","2829","30818","NA","27056","7662","773","2","legacy","1024","1","44100","-16","experiment","spal","3","1","1","0","1","English, French","11","","odd","767337","736004","NA","NA","770167","767333","NA","1910","766881","1911","1910","662415","689476","807702","806199","808477","700761","697449","736003","NA","576808","637040","734320","697208","767337","697453","NA","807702","807702","711295","711292","806195","NAP perception","14","13402","14","yes","1024"
"100","yes","100","961.4","961.4","white","no","xpyriment","Ich habe die obigen Informationen gelesen und verstanden.","legacy","legacy","0","uniform","1","0","0","undefined","undefined","1","j","2","1","NA","0","1","0","0","0","0","0","0","0","0","24","24","24","0","0","0","NA","0","0","2","0","0","0","2","24","24","24","24","24","Thu Oct 12 23:42:33 2017","Forced-choice identification task with a practice and an experimental phase","yes","NAP_GER_AA_4blocks_noglides.osexp","/Users/aviadalbert/Documents/Academisch/UoC/Dissertation/Experiment/OpenSesame/NAP-FC/NAP_GER_AA_4blocks_noglides","yes","no","sans","no","20","no","black","no","Weiter","yes","768","legacy","14","9","0","/Users/aviadalbert/Documents/Academisch/UoC/Dissertation/Experiment/OpenSesame/NAP-FC/NAP_GER_AA_4blocks_noglides/subject-11.csv","xpyriment","Jazzy James","3.1.9","yes","yes","59a800d99ad5a1025d81bb03","59a801616c613b0251691de0","no","no","0","j","f","space","NA","space","space","j","1019","2829","30818","NA","27056","7662","1019","2","legacy","1024","1","44100","-16","experiment","efsal","3","1","1","0","1","English, French","11","","odd","767337","736004","NA","NA","770167","767333","NA","1910","766881","1911","1910","662415","689476","810253","808747","811273","700761","697449","736003","NA","576808","637040","734320","697208","767337","697453","NA","810253","810253","711295","711292","808743","NAP perception","15","14421","15","yes","1024"
"100","yes","100","958.6875","958.6875","white","no","xpyriment","Ich habe die obigen Informationen gelesen und verstanden.","legacy","legacy","0","uniform","1","0","0","undefined","undefined","1","j","2","1","NA","0","1","0","0","0","0","0","0","0","0","25","25","25","0","0","0","NA","0","0","2","0","0","0","2","25","25","25","25","25","Thu Oct 12 23:42:33 2017","Forced-choice identification task with a practice and an experimental phase","yes","NAP_GER_AA_4blocks_noglides.osexp","/Users/aviadalbert/Documents/Academisch/UoC/Dissertation/Experiment/OpenSesame/NAP-FC/NAP_GER_AA_4blocks_noglides","yes","no","sans","no","20","no","black","no","Weiter","yes","768","legacy","15","9","0","/Users/aviadalbert/Documents/Academisch/UoC/Dissertation/Experiment/OpenSesame/NAP-FC/NAP_GER_AA_4blocks_noglides/subject-11.csv","xpyriment","Jazzy James","3.1.9","yes","yes","59a800d99ad5a1025d81bb03","59a801616c613b0251691de0","no","no","0","j","f","space","NA","space","space","j","918","2829","30818","NA","27056","7662","918","2","legacy","1024","1","44100","-16","experiment","velal","3","1","1","0","1","English, French","11","","odd","767337","736004","NA","NA","770167","767333","NA","1910","766881","1911","1910","662415","689476","813075","811569","813994","700761","697449","736003","NA","576808","637040","734320","697208","767337","697453","NA","813075","813075","711295","711292","811565","NAP perception","16","15339","16","yes","1024"
"94.1176470588","yes","94.1176470588","1031.11764706","1031.11764706","white","no","xpyriment","Ich habe die obigen Informationen gelesen und verstanden.","legacy","legacy","0","uniform","0","0","0","undefined","undefined","0","f","2","1","NA","0","1","0","0","0","0","0","0","0","0","26","26","26","0","0","0","NA","0","0","2","0","0","0","2","26","26","26","26","26","Thu Oct 12 23:42:33 2017","Forced-choice identification task with a practice and an experimental phase","yes","NAP_GER_AA_4blocks_noglides.osexp","/Users/aviadalbert/Documents/Academisch/UoC/Dissertation/Experiment/OpenSesame/NAP-FC/NAP_GER_AA_4blocks_noglides","yes","no","sans","no","20","no","black","no","Weiter","yes","768","legacy","16","9","0","/Users/aviadalbert/Documents/Academisch/UoC/Dissertation/Experiment/OpenSesame/NAP-FC/NAP_GER_AA_4blocks_noglides/subject-11.csv","xpyriment","Jazzy James","3.1.9","yes","yes","59a800d99ad5a1025d81bb03","59a801616c613b0251691de0","no","no","0","j","f","space","NA","space","space","j","2190","2829","30818","NA","27056","7662","2190","2","legacy","1024","1","44100","-16","experiment","lval","3","1","1","0","1","English, French","11","","odd","767337","736004","NA","NA","770167","767333","NA","1910","766881","1911","1910","662415","689476","815785","814280","817976","700761","697449","736003","NA","576808","637040","734320","697208","767337","697453","NA","815785","815785","711295","711292","814276","NAP perception","16","17529","17","yes","1024"
"94.4444444444","yes","94.4444444444","1016","1016","white","no","xpyriment","Ich habe die obigen Informationen gelesen und verstanden.","legacy","legacy","0","uniform","1","0","0","undefined","undefined","1","f","2","1","NA","0","1","0","0","0","0","0","0","0","0","27","27","27","0","0","0","NA","0","0","2","0","0","0","2","27","27","27","27","27","Thu Oct 12 23:42:33 2017","Forced-choice identification task with a practice and an experimental phase","yes","NAP_GER_AA_4blocks_noglides.osexp","/Users/aviadalbert/Documents/Academisch/UoC/Dissertation/Experiment/OpenSesame/NAP-FC/NAP_GER_AA_4blocks_noglides","yes","no","sans","no","20","no","black","no","Weiter","yes","768","legacy","17","9","0","/Users/aviadalbert/Documents/Academisch/UoC/Dissertation/Experiment/OpenSesame/NAP-FC/NAP_GER_AA_4blocks_noglides/subject-11.csv","xpyriment","Jazzy James","3.1.9","yes","yes","59a800d99ad5a1025d81bb03","59a801616c613b0251691de0","no","no","0","f","f","space","NA","space","space","f","759","2829","30818","NA","27056","7662","759","2","legacy","1024","1","44100","-16","experiment","sfal","3","1","1","0","1","English, French","11","","odd","767337","736004","NA","NA","770167","767333","NA","1910","766881","1911","1910","662415","689476","819762","818256","820523","700761","697449","736003","NA","576808","637040","734320","697208","767337","697453","NA","819762","819762","711295","711292","818252","NAP perception","17","18288","18","yes","1024"
"94.7368421053","yes","94.7368421053","1013.05263158","1013.05263158","white","no","xpyriment","Ich habe die obigen Informationen gelesen und verstanden.","legacy","legacy","0","uniform","1","0","0","undefined","undefined","1","f","2","1","NA","0","1","0","0","0","0","0","0","0","0","28","28","28","0","0","0","NA","0","0","2","0","0","0","2","28","28","28","28","28","Thu Oct 12 23:42:33 2017","Forced-choice identification task with a practice and an experimental phase","yes","NAP_GER_AA_4blocks_noglides.osexp","/Users/aviadalbert/Documents/Academisch/UoC/Dissertation/Experiment/OpenSesame/NAP-FC/NAP_GER_AA_4blocks_noglides","yes","no","sans","no","20","no","black","no","Weiter","yes","768","legacy","18","9","0","/Users/aviadalbert/Documents/Academisch/UoC/Dissertation/Experiment/OpenSesame/NAP-FC/NAP_GER_AA_4blocks_noglides/subject-11.csv","xpyriment","Jazzy James","3.1.9","yes","yes","59a800d99ad5a1025d81bb03","59a801616c613b0251691de0","no","no","0","f","f","space","NA","space","space","f","960","2829","30818","NA","27056","7662","960","2","legacy","1024","1","44100","-16","experiment","mlal","3","1","1","0","1","English, French","11","","odd","767337","736004","NA","NA","770167","767333","NA","1910","766881","1911","1910","662415","689476","822304","820798","823265","700761","697449","736003","NA","576808","637040","734320","697208","767337","697453","NA","822304","822304","711295","711292","820794","NAP perception","18","19248","19","yes","1024"
"95","yes","95","1002.2","1002.2","white","no","xpyriment","Ich habe die obigen Informationen gelesen und verstanden.","legacy","legacy","0","uniform","1","0","0","undefined","undefined","1","f","2","1","NA","0","1","0","0","0","0","0","0","0","0","29","29","29","0","0","0","NA","0","0","2","0","0","0","2","29","29","29","29","29","Thu Oct 12 23:42:33 2017","Forced-choice identification task with a practice and an experimental phase","yes","NAP_GER_AA_4blocks_noglides.osexp","/Users/aviadalbert/Documents/Academisch/UoC/Dissertation/Experiment/OpenSesame/NAP-FC/NAP_GER_AA_4blocks_noglides","yes","no","sans","no","20","no","black","no","Weiter","yes","768","legacy","19","9","0","/Users/aviadalbert/Documents/Academisch/UoC/Dissertation/Experiment/OpenSesame/NAP-FC/NAP_GER_AA_4blocks_noglides/subject-11.csv","xpyriment","Jazzy James","3.1.9","yes","yes","59a800d99ad5a1025d81bb03","59a801616c613b0251691de0","no","no","0","f","f","space","NA","space","space","f","796","2829","30818","NA","27056","7662","796","2","legacy","1024","1","44100","-16","experiment","zval","3","1","1","0","1","English, French","11","","odd","767337","736004","NA","NA","770167","767333","NA","1910","766881","1911","1910","662415","689476","825051","823547","825849","700761","697449","736003","NA","576808","637040","734320","697208","767337","697453","NA","825051","825051","711295","711292","823543","NAP perception","19","20044","20","yes","1024"
"95.2380952381","yes","95.2380952381","989.80952381","989.80952381","white","no","xpyriment","Ich habe die obigen Informationen gelesen und verstanden.","legacy","legacy","0","uniform","1","0","0","undefined","undefined","1","f","2","1","NA","0","1","0","0","0","0","0","0","0","0","30","30","30","0","0","0","NA","0","0","2","0","0","0","2","30","30","30","30","30","Thu Oct 12 23:42:33 2017","Forced-choice identification task with a practice and an experimental phase","yes","NAP_GER_AA_4blocks_noglides.osexp","/Users/aviadalbert/Documents/Academisch/UoC/Dissertation/Experiment/OpenSesame/NAP-FC/NAP_GER_AA_4blocks_noglides","yes","no","sans","no","20","no","black","no","Weiter","yes","768","legacy","20","9","0","/Users/aviadalbert/Documents/Academisch/UoC/Dissertation/Experiment/OpenSesame/NAP-FC/NAP_GER_AA_4blocks_noglides/subject-11.csv","xpyriment","Jazzy James","3.1.9","yes","yes","59a800d99ad5a1025d81bb03","59a801616c613b0251691de0","no","no","0","f","f","space","NA","space","space","f","742","2829","30818","NA","27056","7662","742","2","legacy","1024","1","44100","-16","experiment","ʃmal","3","1","1","0","1","English, French","11","","odd","767337","736004","NA","NA","770167","767333","NA","1910","766881","1911","1910","662415","689476","827640","826137","828383","700761","697449","736003","NA","576808","637040","734320","697208","767337","697453","NA","827640","827640","711295","711292","826133","NAP perception","20","20786","21","yes","1024"
"95.4545454545","yes","95.4545454545","980.545454545","980.545454545","white","no","xpyriment","Ich habe die obigen Informationen gelesen und verstanden.","legacy","legacy","0","uniform","1","0","0","undefined","undefined","1","j","2","1","NA","0","1","0","0","0","0","0","0","0","0","31","31","31","0","0","0","NA","0","0","2","0","0","0","2","31","31","31","31","31","Thu Oct 12 23:42:33 2017","Forced-choice identification task with a practice and an experimental phase","yes","NAP_GER_AA_4blocks_noglides.osexp","/Users/aviadalbert/Documents/Academisch/UoC/Dissertation/Experiment/OpenSesame/NAP-FC/NAP_GER_AA_4blocks_noglides","yes","no","sans","no","20","no","black","no","Weiter","yes","768","legacy","21","9","0","/Users/aviadalbert/Documents/Academisch/UoC/Dissertation/Experiment/OpenSesame/NAP-FC/NAP_GER_AA_4blocks_noglides/subject-11.csv","xpyriment","Jazzy James","3.1.9","yes","yes","59a800d99ad5a1025d81bb03","59a801616c613b0251691de0","no","no","0","j","f","space","NA","space","space","j","786","2829","30818","NA","27056","7662","786","2","legacy","1024","1","44100","-16","experiment","nepal","3","1","1","0","1","English, French","11","","odd","767337","736004","NA","NA","770167","767333","NA","1910","766881","1911","1910","662415","689476","830166","828663","830953","700761","697449","736003","NA","576808","637040","734320","697208","767337","697453","NA","830166","830166","711295","711292","828659","NAP perception","21","21572","22","yes","1024"
"91.3043478261","yes","91.3043478261","971.391304348","971.391304348","white","no","xpyriment","Ich habe die obigen Informationen gelesen und verstanden.","legacy","legacy","0","uniform","0","0","0","undefined","undefined","0","f","2","1","NA","0","1","0","0","0","0","0","0","0","0","32","32","32","0","0","0","NA","0","0","2","0","0","0","2","32","32","32","32","32","Thu Oct 12 23:42:33 2017","Forced-choice identification task with a practice and an experimental phase","yes","NAP_GER_AA_4blocks_noglides.osexp","/Users/aviadalbert/Documents/Academisch/UoC/Dissertation/Experiment/OpenSesame/NAP-FC/NAP_GER_AA_4blocks_noglides","yes","no","sans","no","20","no","black","no","Weiter","yes","768","legacy","22","9","0","/Users/aviadalbert/Documents/Academisch/UoC/Dissertation/Experiment/OpenSesame/NAP-FC/NAP_GER_AA_4blocks_noglides/subject-11.csv","xpyriment","Jazzy James","3.1.9","yes","yes","59a800d99ad5a1025d81bb03","59a801616c613b0251691de0","no","no","0","j","f","space","NA","space","space","j","770","2829","30818","NA","27056","7662","770","2","legacy","1024","1","44100","-16","experiment","nmal","3","1","1","0","1","English, French","11","","odd","767337","736004","NA","NA","770167","767333","NA","1910","766881","1911","1910","662415","689476","832731","831226","833502","700761","697449","736003","NA","576808","637040","734320","697208","767337","697453","NA","832730","832730","711295","711292","831222","NAP perception","21","22342","23","yes","1024"
"91.6666666667","yes","91.6666666667","960.25","960.25","white","no","xpyriment","Ich habe die obigen Informationen gelesen und verstanden.","legacy","legacy","0","uniform","1","0","0","undefined","undefined","1","f","2","1","NA","0","1","0","0","0","0","0","0","0","0","33","33","33","0","0","0","NA","0","0","2","0","0","0","2","33","33","33","33","33","Thu Oct 12 23:42:33 2017","Forced-choice identification task with a practice and an experimental phase","yes","NAP_GER_AA_4blocks_noglides.osexp","/Users/aviadalbert/Documents/Academisch/UoC/Dissertation/Experiment/OpenSesame/NAP-FC/NAP_GER_AA_4blocks_noglides","yes","no","sans","no","20","no","black","no","Weiter","yes","768","legacy","23","9","0","/Users/aviadalbert/Documents/Academisch/UoC/Dissertation/Experiment/OpenSesame/NAP-FC/NAP_GER_AA_4blocks_noglides/subject-11.csv","xpyriment","Jazzy James","3.1.9","yes","yes","59a800d99ad5a1025d81bb03","59a801616c613b0251691de0","no","no","0","f","f","space","NA","space","space","f","704","2829","30818","NA","27056","7662","704","2","legacy","1024","1","44100","-16","experiment","fnal","3","1","1","0","1","English, French","11","","odd","767337","736004","NA","NA","770167","767333","NA","1910","766881","1911","1910","662415","689476","835278","833772","835984","700761","697449","736003","NA","576808","637040","734320","697208","767337","697453","NA","835278","835278","711295","711292","833768","NAP perception","22","23046","24","yes","1024"
"92","yes","92","958.52","958.52","white","no","xpyriment","Ich habe die obigen Informationen gelesen und verstanden.","legacy","legacy","0","uniform","1","0","0","undefined","undefined","1","j","2","1","NA","0","1","0","0","0","0","0","0","0","0","34","34","34","0","0","0","NA","0","0","2","0","0","0","2","34","34","34","34","34","Thu Oct 12 23:42:33 2017","Forced-choice identification task with a practice and an experimental phase","yes","NAP_GER_AA_4blocks_noglides.osexp","/Users/aviadalbert/Documents/Academisch/UoC/Dissertation/Experiment/OpenSesame/NAP-FC/NAP_GER_AA_4blocks_noglides","yes","no","sans","no","20","no","black","no","Weiter","yes","768","legacy","24","9","0","/Users/aviadalbert/Documents/Academisch/UoC/Dissertation/Experiment/OpenSesame/NAP-FC/NAP_GER_AA_4blocks_noglides/subject-11.csv","xpyriment","Jazzy James","3.1.9","yes","yes","59a800d99ad5a1025d81bb03","59a801616c613b0251691de0","no","no","0","j","f","space","NA","space","space","j","917","2829","30818","NA","27056","7662","917","2","legacy","1024","1","44100","-16","experiment","elval","3","1","1","0","1","English, French","11","","odd","767337","736004","NA","NA","770167","767333","NA","1910","766881","1911","1910","662415","689476","837746","836242","838665","700761","697449","736003","NA","576808","637040","734320","697208","767337","697453","NA","837745","837746","711295","711292","836238","NAP perception","23","23963","25","yes","1024"
"92.3076923077","yes","92.3076923077","958.5","958.5","white","no","xpyriment","Ich habe die obigen Informationen gelesen und verstanden.","legacy","legacy","0","uniform","1","0","0","undefined","undefined","1","j","2","1","NA","0","1","0","0","0","0","0","0","0","0","35","35","35","0","0","0","NA","0","0","2","0","0","0","2","35","35","35","35","35","Thu Oct 12 23:42:33 2017","Forced-choice identification task with a practice and an experimental phase","yes","NAP_GER_AA_4blocks_noglides.osexp","/Users/aviadalbert/Documents/Academisch/UoC/Dissertation/Experiment/OpenSesame/NAP-FC/NAP_GER_AA_4blocks_noglides","yes","no","sans","no","20","no","black","no","Weiter","yes","768","legacy","25","9","0","/Users/aviadalbert/Documents/Academisch/UoC/Dissertation/Experiment/OpenSesame/NAP-FC/NAP_GER_AA_4blocks_noglides/subject-11.csv","xpyriment","Jazzy James","3.1.9","yes","yes","59a800d99ad5a1025d81bb03","59a801616c613b0251691de0","no","no","0","j","f","space","NA","space","space","j","958","2829","30818","NA","27056","7662","958","2","legacy","1024","1","44100","-16","experiment","enmal","3","1","1","0","1","English, French","11","","odd","767337","736004","NA","NA","770167","767333","NA","1910","766881","1911","1910","662415","689476","840443","838940","841403","700761","697449","736003","NA","576808","637040","734320","697208","767337","697453","NA","840443","840443","711295","711292","838936","NAP perception","24","24921","26","yes","1024"
"88.8888888889","yes","88.8888888889","989.148148148","989.148148148","white","no","xpyriment","Ich habe die obigen Informationen gelesen und verstanden.","legacy","legacy","0","uniform","0","0","0","undefined","undefined","0","f","2","1","NA","0","1","0","0","0","0","0","0","0","0","36","36","36","0","0","0","NA","0","0","2","0","0","0","2","36","36","36","36","36","Thu Oct 12 23:42:33 2017","Forced-choice identification task with a practice and an experimental phase","yes","NAP_GER_AA_4blocks_noglides.osexp","/Users/aviadalbert/Documents/Academisch/UoC/Dissertation/Experiment/OpenSesame/NAP-FC/NAP_GER_AA_4blocks_noglides","yes","no","sans","no","20","no","black","no","Weiter","yes","768","legacy","26","9","0","/Users/aviadalbert/Documents/Academisch/UoC/Dissertation/Experiment/OpenSesame/NAP-FC/NAP_GER_AA_4blocks_noglides/subject-11.csv","xpyriment","Jazzy James","3.1.9","yes","yes","59a800d99ad5a1025d81bb03","59a801616c613b0251691de0","no","no","0","j","f","space","NA","space","space","j","1786","2829","30818","NA","27056","7662","1786","2","legacy","1024","1","44100","-16","experiment","nfal","3","1","1","0","1","English, French","11","","odd","767337","736004","NA","NA","770167","767333","NA","1910","766881","1911","1910","662415","689476","843186","841682","844974","700761","697449","736003","NA","576808","637040","734320","697208","767337","697453","NA","843186","843186","711295","711292","841678","NAP perception","24","26707","27","yes","1024"
"89.2857142857","yes","89.2857142857","981.178571429","981.178571429","white","no","xpyriment","Ich habe die obigen Informationen gelesen und verstanden.","legacy","legacy","0","uniform","1","0","0","undefined","undefined","1","f","2","1","NA","0","1","0","0","0","0","0","0","0","0","37","37","37","0","0","0","NA","0","0","2","0","0","0","2","37","37","37","37","37","Thu Oct 12 23:42:33 2017","Forced-choice identification task with a practice and an experimental phase","yes","NAP_GER_AA_4blocks_noglides.osexp","/Users/aviadalbert/Documents/Academisch/UoC/Dissertation/Experiment/OpenSesame/NAP-FC/NAP_GER_AA_4blocks_noglides","yes","no","sans","no","20","no","black","no","Weiter","yes","768","legacy","27","9","0","/Users/aviadalbert/Documents/Academisch/UoC/Dissertation/Experiment/OpenSesame/NAP-FC/NAP_GER_AA_4blocks_noglides/subject-11.csv","xpyriment","Jazzy James","3.1.9","yes","yes","59a800d99ad5a1025d81bb03","59a801616c613b0251691de0","no","no","0","f","f","space","NA","space","space","f","766","2829","30818","NA","27056","7662","766","2","legacy","1024","1","44100","-16","experiment","fnal","3","1","1","0","1","English, French","11","","odd","767337","736004","NA","NA","770167","767333","NA","1910","766881","1911","1910","662415","689476","846772","845268","847540","700761","697449","736003","NA","576808","637040","734320","697208","767337","697453","NA","846772","846772","711295","711292","845264","NAP perception","25","27473","28","yes","1024"
"89.6551724138","yes","89.6551724138","980.103448276","980.103448276","white","no","xpyriment","Ich habe die obigen Informationen gelesen und verstanden.","legacy","legacy","0","uniform","1","0","0","undefined","undefined","1","j","2","1","NA","0","1","0","0","0","0","0","0","0","0","38","38","38","0","0","0","NA","0","0","2","0","0","0","2","38","38","38","38","38","Thu Oct 12 23:42:33 2017","Forced-choice identification task with a practice and an experimental phase","yes","NAP_GER_AA_4blocks_noglides.osexp","/Users/aviadalbert/Documents/Academisch/UoC/Dissertation/Experiment/OpenSesame/NAP-FC/NAP_GER_AA_4blocks_noglides","yes","no","sans","no","20","no","black","no","Weiter","yes","768","legacy","28","9","0","/Users/aviadalbert/Documents/Academisch/UoC/Dissertation/Experiment/OpenSesame/NAP-FC/NAP_GER_AA_4blocks_noglides/subject-11.csv","xpyriment","Jazzy James","3.1.9","yes","yes","59a800d99ad5a1025d81bb03","59a801616c613b0251691de0","no","no","0","j","f","space","NA","space","space","j","950","2829","30818","NA","27056","7662","950","2","legacy","1024","1","44100","-16","experiment","evzal","3","1","1","0","1","English, French","11","","odd","767337","736004","NA","NA","770167","767333","NA","1910","766881","1911","1910","662415","689476","849316","847812","850268","700761","697449","736003","NA","576808","637040","734320","697208","767337","697453","NA","849315","849315","711295","711292","847807","NAP perception","26","28423","29","yes","1024"
"90","yes","90","980.1","980.1","white","no","xpyriment","Ich habe die obigen Informationen gelesen und verstanden.","legacy","legacy","0","uniform","1","0","0","undefined","undefined","1","j","2","1","NA","0","1","0","0","0","0","0","0","0","0","39","39","39","0","0","0","NA","0","0","2","0","0","0","2","39","39","39","39","39","Thu Oct 12 23:42:33 2017","Forced-choice identification task with a practice and an experimental phase","yes","NAP_GER_AA_4blocks_noglides.osexp","/Users/aviadalbert/Documents/Academisch/UoC/Dissertation/Experiment/OpenSesame/NAP-FC/NAP_GER_AA_4blocks_noglides","yes","no","sans","no","20","no","black","no","Weiter","yes","768","legacy","29","9","0","/Users/aviadalbert/Documents/Academisch/UoC/Dissertation/Experiment/OpenSesame/NAP-FC/NAP_GER_AA_4blocks_noglides/subject-11.csv","xpyriment","Jazzy James","3.1.9","yes","yes","59a800d99ad5a1025d81bb03","59a801616c613b0251691de0","no","no","0","j","f","space","NA","space","space","j","980","2829","30818","NA","27056","7662","980","2","legacy","1024","1","44100","-16","experiment","nefal","3","1","1","0","1","English, French","11","","odd","767337","736004","NA","NA","770167","767333","NA","1910","766881","1911","1910","662415","689476","852051","850546","853033","700761","697449","736003","NA","576808","637040","734320","697208","767337","697453","NA","852050","852050","711295","711292","850542","NAP perception","27","29403","30","yes","1024"
"90.3225806452","yes","90.3225806452","983.903225806","983.903225806","white","no","xpyriment","Ich habe die obigen Informationen gelesen und verstanden.","legacy","legacy","0","uniform","1","0","0","undefined","undefined","1","f","2","1","NA","0","1","0","0","0","0","0","0","0","0","40","40","40","0","0","0","NA","0","0","2","0","0","0","2","40","40","40","40","40","Thu Oct 12 23:42:33 2017","Forced-choice identification task with a practice and an experimental phase","yes","NAP_GER_AA_4blocks_noglides.osexp","/Users/aviadalbert/Documents/Academisch/UoC/Dissertation/Experiment/OpenSesame/NAP-FC/NAP_GER_AA_4blocks_noglides","yes","no","sans","no","20","no","black","no","Weiter","yes","768","legacy","30","9","0","/Users/aviadalbert/Documents/Academisch/UoC/Dissertation/Experiment/OpenSesame/NAP-FC/NAP_GER_AA_4blocks_noglides/subject-11.csv","xpyriment","Jazzy James","3.1.9","yes","yes","59a800d99ad5a1025d81bb03","59a801616c613b0251691de0","no","no","0","f","f","space","NA","space","space","f","1098","2829","30818","NA","27056","7662","1098","2","legacy","1024","1","44100","-16","experiment","msal","3","1","1","0","1","English, French","11","","odd","767337","736004","NA","NA","770167","767333","NA","1910","766881","1911","1910","662415","689476","854813","853309","855913","700761","697449","736003","NA","576808","637040","734320","697208","767337","697453","NA","854813","854813","711295","711292","853305","NAP perception","28","30501","31","yes","1024"
"87.5","yes","87.5","984.78125","984.78125","white","no","xpyriment","Ich habe die obigen Informationen gelesen und verstanden.","legacy","legacy","0","uniform","0","0","0","undefined","undefined","0","f","2","1","NA","0","1","0","0","0","0","0","0","0","0","41","41","41","0","0","0","NA","0","0","2","0","0","0","2","41","41","41","41","41","Thu Oct 12 23:42:33 2017","Forced-choice identification task with a practice and an experimental phase","yes","NAP_GER_AA_4blocks_noglides.osexp","/Users/aviadalbert/Documents/Academisch/UoC/Dissertation/Experiment/OpenSesame/NAP-FC/NAP_GER_AA_4blocks_noglides","yes","no","sans","no","20","no","black","no","Weiter","yes","768","legacy","31","9","0","/Users/aviadalbert/Documents/Academisch/UoC/Dissertation/Experiment/OpenSesame/NAP-FC/NAP_GER_AA_4blocks_noglides/subject-11.csv","xpyriment","Jazzy James","3.1.9","yes","yes","59a800d99ad5a1025d81bb03","59a801616c613b0251691de0","no","no","0","j","f","space","NA","space","space","j","1012","2829","30818","NA","27056","7662","1012","2","legacy","1024","1","44100","-16","experiment","lpal","3","1","1","0","1","English, French","11","","odd","767337","736004","NA","NA","770167","767333","NA","1910","766881","1911","1910","662415","689476","857699","856192","858712","700761","697449","736003","NA","576808","637040","734320","697208","767337","697453","NA","857698","857699","711295","711292","856188","NAP perception","28","31513","32","yes","1024"
"87.8787878788","yes","87.8787878788","982.96969697","982.96969697","white","no","xpyriment","Ich habe die obigen Informationen gelesen und verstanden.","legacy","legacy","0","uniform","1","0","0","undefined","undefined","1","j","2","1","NA","0","1","0","0","0","0","0","0","0","0","42","42","42","0","0","0","NA","0","0","2","0","0","0","2","42","42","42","42","42","Thu Oct 12 23:42:33 2017","Forced-choice identification task with a practice and an experimental phase","yes","NAP_GER_AA_4blocks_noglides.osexp","/Users/aviadalbert/Documents/Academisch/UoC/Dissertation/Experiment/OpenSesame/NAP-FC/NAP_GER_AA_4blocks_noglides","yes","no","sans","no","20","no","black","no","Weiter","yes","768","legacy","32","9","0","/Users/aviadalbert/Documents/Academisch/UoC/Dissertation/Experiment/OpenSesame/NAP-FC/NAP_GER_AA_4blocks_noglides/subject-11.csv","xpyriment","Jazzy James","3.1.9","yes","yes","59a800d99ad5a1025d81bb03","59a801616c613b0251691de0","no","no","0","j","f","space","NA","space","space","j","925","2829","30818","NA","27056","7662","925","2","legacy","1024","1","44100","-16","experiment","zeval","3","1","1","0","1","English, French","11","","odd","767337","736004","NA","NA","770167","767333","NA","1910","766881","1911","1910","662415","689476","860505","859000","861431","700761","697449","736003","NA","576808","637040","734320","697208","767337","697453","NA","860505","860505","711295","711292","858997","NAP perception","29","32438","33","yes","1024"
"88.2352941176","yes","88.2352941176","982.323529412","982.323529412","white","no","xpyriment","Ich habe die obigen Informationen gelesen und verstanden.","legacy","legacy","0","uniform","1","0","0","undefined","undefined","1","j","2","1","NA","0","1","0","0","0","0","0","0","0","0","43","43","43","0","0","0","NA","0","0","2","0","0","0","2","43","43","43","43","43","Thu Oct 12 23:42:33 2017","Forced-choice identification task with a practice and an experimental phase","yes","NAP_GER_AA_4blocks_noglides.osexp","/Users/aviadalbert/Documents/Academisch/UoC/Dissertation/Experiment/OpenSesame/NAP-FC/NAP_GER_AA_4blocks_noglides","yes","no","sans","no","20","no","black","no","Weiter","yes","768","legacy","33","9","0","/Users/aviadalbert/Documents/Academisch/UoC/Dissertation/Experiment/OpenSesame/NAP-FC/NAP_GER_AA_4blocks_noglides/subject-11.csv","xpyriment","Jazzy James","3.1.9","yes","yes","59a800d99ad5a1025d81bb03","59a801616c613b0251691de0","no","no","0","j","f","space","NA","space","space","j","961","2829","30818","NA","27056","7662","961","2","legacy","1024","1","44100","-16","experiment","fesal","3","1","1","0","1","English, French","11","","odd","767337","736004","NA","NA","770167","767333","NA","1910","766881","1911","1910","662415","689476","863211","861707","864174","700761","697449","736003","NA","576808","637040","734320","697208","767337","697453","NA","863211","863211","711295","711292","861704","NAP perception","30","33399","34","yes","1024"
"88.5714285714","yes","88.5714285714","979.314285714","979.314285714","white","no","xpyriment","Ich habe die obigen Informationen gelesen und verstanden.","legacy","legacy","0","uniform","1","0","0","undefined","undefined","1","j","2","1","NA","0","1","0","0","0","0","0","0","0","0","44","44","44","0","0","0","NA","0","0","2","0","0","0","2","44","44","44","44","44","Thu Oct 12 23:42:33 2017","Forced-choice identification task with a practice and an experimental phase","yes","NAP_GER_AA_4blocks_noglides.osexp","/Users/aviadalbert/Documents/Academisch/UoC/Dissertation/Experiment/OpenSesame/NAP-FC/NAP_GER_AA_4blocks_noglides","yes","no","sans","no","20","no","black","no","Weiter","yes","768","legacy","34","9","0","/Users/aviadalbert/Documents/Academisch/UoC/Dissertation/Experiment/OpenSesame/NAP-FC/NAP_GER_AA_4blocks_noglides/subject-11.csv","xpyriment","Jazzy James","3.1.9","yes","yes","59a800d99ad5a1025d81bb03","59a801616c613b0251691de0","no","no","0","j","f","space","NA","space","space","j","877","2829","30818","NA","27056","7662","877","2","legacy","1024","1","44100","-16","experiment","emzal","3","1","1","0","1","English, French","11","","odd","767337","736004","NA","NA","770167","767333","NA","1910","766881","1911","1910","662415","689476","865950","864444","866828","700761","697449","736003","NA","576808","637040","734320","697208","767337","697453","NA","865950","865950","711295","711292","864440","NAP perception","31","34276","35","yes","1024"
"88.8888888889","yes","88.8888888889","979.694444444","979.694444444","white","no","xpyriment","Ich habe die obigen Informationen gelesen und verstanden.","legacy","legacy","0","uniform","1","0","0","undefined","undefined","1","f","2","1","NA","0","1","0","0","0","0","0","0","0","0","45","45","45","0","0","0","NA","0","0","2","0","0","0","2","45","45","45","45","45","Thu Oct 12 23:42:33 2017","Forced-choice identification task with a practice and an experimental phase","yes","NAP_GER_AA_4blocks_noglides.osexp","/Users/aviadalbert/Documents/Academisch/UoC/Dissertation/Experiment/OpenSesame/NAP-FC/NAP_GER_AA_4blocks_noglides","yes","no","sans","no","20","no","black","no","Weiter","yes","768","legacy","35","9","0","/Users/aviadalbert/Documents/Academisch/UoC/Dissertation/Experiment/OpenSesame/NAP-FC/NAP_GER_AA_4blocks_noglides/subject-11.csv","xpyriment","Jazzy James","3.1.9","yes","yes","59a800d99ad5a1025d81bb03","59a801616c613b0251691de0","no","no","0","f","f","space","NA","space","space","f","993","2829","30818","NA","27056","7662","993","2","legacy","1024","1","44100","-16","experiment","mzal","3","1","1","0","1","English, French","11","","odd","767337","736004","NA","NA","770167","767333","NA","1910","766881","1911","1910","662415","689476","868607","867101","869601","700761","697449","736003","NA","576808","637040","734320","697208","767337","697453","NA","868607","868607","711295","711292","867097","NAP perception","32","35269","36","yes","1024"
"89.1891891892","yes","89.1891891892","978.351351351","978.351351351","white","no","xpyriment","Ich habe die obigen Informationen gelesen und verstanden.","legacy","legacy","0","uniform","1","0","0","undefined","undefined","1","j","2","1","NA","0","1","0","0","0","0","0","0","0","0","46","46","46","0","0","0","NA","0","0","2","0","0","0","2","46","46","46","46","46","Thu Oct 12 23:42:33 2017","Forced-choice identification task with a practice and an experimental phase","yes","NAP_GER_AA_4blocks_noglides.osexp","/Users/aviadalbert/Documents/Academisch/UoC/Dissertation/Experiment/OpenSesame/NAP-FC/NAP_GER_AA_4blocks_noglides","yes","no","sans","no","20","no","black","no","Weiter","yes","768","legacy","36","9","0","/Users/aviadalbert/Documents/Academisch/UoC/Dissertation/Experiment/OpenSesame/NAP-FC/NAP_GER_AA_4blocks_noglides/subject-11.csv","xpyriment","Jazzy James","3.1.9","yes","yes","59a800d99ad5a1025d81bb03","59a801616c613b0251691de0","no","no","0","j","f","space","NA","space","space","j","930","2829","30818","NA","27056","7662","930","2","legacy","1024","1","44100","-16","experiment","emlal","3","1","1","0","1","English, French","11","","odd","767337","736004","NA","NA","770167","767333","NA","1910","766881","1911","1910","662415","689476","871377","869874","872308","700761","697449","736003","NA","576808","637040","734320","697208","767337","697453","NA","871377","871377","711295","711292","869870","NAP perception","33","36199","37","yes","1024"
"86.8421052632","yes","86.8421052632","973.973684211","973.973684211","white","no","xpyriment","Ich habe die obigen Informationen gelesen und verstanden.","legacy","legacy","0","uniform","0","0","0","undefined","undefined","0","j","2","1","NA","0","1","0","0","0","0","0","0","0","0","47","47","47","0","0","0","NA","0","0","2","0","0","0","2","47","47","47","47","47","Thu Oct 12 23:42:33 2017","Forced-choice identification task with a practice and an experimental phase","yes","NAP_GER_AA_4blocks_noglides.osexp","/Users/aviadalbert/Documents/Academisch/UoC/Dissertation/Experiment/OpenSesame/NAP-FC/NAP_GER_AA_4blocks_noglides","yes","no","sans","no","20","no","black","no","Weiter","yes","768","legacy","37","9","0","/Users/aviadalbert/Documents/Academisch/UoC/Dissertation/Experiment/OpenSesame/NAP-FC/NAP_GER_AA_4blocks_noglides/subject-11.csv","xpyriment","Jazzy James","3.1.9","yes","yes","59a800d99ad5a1025d81bb03","59a801616c613b0251691de0","no","no","0","f","f","space","NA","space","space","f","812","2829","30818","NA","27056","7662","812","2","legacy","1024","1","44100","-16","experiment","neval","3","1","1","0","1","English, French","11","","odd","767337","736004","NA","NA","770167","767333","NA","1910","766881","1911","1910","662415","689476","874091","872587","874904","700761","697449","736003","NA","576808","637040","734320","697208","767337","697453","NA","874090","874090","711295","711292","872583","NAP perception","33","37011","38","yes","1024"
"87.1794871795","yes","87.1794871795","994.641025641","994.641025641","white","no","xpyriment","Ich habe die obigen Informationen gelesen und verstanden.","legacy","legacy","0","uniform","1","0","0","undefined","undefined","1","j","2","1","NA","0","1","0","0","0","0","0","0","0","0","48","48","48","0","0","0","NA","0","0","2","0","0","0","2","48","48","48","48","48","Thu Oct 12 23:42:33 2017","Forced-choice identification task with a practice and an experimental phase","yes","NAP_GER_AA_4blocks_noglides.osexp","/Users/aviadalbert/Documents/Academisch/UoC/Dissertation/Experiment/OpenSesame/NAP-FC/NAP_GER_AA_4blocks_noglides","yes","no","sans","no","20","no","black","no","Weiter","yes","768","legacy","38","9","0","/Users/aviadalbert/Documents/Academisch/UoC/Dissertation/Experiment/OpenSesame/NAP-FC/NAP_GER_AA_4blocks_noglides/subject-11.csv","xpyriment","Jazzy James","3.1.9","yes","yes","59a800d99ad5a1025d81bb03","59a801616c613b0251691de0","no","no","0","j","f","space","NA","space","space","j","1780","2829","30818","NA","27056","7662","1780","2","legacy","1024","1","44100","-16","experiment","espal","3","1","1","0","1","English, French","11","","odd","767337","736004","NA","NA","770167","767333","NA","1910","766881","1911","1910","662415","689476","876687","875184","878468","700761","697449","736003","NA","576808","637040","734320","697208","767337","697453","NA","876687","876687","711295","711292","875180","NAP perception","34","38791","39","yes","1024"
"87.5","yes","87.5","988","988","white","no","xpyriment","Ich habe die obigen Informationen gelesen und verstanden.","legacy","legacy","0","uniform","1","0","0","undefined","undefined","1","f","2","1","NA","0","1","0","0","0","0","0","0","0","0","49","49","49","0","0","0","NA","0","0","2","0","0","0","2","49","49","49","49","49","Thu Oct 12 23:42:33 2017","Forced-choice identification task with a practice and an experimental phase","yes","NAP_GER_AA_4blocks_noglides.osexp","/Users/aviadalbert/Documents/Academisch/UoC/Dissertation/Experiment/OpenSesame/NAP-FC/NAP_GER_AA_4blocks_noglides","yes","no","sans","no","20","no","black","no","Weiter","yes","768","legacy","39","9","0","/Users/aviadalbert/Documents/Academisch/UoC/Dissertation/Experiment/OpenSesame/NAP-FC/NAP_GER_AA_4blocks_noglides/subject-11.csv","xpyriment","Jazzy James","3.1.9","yes","yes","59a800d99ad5a1025d81bb03","59a801616c613b0251691de0","no","no","0","f","f","space","NA","space","space","f","729","2829","30818","NA","27056","7662","729","2","legacy","1024","1","44100","-16","experiment","vzal","3","1","1","0","1","English, French","11","","odd","767337","736004","NA","NA","770167","767333","NA","1910","766881","1911","1910","662415","689476","880247","878743","880977","700761","697449","736003","NA","576808","637040","734320","697208","767337","697453","NA","880246","880247","711295","711292","878739","NAP perception","35","39520","40","yes","1024"
"87.8048780488","yes","87.8048780488","989.170731707","989.170731707","white","no","xpyriment","Ich habe die obigen Informationen gelesen und verstanden.","legacy","legacy","0","uniform","1","0","0","undefined","undefined","1","j","2","1","NA","0","1","0","0","0","0","0","0","0","0","50","50","50","0","0","0","NA","0","0","2","0","0","0","2","50","50","50","50","50","Thu Oct 12 23:42:33 2017","Forced-choice identification task with a practice and an experimental phase","yes","NAP_GER_AA_4blocks_noglides.osexp","/Users/aviadalbert/Documents/Academisch/UoC/Dissertation/Experiment/OpenSesame/NAP-FC/NAP_GER_AA_4blocks_noglides","yes","no","sans","no","20","no","black","no","Weiter","yes","768","legacy","40","9","0","/Users/aviadalbert/Documents/Academisch/UoC/Dissertation/Experiment/OpenSesame/NAP-FC/NAP_GER_AA_4blocks_noglides/subject-11.csv","xpyriment","Jazzy James","3.1.9","yes","yes","59a800d99ad5a1025d81bb03","59a801616c613b0251691de0","no","no","0","j","f","space","NA","space","space","j","1036","2829","30818","NA","27056","7662","1036","2","legacy","1024","1","44100","-16","experiment","enpal","3","1","1","0","1","English, French","11","","odd","767337","736004","NA","NA","770167","767333","NA","1910","766881","1911","1910","662415","689476","882771","881265","883808","700761","697449","736003","NA","576808","637040","734320","697208","767337","697453","NA","882771","882771","711295","711292","881261","NAP perception","36","40556","41","yes","1024"
"88.0952380952","yes","88.0952380952","982.380952381","982.380952381","white","no","xpyriment","Ich habe die obigen Informationen gelesen und verstanden.","legacy","legacy","0","uniform","1","0","0","undefined","undefined","1","j","2","1","NA","0","1","0","0","0","0","0","0","0","0","51","51","51","0","0","0","NA","0","0","2","0","0","0","2","51","51","51","51","51","Thu Oct 12 23:42:33 2017","Forced-choice identification task with a practice and an experimental phase","yes","NAP_GER_AA_4blocks_noglides.osexp","/Users/aviadalbert/Documents/Academisch/UoC/Dissertation/Experiment/OpenSesame/NAP-FC/NAP_GER_AA_4blocks_noglides","yes","no","sans","no","20","no","black","no","Weiter","yes","768","legacy","41","9","0","/Users/aviadalbert/Documents/Academisch/UoC/Dissertation/Experiment/OpenSesame/NAP-FC/NAP_GER_AA_4blocks_noglides/subject-11.csv","xpyriment","Jazzy James","3.1.9","yes","yes","59a800d99ad5a1025d81bb03","59a801616c613b0251691de0","no","no","0","j","f","space","NA","space","space","j","704","2829","30818","NA","27056","7662","704","2","legacy","1024","1","44100","-16","experiment","enval","3","1","1","0","1","English, French","11","","odd","767337","736004","NA","NA","770167","767333","NA","1910","766881","1911","1910","662415","689476","885581","884077","886287","700761","697449","736003","NA","576808","637040","734320","697208","767337","697453","NA","885581","885581","711295","711292","884073","NAP perception","37","41260","42","yes","1024"
"86.0465116279","yes","86.0465116279","1000.27906977","1000.27906977","white","no","xpyriment","Ich habe die obigen Informationen gelesen und verstanden.","legacy","legacy","0","uniform","0","0","0","undefined","undefined","0","f","2","1","NA","0","1","0","0","0","0","0","0","0","0","52","52","52","0","0","0","NA","0","0","2","0","0","0","2","52","52","52","52","52","Thu Oct 12 23:42:33 2017","Forced-choice identification task with a practice and an experimental phase","yes","NAP_GER_AA_4blocks_noglides.osexp","/Users/aviadalbert/Documents/Academisch/UoC/Dissertation/Experiment/OpenSesame/NAP-FC/NAP_GER_AA_4blocks_noglides","yes","no","sans","no","20","no","black","no","Weiter","yes","768","legacy","42","9","0","/Users/aviadalbert/Documents/Academisch/UoC/Dissertation/Experiment/OpenSesame/NAP-FC/NAP_GER_AA_4blocks_noglides/subject-11.csv","xpyriment","Jazzy James","3.1.9","yes","yes","59a800d99ad5a1025d81bb03","59a801616c613b0251691de0","no","no","0","j","f","space","NA","space","space","j","1752","2829","30818","NA","27056","7662","1752","2","legacy","1024","1","44100","-16","experiment","lmal","3","1","1","0","1","English, French","11","","odd","767337","736004","NA","NA","770167","767333","NA","1910","766881","1911","1910","662415","689476","888082","886579","889836","700761","697449","736003","NA","576808","637040","734320","697208","767337","697453","NA","888082","888082","711295","711292","886575","NAP perception","37","43012","43","yes","1024"
"86.3636363636","yes","86.3636363636","997.159090909","997.159090909","white","no","xpyriment","Ich habe die obigen Informationen gelesen und verstanden.","legacy","legacy","0","uniform","1","0","0","undefined","undefined","1","j","2","1","NA","0","1","0","0","0","0","0","0","0","0","53","53","53","0","0","0","NA","0","0","2","0","0","0","2","53","53","53","53","53","Thu Oct 12 23:42:33 2017","Forced-choice identification task with a practice and an experimental phase","yes","NAP_GER_AA_4blocks_noglides.osexp","/Users/aviadalbert/Documents/Academisch/UoC/Dissertation/Experiment/OpenSesame/NAP-FC/NAP_GER_AA_4blocks_noglides","yes","no","sans","no","20","no","black","no","Weiter","yes","768","legacy","43","9","0","/Users/aviadalbert/Documents/Academisch/UoC/Dissertation/Experiment/OpenSesame/NAP-FC/NAP_GER_AA_4blocks_noglides/subject-11.csv","xpyriment","Jazzy James","3.1.9","yes","yes","59a800d99ad5a1025d81bb03","59a801616c613b0251691de0","no","no","0","j","f","space","NA","space","space","j","863","2829","30818","NA","27056","7662","863","2","legacy","1024","1","44100","-16","experiment","esmal","3","1","1","0","1","English, French","11","","odd","767337","736004","NA","NA","770167","767333","NA","1910","766881","1911","1910","662415","689476","891607","890103","892473","700761","697449","736003","NA","576808","637040","734320","697208","767337","697453","NA","891607","891607","711295","711292","890099","NAP perception","38","43875","44","yes","1024"
"86.6666666667","yes","86.6666666667","992.244444444","992.244444444","white","no","xpyriment","Ich habe die obigen Informationen gelesen und verstanden.","legacy","legacy","0","uniform","1","0","0","undefined","undefined","1","j","2","1","NA","0","1","0","0","0","0","0","0","0","0","54","54","54","0","0","0","NA","0","0","2","0","0","0","2","54","54","54","54","54","Thu Oct 12 23:42:33 2017","Forced-choice identification task with a practice and an experimental phase","yes","NAP_GER_AA_4blocks_noglides.osexp","/Users/aviadalbert/Documents/Academisch/UoC/Dissertation/Experiment/OpenSesame/NAP-FC/NAP_GER_AA_4blocks_noglides","yes","no","sans","no","20","no","black","no","Weiter","yes","768","legacy","44","9","0","/Users/aviadalbert/Documents/Academisch/UoC/Dissertation/Experiment/OpenSesame/NAP-FC/NAP_GER_AA_4blocks_noglides/subject-11.csv","xpyriment","Jazzy James","3.1.9","yes","yes","59a800d99ad5a1025d81bb03","59a801616c613b0251691de0","no","no","0","j","f","space","NA","space","space","j","776","2829","30818","NA","27056","7662","776","2","legacy","1024","1","44100","-16","experiment","eʃmal","3","1","1","0","1","English, French","11","","odd","767337","736004","NA","NA","770167","767333","NA","1910","766881","1911","1910","662415","689476","894248","892742","895026","700761","697449","736003","NA","576808","637040","734320","697208","767337","697453","NA","894248","894248","711295","711292","892738","NAP perception","39","44651","45","yes","1024"
"86.9565217391","yes","86.9565217391","1006.23913043","1006.23913043","white","no","xpyriment","Ich habe die obigen Informationen gelesen und verstanden.","legacy","legacy","0","uniform","1","0","0","undefined","undefined","1","j","2","1","NA","0","1","0","0","0","0","0","0","0","0","55","55","55","0","0","0","NA","0","0","2","0","0","0","2","55","55","55","55","55","Thu Oct 12 23:42:33 2017","Forced-choice identification task with a practice and an experimental phase","yes","NAP_GER_AA_4blocks_noglides.osexp","/Users/aviadalbert/Documents/Academisch/UoC/Dissertation/Experiment/OpenSesame/NAP-FC/NAP_GER_AA_4blocks_noglides","yes","no","sans","no","20","no","black","no","Weiter","yes","768","legacy","45","9","0","/Users/aviadalbert/Documents/Academisch/UoC/Dissertation/Experiment/OpenSesame/NAP-FC/NAP_GER_AA_4blocks_noglides/subject-11.csv","xpyriment","Jazzy James","3.1.9","yes","yes","59a800d99ad5a1025d81bb03","59a801616c613b0251691de0","no","no","0","j","f","space","NA","space","space","j","1636","2829","30818","NA","27056","7662","1636","2","legacy","1024","1","44100","-16","experiment","lefal","3","1","1","0","1","English, French","11","","odd","767337","736004","NA","NA","770167","767333","NA","1910","766881","1911","1910","662415","689476","896808","895301","898446","700761","697449","736003","NA","576808","637040","734320","697208","767337","697453","NA","896807","896807","711295","711292","895297","NAP perception","40","46287","46","yes","1024"
"87.2340425532","yes","87.2340425532","1006.23404255","1006.23404255","white","no","xpyriment","Ich habe die obigen Informationen gelesen und verstanden.","legacy","legacy","0","uniform","1","0","0","undefined","undefined","1","f","2","1","NA","0","1","0","0","0","0","0","0","0","0","56","56","56","0","0","0","NA","0","0","2","0","0","0","2","56","56","56","56","56","Thu Oct 12 23:42:33 2017","Forced-choice identification task with a practice and an experimental phase","yes","NAP_GER_AA_4blocks_noglides.osexp","/Users/aviadalbert/Documents/Academisch/UoC/Dissertation/Experiment/OpenSesame/NAP-FC/NAP_GER_AA_4blocks_noglides","yes","no","sans","no","20","no","black","no","Weiter","yes","768","legacy","46","9","0","/Users/aviadalbert/Documents/Academisch/UoC/Dissertation/Experiment/OpenSesame/NAP-FC/NAP_GER_AA_4blocks_noglides/subject-11.csv","xpyriment","Jazzy James","3.1.9","yes","yes","59a800d99ad5a1025d81bb03","59a801616c613b0251691de0","no","no","0","f","f","space","NA","space","space","f","1006","2829","30818","NA","27056","7662","1006","2","legacy","1024","1","44100","-16","experiment","vlal","3","1","1","0","1","English, French","11","","odd","767337","736004","NA","NA","770167","767333","NA","1910","766881","1911","1910","662415","689476","900222","898719","901230","700761","697449","736003","NA","576808","637040","734320","697208","767337","697453","NA","900222","900222","711295","711292","898715","NAP perception","41","47293","47","yes","1024"
"85.4166666667","yes","85.4166666667","1041.60416667","1041.60416667","white","no","xpyriment","Ich habe die obigen Informationen gelesen und verstanden.","legacy","legacy","0","uniform","0","0","0","undefined","undefined","0","f","2","1","NA","0","1","0","0","0","0","0","0","0","0","57","57","57","0","0","0","NA","0","0","2","0","0","0","2","57","57","57","57","57","Thu Oct 12 23:42:33 2017","Forced-choice identification task with a practice and an experimental phase","yes","NAP_GER_AA_4blocks_noglides.osexp","/Users/aviadalbert/Documents/Academisch/UoC/Dissertation/Experiment/OpenSesame/NAP-FC/NAP_GER_AA_4blocks_noglides","yes","no","sans","no","20","no","black","no","Weiter","yes","768","legacy","47","9","0","/Users/aviadalbert/Documents/Academisch/UoC/Dissertation/Experiment/OpenSesame/NAP-FC/NAP_GER_AA_4blocks_noglides/subject-11.csv","xpyriment","Jazzy James","3.1.9","yes","yes","59a800d99ad5a1025d81bb03","59a801616c613b0251691de0","no","no","0","j","f","space","NA","space","space","j","2704","2829","30818","NA","27056","7662","2704","2","legacy","1024","1","44100","-16","experiment","lpal","3","1","1","0","1","English, French","11","","odd","767337","736004","NA","NA","770167","767333","NA","1910","766881","1911","1910","662415","689476","903009","901503","905715","700761","697449","736003","NA","576808","637040","734320","697208","767337","697453","NA","903009","903009","711295","711292","901499","NAP perception","41","49997","48","yes","1024"
"85.7142857143","yes","85.7142857143","1052.89795918","1052.89795918","white","no","xpyriment","Ich habe die obigen Informationen gelesen und verstanden.","legacy","legacy","0","uniform","1","0","0","undefined","undefined","1","j","2","1","NA","0","1","0","0","0","0","0","0","0","0","58","58","58","0","0","0","NA","0","0","2","0","0","0","2","58","58","58","58","58","Thu Oct 12 23:42:33 2017","Forced-choice identification task with a practice and an experimental phase","yes","NAP_GER_AA_4blocks_noglides.osexp","/Users/aviadalbert/Documents/Academisch/UoC/Dissertation/Experiment/OpenSesame/NAP-FC/NAP_GER_AA_4blocks_noglides","yes","no","sans","no","20","no","black","no","Weiter","yes","768","legacy","48","9","0","/Users/aviadalbert/Documents/Academisch/UoC/Dissertation/Experiment/OpenSesame/NAP-FC/NAP_GER_AA_4blocks_noglides/subject-11.csv","xpyriment","Jazzy James","3.1.9","yes","yes","59a800d99ad5a1025d81bb03","59a801616c613b0251691de0","no","no","0","j","f","space","NA","space","space","j","1595","2829","30818","NA","27056","7662","1595","2","legacy","1024","1","44100","-16","experiment","mezal","3","1","1","0","1","English, French","11","","odd","767337","736004","NA","NA","770167","767333","NA","1910","766881","1911","1910","662415","689476","907500","905997","909097","700761","697449","736003","NA","576808","637040","734320","697208","767337","697453","NA","907500","907500","711295","711292","905993","NAP perception","42","51592","49","yes","1024"
"84","yes","84","1056.94","1056.94","white","no","xpyriment","Ich habe die obigen Informationen gelesen und verstanden.","legacy","legacy","0","uniform","0","0","0","undefined","undefined","0","j","2","1","NA","0","1","0","0","0","0","0","0","0","0","59","59","59","0","0","0","NA","0","0","2","0","0","0","2","59","59","59","59","59","Thu Oct 12 23:42:33 2017","Forced-choice identification task with a practice and an experimental phase","yes","NAP_GER_AA_4blocks_noglides.osexp","/Users/aviadalbert/Documents/Academisch/UoC/Dissertation/Experiment/OpenSesame/NAP-FC/NAP_GER_AA_4blocks_noglides","yes","no","sans","no","20","no","black","no","Weiter","yes","768","legacy","49","9","0","/Users/aviadalbert/Documents/Academisch/UoC/Dissertation/Experiment/OpenSesame/NAP-FC/NAP_GER_AA_4blocks_noglides/subject-11.csv","xpyriment","Jazzy James","3.1.9","yes","yes","59a800d99ad5a1025d81bb03","59a801616c613b0251691de0","no","no","0","f","f","space","NA","space","space","f","1255","2829","30818","NA","27056","7662","1255","2","legacy","1024","1","44100","-16","experiment","ezmal","3","1","1","0","1","English, French","11","","odd","767337","736004","NA","NA","770167","767333","NA","1910","766881","1911","1910","662415","689476","910886","909380","912143","700761","697449","736003","NA","576808","637040","734320","697208","767337","697453","NA","910886","910886","711295","711292","909376","NAP perception","42","52847","50","yes","1024"
"84.3137254902","yes","84.3137254902","1051.8627451","1051.8627451","white","no","xpyriment","Ich habe die obigen Informationen gelesen und verstanden.","legacy","legacy","0","uniform","1","0","0","undefined","undefined","1","j","2","1","NA","0","1","0","0","0","0","0","0","0","0","60","60","60","0","0","0","NA","0","0","2","0","0","0","2","60","60","60","60","60","Thu Oct 12 23:42:33 2017","Forced-choice identification task with a practice and an experimental phase","yes","NAP_GER_AA_4blocks_noglides.osexp","/Users/aviadalbert/Documents/Academisch/UoC/Dissertation/Experiment/OpenSesame/NAP-FC/NAP_GER_AA_4blocks_noglides","yes","no","sans","no","20","no","black","no","Weiter","yes","768","legacy","50","9","0","/Users/aviadalbert/Documents/Academisch/UoC/Dissertation/Experiment/OpenSesame/NAP-FC/NAP_GER_AA_4blocks_noglides/subject-11.csv","xpyriment","Jazzy James","3.1.9","yes","yes","59a800d99ad5a1025d81bb03","59a801616c613b0251691de0","no","no","0","j","f","space","NA","space","space","j","798","2829","30818","NA","27056","7662","798","2","legacy","1024","1","44100","-16","experiment","elfal","3","1","1","0","1","English, French","11","","odd","767337","736004","NA","NA","770167","767333","NA","1910","766881","1911","1910","662415","689476","913924","912419","914724","700761","697449","736003","NA","576808","637040","734320","697208","767337","697453","NA","913923","913923","711295","711292","912415","NAP perception","43","53645","51","yes","1024"
"84.6153846154","yes","84.6153846154","1047.73076923","1047.73076923","white","no","xpyriment","Ich habe die obigen Informationen gelesen und verstanden.","legacy","legacy","0","uniform","1","0","0","undefined","undefined","1","f","2","1","NA","0","1","0","0","0","0","0","0","0","0","61","61","61","0","0","0","NA","0","0","2","0","0","0","2","61","61","61","61","61","Thu Oct 12 23:42:33 2017","Forced-choice identification task with a practice and an experimental phase","yes","NAP_GER_AA_4blocks_noglides.osexp","/Users/aviadalbert/Documents/Academisch/UoC/Dissertation/Experiment/OpenSesame/NAP-FC/NAP_GER_AA_4blocks_noglides","yes","no","sans","no","20","no","black","no","Weiter","yes","768","legacy","51","9","0","/Users/aviadalbert/Documents/Academisch/UoC/Dissertation/Experiment/OpenSesame/NAP-FC/NAP_GER_AA_4blocks_noglides/subject-11.csv","xpyriment","Jazzy James","3.1.9","yes","yes","59a800d99ad5a1025d81bb03","59a801616c613b0251691de0","no","no","0","f","f","space","NA","space","space","f","837","2829","30818","NA","27056","7662","837","2","legacy","1024","1","44100","-16","experiment","fsal","3","1","1","0","1","English, French","11","","odd","767337","736004","NA","NA","770167","767333","NA","1910","766881","1911","1910","662415","689476","916523","915020","917361","700761","697449","736003","NA","576808","637040","734320","697208","767337","697453","NA","916523","916523","711295","711292","915016","NAP perception","44","54482","52","yes","1024"
"84.9056603774","yes","84.9056603774","1040.81132075","1040.81132075","white","no","xpyriment","Ich habe die obigen Informationen gelesen und verstanden.","legacy","legacy","0","uniform","1","0","0","undefined","undefined","1","f","2","1","NA","0","1","0","0","0","0","0","0","0","0","62","62","62","0","0","0","NA","0","0","2","0","0","0","2","62","62","62","62","62","Thu Oct 12 23:42:33 2017","Forced-choice identification task with a practice and an experimental phase","yes","NAP_GER_AA_4blocks_noglides.osexp","/Users/aviadalbert/Documents/Academisch/UoC/Dissertation/Experiment/OpenSesame/NAP-FC/NAP_GER_AA_4blocks_noglides","yes","no","sans","no","20","no","black","no","Weiter","yes","768","legacy","52","9","0","/Users/aviadalbert/Documents/Academisch/UoC/Dissertation/Experiment/OpenSesame/NAP-FC/NAP_GER_AA_4blocks_noglides/subject-11.csv","xpyriment","Jazzy James","3.1.9","yes","yes","59a800d99ad5a1025d81bb03","59a801616c613b0251691de0","no","no","0","f","f","space","NA","space","space","f","681","2829","30818","NA","27056","7662","681","2","legacy","1024","1","44100","-16","experiment","ʃpal","3","1","1","0","1","English, French","11","","odd","767337","736004","NA","NA","770167","767333","NA","1910","766881","1911","1910","662415","689476","919135","917628","919817","700761","697449","736003","NA","576808","637040","734320","697208","767337","697453","NA","919134","919134","711295","711292","917624","NAP perception","45","55163","53","yes","1024"
"85.1851851852","yes","85.1851851852","1033.07407407","1033.07407407","white","no","xpyriment","Ich habe die obigen Informationen gelesen und verstanden.","legacy","legacy","0","uniform","1","0","0","undefined","undefined","1","f","2","1","NA","0","1","0","0","0","0","0","0","0","0","63","63","63","0","0","0","NA","0","0","2","0","0","0","2","63","63","63","63","63","Thu Oct 12 23:42:33 2017","Forced-choice identification task with a practice and an experimental phase","yes","NAP_GER_AA_4blocks_noglides.osexp","/Users/aviadalbert/Documents/Academisch/UoC/Dissertation/Experiment/OpenSesame/NAP-FC/NAP_GER_AA_4blocks_noglides","yes","no","sans","no","20","no","black","no","Weiter","yes","768","legacy","53","9","0","/Users/aviadalbert/Documents/Academisch/UoC/Dissertation/Experiment/OpenSesame/NAP-FC/NAP_GER_AA_4blocks_noglides/subject-11.csv","xpyriment","Jazzy James","3.1.9","yes","yes","59a800d99ad5a1025d81bb03","59a801616c613b0251691de0","no","no","0","f","f","space","NA","space","space","f","623","2829","30818","NA","27056","7662","623","2","legacy","1024","1","44100","-16","experiment","spal","3","1","1","0","1","English, French","11","","odd","767337","736004","NA","NA","770167","767333","NA","1910","766881","1911","1910","662415","689476","921602","920099","922226","700761","697449","736003","NA","576808","637040","734320","697208","767337","697453","NA","921602","921602","711295","711292","920095","NAP perception","46","55786","54","yes","1024"
"85.4545454545","yes","85.4545454545","1037.63636364","1037.63636364","white","no","xpyriment","Ich habe die obigen Informationen gelesen und verstanden.","legacy","legacy","0","uniform","1","0","0","undefined","undefined","1","j","2","1","NA","0","1","0","0","0","0","0","0","0","0","64","64","64","0","0","0","NA","0","0","2","0","0","0","2","64","64","64","64","64","Thu Oct 12 23:42:33 2017","Forced-choice identification task with a practice and an experimental phase","yes","NAP_GER_AA_4blocks_noglides.osexp","/Users/aviadalbert/Documents/Academisch/UoC/Dissertation/Experiment/OpenSesame/NAP-FC/NAP_GER_AA_4blocks_noglides","yes","no","sans","no","20","no","black","no","Weiter","yes","768","legacy","54","9","0","/Users/aviadalbert/Documents/Academisch/UoC/Dissertation/Experiment/OpenSesame/NAP-FC/NAP_GER_AA_4blocks_noglides/subject-11.csv","xpyriment","Jazzy James","3.1.9","yes","yes","59a800d99ad5a1025d81bb03","59a801616c613b0251691de0","no","no","0","j","f","space","NA","space","space","j","1284","2829","30818","NA","27056","7662","1284","2","legacy","1024","1","44100","-16","experiment","sefal","3","1","1","0","1","English, French","11","","odd","767337","736004","NA","NA","770167","767333","NA","1910","766881","1911","1910","662415","689476","924017","922514","925302","700761","697449","736003","NA","576808","637040","734320","697208","767337","697453","NA","924017","924017","711295","711292","922510","NAP perception","47","57070","55","yes","1024"
"85.7142857143","yes","85.7142857143","1033.05357143","1033.05357143","white","no","xpyriment","Ich habe die obigen Informationen gelesen und verstanden.","legacy","legacy","0","uniform","1","0","0","undefined","undefined","1","j","2","1","NA","0","1","0","0","0","0","0","0","0","0","65","65","65","0","0","0","NA","0","0","2","0","0","0","2","65","65","65","65","65","Thu Oct 12 23:42:33 2017","Forced-choice identification task with a practice and an experimental phase","yes","NAP_GER_AA_4blocks_noglides.osexp","/Users/aviadalbert/Documents/Academisch/UoC/Dissertation/Experiment/OpenSesame/NAP-FC/NAP_GER_AA_4blocks_noglides","yes","no","sans","no","20","no","black","no","Weiter","yes","768","legacy","55","9","0","/Users/aviadalbert/Documents/Academisch/UoC/Dissertation/Experiment/OpenSesame/NAP-FC/NAP_GER_AA_4blocks_noglides/subject-11.csv","xpyriment","Jazzy James","3.1.9","yes","yes","59a800d99ad5a1025d81bb03","59a801616c613b0251691de0","no","no","0","j","f","space","NA","space","space","j","781","2829","30818","NA","27056","7662","781","2","legacy","1024","1","44100","-16","experiment","lemal","3","1","1","0","1","English, French","11","","odd","767337","736004","NA","NA","770167","767333","NA","1910","766881","1911","1910","662415","689476","927094","925591","927876","700761","697449","736003","NA","576808","637040","734320","697208","767337","697453","NA","927094","927094","711295","711292","925587","NAP perception","48","57851","56","yes","1024"
