"acc","accept_status","accuracy","average_response_time","avg_rt","background","bidi","canvas_backend","checkbox_status","clock_backend","color_backend","compensation","coordinates","correct","correct_block_activation","correct_block_exit","correct_instructions_1","correct_instructions_2","correct_keyboard_response","correct_response","count_block_activation","count_block_exit","count_block_info_QA","count_cont_e_block_message","count_e_block_loop","count_e_block_sequence","count_end_of_experiment","count_experiment","count_experimental_loop","count_form_consent","count_info_forms","count_instructions_1","count_instructions_2","count_keyboard_response","count_listen_message","count_logger","count_p_block_loop","count_p_block_sequence","count_p_feedback","count_pause_feedback","count_personal_details_form_1","count_personal_details_form_2","count_post_loop_blank","count_practice_loop","count_pre_e_block_message","count_pre_p_block_message","count_reset_feedback","count_stimulus_image","count_stimulus_sound","count_timeout_message","count_timeout_sound","count_trial_sequence","datetime","description","disable_garbage_collection","experiment_file","experiment_path","expyriment_opengl","font_bold","font_family","font_italic","font_size","font_underline","foreground","form_clicks","form_response","fullscreen","height","keyboard_backend","live_row","live_row_p_block_loop","live_row_practice_loop","logfile","mouse_backend","opensesame_codename","opensesame_version","osf_always_upload_data","osf_always_upload_experiment","osf_datanode_id","osf_id","practice","pygame_doublebuf","repeat_cycle","response","response_block_activation","response_block_exit","response_block_info_QA","response_instructions_1","response_instructions_2","response_keyboard_response","response_time","response_time_block_activation","response_time_block_exit","response_time_block_info_QA","response_time_instructions_1","response_time_instructions_2","response_time_keyboard_response","round_decimals","sampler_backend","sound_buf_size","sound_channels","sound_freq","sound_sample_size","start","stimulus","subject_age","subject_education","subject_gender","subject_german_native","subject_handedness","subject_language_other","subject_nr","subject_other_native_lang","subject_parity","time_block_activation","time_block_exit","time_block_info_QA","time_cont_e_block_message","time_e_block_loop","time_e_block_sequence","time_end_of_experiment","time_experiment","time_experimental_loop","time_form_consent","time_info_forms","time_instructions_1","time_instructions_2","time_keyboard_response","time_listen_message","time_logger","time_p_block_loop","time_p_block_sequence","time_p_feedback","time_pause_feedback","time_personal_details_form_1","time_personal_details_form_2","time_post_loop_blank","time_practice_loop","time_pre_e_block_message","time_pre_p_block_message","time_reset_feedback","time_stimulus_image","time_stimulus_sound","time_timeout_message","time_timeout_sound","time_trial_sequence","title","total_correct","total_response_time","total_responses","uniform_coordinates","width"
"100","yes","100","1237","1237","white","no","xpyriment","Ich habe die obigen Informationen gelesen und verstanden.","legacy","legacy","0","uniform","1","0","NA","undefined","undefined","1","f","0","0","NA","NA","NA","NA","NA","0","0","0","0","0","0","0","0","0","0","0","NA","NA","0","0","0","0","NA","0","0","0","0","0","0","0","Sat Nov 11 21:59:16 2017","Forced-choice identification task with a practice and an experimental phase","yes","NAP_GER_AA_4blocks_noglides.osexp","/Users/aviadalbert/Documents/Academisch/UoC/Dissertation/Experiment/OpenSesame/NAP-FC/NAP_GER_AA_4blocks_noglides","yes","no","sans","no","20","no","black","no","Weiter","yes","768","legacy","0","0","0","/Users/aviadalbert/Documents/Academisch/UoC/Dissertation/Experiment/OpenSesame/NAP-FC/NAP_GER_AA_4blocks_noglides/subject-51.csv","xpyriment","Jazzy James","3.1.9","yes","yes","59a800d99ad5a1025d81bb03","59a801616c613b0251691de0","yes","no","0","f","f","NA","NA","space","space","f","1237","3669","NA","NA","32815","7464","1237","2","legacy","1024","1","44100","-16","experiment","flal","3","0","0","0","1","Englisch","51","","odd","9665990","NA","NA","NA","NA","NA","NA","9531773","NA","9531774","9531773","9625411","9658231","9671366","9669862","9672604","9669660","9665986","NA","NA","9558095","9614008","NA","9665765","NA","9665989","NA","9671365","9671365","NA","NA","9669858","NAP perception","1","1237","1","yes","1024"
"100","yes","100","1210.5","1210.5","white","no","xpyriment","Ich habe die obigen Informationen gelesen und verstanden.","legacy","legacy","0","uniform","1","0","NA","undefined","undefined","1","j","0","0","NA","NA","NA","NA","NA","0","0","0","0","0","0","1","1","1","0","0","NA","NA","0","0","0","0","NA","0","0","1","1","1","1","1","Sat Nov 11 21:59:16 2017","Forced-choice identification task with a practice and an experimental phase","yes","NAP_GER_AA_4blocks_noglides.osexp","/Users/aviadalbert/Documents/Academisch/UoC/Dissertation/Experiment/OpenSesame/NAP-FC/NAP_GER_AA_4blocks_noglides","yes","no","sans","no","20","no","black","no","Weiter","yes","768","legacy","1","1","0","/Users/aviadalbert/Documents/Academisch/UoC/Dissertation/Experiment/OpenSesame/NAP-FC/NAP_GER_AA_4blocks_noglides/subject-51.csv","xpyriment","Jazzy James","3.1.9","yes","yes","59a800d99ad5a1025d81bb03","59a801616c613b0251691de0","yes","no","0","j","f","NA","NA","space","space","j","1184","3669","NA","NA","32815","7464","1184","2","legacy","1024","1","44100","-16","experiment","lepal","3","0","0","0","1","Englisch","51","","odd","9665990","NA","NA","NA","NA","NA","NA","9531773","NA","9531774","9531773","9625411","9658231","9674384","9672878","9675569","9669660","9665986","NA","NA","9558095","9614008","NA","9665765","NA","9665989","NA","9674383","9674384","NA","NA","9672873","NAP perception","2","2421","2","yes","1024"
"100","yes","100","1464","1464","white","no","xpyriment","Ich habe die obigen Informationen gelesen und verstanden.","legacy","legacy","0","uniform","1","0","NA","undefined","undefined","1","j","0","0","NA","NA","NA","NA","NA","0","0","0","0","0","0","2","2","2","0","0","NA","NA","0","0","0","0","NA","0","0","2","2","2","2","2","Sat Nov 11 21:59:16 2017","Forced-choice identification task with a practice and an experimental phase","yes","NAP_GER_AA_4blocks_noglides.osexp","/Users/aviadalbert/Documents/Academisch/UoC/Dissertation/Experiment/OpenSesame/NAP-FC/NAP_GER_AA_4blocks_noglides","yes","no","sans","no","20","no","black","no","Weiter","yes","768","legacy","2","2","0","/Users/aviadalbert/Documents/Academisch/UoC/Dissertation/Experiment/OpenSesame/NAP-FC/NAP_GER_AA_4blocks_noglides/subject-51.csv","xpyriment","Jazzy James","3.1.9","yes","yes","59a800d99ad5a1025d81bb03","59a801616c613b0251691de0","yes","no","0","j","f","NA","NA","space","space","j","1971","3669","NA","NA","32815","7464","1971","2","legacy","1024","1","44100","-16","experiment","emtal","3","0","0","0","1","Englisch","51","","odd","9665990","NA","NA","NA","NA","NA","NA","9531773","NA","9531774","9531773","9625411","9658231","9677349","9675843","9679321","9669660","9665986","NA","NA","9558095","9614008","NA","9665765","NA","9665989","NA","9677349","9677349","NA","NA","9675839","NAP perception","3","4392","3","yes","1024"
"100","yes","100","1361.25","1361.25","white","no","xpyriment","Ich habe die obigen Informationen gelesen und verstanden.","legacy","legacy","0","uniform","1","0","NA","undefined","undefined","1","f","0","0","NA","NA","NA","NA","NA","0","0","0","0","0","0","3","3","3","0","0","NA","NA","0","0","0","0","NA","0","0","3","3","3","3","3","Sat Nov 11 21:59:16 2017","Forced-choice identification task with a practice and an experimental phase","yes","NAP_GER_AA_4blocks_noglides.osexp","/Users/aviadalbert/Documents/Academisch/UoC/Dissertation/Experiment/OpenSesame/NAP-FC/NAP_GER_AA_4blocks_noglides","yes","no","sans","no","20","no","black","no","Weiter","yes","768","legacy","3","3","0","/Users/aviadalbert/Documents/Academisch/UoC/Dissertation/Experiment/OpenSesame/NAP-FC/NAP_GER_AA_4blocks_noglides/subject-51.csv","xpyriment","Jazzy James","3.1.9","yes","yes","59a800d99ad5a1025d81bb03","59a801616c613b0251691de0","yes","no","0","f","f","NA","NA","space","space","f","1053","3669","NA","NA","32815","7464","1053","2","legacy","1024","1","44100","-16","experiment","ʃpal","3","0","0","0","1","Englisch","51","","odd","9665990","NA","NA","NA","NA","NA","NA","9531773","NA","9531774","9531773","9625411","9658231","9681106","9679601","9682160","9669660","9665986","NA","NA","9558095","9614008","NA","9665765","NA","9665989","NA","9681105","9681105","NA","NA","9679597","NAP perception","4","5445","4","yes","1024"
"100","yes","100","1372.2","1372.2","white","no","xpyriment","Ich habe die obigen Informationen gelesen und verstanden.","legacy","legacy","0","uniform","1","0","NA","undefined","undefined","1","j","0","0","NA","NA","NA","NA","NA","0","0","0","0","0","0","4","4","4","0","0","NA","NA","0","0","0","0","NA","0","0","4","4","4","4","4","Sat Nov 11 21:59:16 2017","Forced-choice identification task with a practice and an experimental phase","yes","NAP_GER_AA_4blocks_noglides.osexp","/Users/aviadalbert/Documents/Academisch/UoC/Dissertation/Experiment/OpenSesame/NAP-FC/NAP_GER_AA_4blocks_noglides","yes","no","sans","no","20","no","black","no","Weiter","yes","768","legacy","4","4","0","/Users/aviadalbert/Documents/Academisch/UoC/Dissertation/Experiment/OpenSesame/NAP-FC/NAP_GER_AA_4blocks_noglides/subject-51.csv","xpyriment","Jazzy James","3.1.9","yes","yes","59a800d99ad5a1025d81bb03","59a801616c613b0251691de0","yes","no","0","j","f","NA","NA","space","space","j","1416","3669","NA","NA","32815","7464","1416","2","legacy","1024","1","44100","-16","experiment","nefal","3","0","0","0","1","Englisch","51","","odd","9665990","NA","NA","NA","NA","NA","NA","9531773","NA","9531774","9531773","9625411","9658231","9683942","9682436","9685359","9669660","9665986","NA","NA","9558095","9614008","NA","9665765","NA","9665989","NA","9683941","9683942","NA","NA","9682431","NAP perception","5","6861","5","yes","1024"
"100","yes","100","1467","1467","white","no","xpyriment","Ich habe die obigen Informationen gelesen und verstanden.","legacy","legacy","0","uniform","1","0","NA","undefined","undefined","1","f","0","0","NA","NA","NA","NA","NA","0","0","0","0","0","0","5","5","5","0","0","NA","NA","0","0","0","0","NA","0","0","5","5","5","5","5","Sat Nov 11 21:59:16 2017","Forced-choice identification task with a practice and an experimental phase","yes","NAP_GER_AA_4blocks_noglides.osexp","/Users/aviadalbert/Documents/Academisch/UoC/Dissertation/Experiment/OpenSesame/NAP-FC/NAP_GER_AA_4blocks_noglides","yes","no","sans","no","20","no","black","no","Weiter","yes","768","legacy","5","5","0","/Users/aviadalbert/Documents/Academisch/UoC/Dissertation/Experiment/OpenSesame/NAP-FC/NAP_GER_AA_4blocks_noglides/subject-51.csv","xpyriment","Jazzy James","3.1.9","yes","yes","59a800d99ad5a1025d81bb03","59a801616c613b0251691de0","yes","no","0","f","f","NA","NA","space","space","f","1941","3669","NA","NA","32815","7464","1941","2","legacy","1024","1","44100","-16","experiment","sfal","3","0","0","0","1","Englisch","51","","odd","9665990","NA","NA","NA","NA","NA","NA","9531773","NA","9531774","9531773","9625411","9658231","9687157","9685652","9689099","9669660","9665986","NA","NA","9558095","9614008","NA","9665765","NA","9665989","NA","9687157","9687157","NA","NA","9685648","NAP perception","6","8802","6","yes","1024"
"100","yes","100","1513.85714286","1513.85714286","white","no","xpyriment","Ich habe die obigen Informationen gelesen und verstanden.","legacy","legacy","0","uniform","1","0","NA","undefined","undefined","1","f","0","0","NA","NA","NA","NA","NA","0","0","0","0","0","0","6","6","6","0","0","NA","NA","0","0","0","0","NA","0","0","6","6","6","6","6","Sat Nov 11 21:59:16 2017","Forced-choice identification task with a practice and an experimental phase","yes","NAP_GER_AA_4blocks_noglides.osexp","/Users/aviadalbert/Documents/Academisch/UoC/Dissertation/Experiment/OpenSesame/NAP-FC/NAP_GER_AA_4blocks_noglides","yes","no","sans","no","20","no","black","no","Weiter","yes","768","legacy","6","6","0","/Users/aviadalbert/Documents/Academisch/UoC/Dissertation/Experiment/OpenSesame/NAP-FC/NAP_GER_AA_4blocks_noglides/subject-51.csv","xpyriment","Jazzy James","3.1.9","yes","yes","59a800d99ad5a1025d81bb03","59a801616c613b0251691de0","yes","no","0","f","f","NA","NA","space","space","f","1795","3669","NA","NA","32815","7464","1795","2","legacy","1024","1","44100","-16","experiment","zmal","3","0","0","0","1","Englisch","51","","odd","9665990","NA","NA","NA","NA","NA","NA","9531773","NA","9531774","9531773","9625411","9658231","9690888","9689384","9692684","9669660","9665986","NA","NA","9558095","9614008","NA","9665765","NA","9665989","NA","9690887","9690888","NA","NA","9689379","NAP perception","7","10597","7","yes","1024"
"100","yes","100","1554.875","1554.875","white","no","xpyriment","Ich habe die obigen Informationen gelesen und verstanden.","legacy","legacy","0","uniform","1","0","NA","undefined","undefined","1","j","0","0","NA","NA","NA","NA","NA","0","0","0","0","0","0","7","7","7","0","0","NA","NA","0","0","0","0","NA","0","0","7","7","7","7","7","Sat Nov 11 21:59:16 2017","Forced-choice identification task with a practice and an experimental phase","yes","NAP_GER_AA_4blocks_noglides.osexp","/Users/aviadalbert/Documents/Academisch/UoC/Dissertation/Experiment/OpenSesame/NAP-FC/NAP_GER_AA_4blocks_noglides","yes","no","sans","no","20","no","black","no","Weiter","yes","768","legacy","7","7","0","/Users/aviadalbert/Documents/Academisch/UoC/Dissertation/Experiment/OpenSesame/NAP-FC/NAP_GER_AA_4blocks_noglides/subject-51.csv","xpyriment","Jazzy James","3.1.9","yes","yes","59a800d99ad5a1025d81bb03","59a801616c613b0251691de0","yes","no","0","j","f","NA","NA","space","space","j","1842","3669","NA","NA","32815","7464","1842","2","legacy","1024","1","44100","-16","experiment","mesal","3","0","0","0","1","Englisch","51","","odd","9665990","NA","NA","NA","NA","NA","NA","9531773","NA","9531774","9531773","9625411","9658231","9694463","9692958","9696306","9669660","9665986","NA","NA","9558095","9614008","NA","9665765","NA","9665989","NA","9694462","9694462","NA","NA","9692954","NAP perception","8","12439","8","yes","1024"
"100","yes","100","1521.22222222","1521.22222222","white","no","xpyriment","Ich habe die obigen Informationen gelesen und verstanden.","legacy","legacy","0","uniform","1","0","NA","undefined","undefined","1","j","0","0","NA","NA","NA","NA","NA","0","0","0","0","0","0","8","8","8","0","0","NA","NA","0","0","0","0","NA","0","0","8","8","8","8","8","Sat Nov 11 21:59:16 2017","Forced-choice identification task with a practice and an experimental phase","yes","NAP_GER_AA_4blocks_noglides.osexp","/Users/aviadalbert/Documents/Academisch/UoC/Dissertation/Experiment/OpenSesame/NAP-FC/NAP_GER_AA_4blocks_noglides","yes","no","sans","no","20","no","black","no","Weiter","yes","768","legacy","8","8","0","/Users/aviadalbert/Documents/Academisch/UoC/Dissertation/Experiment/OpenSesame/NAP-FC/NAP_GER_AA_4blocks_noglides/subject-51.csv","xpyriment","Jazzy James","3.1.9","yes","yes","59a800d99ad5a1025d81bb03","59a801616c613b0251691de0","yes","no","0","j","f","NA","NA","space","space","j","1252","3669","NA","NA","32815","7464","1252","2","legacy","1024","1","44100","-16","experiment","enval","3","0","0","0","1","Englisch","51","","odd","9665990","NA","NA","NA","NA","NA","NA","9531773","NA","9531774","9531773","9625411","9658231","9698080","9696576","9699334","9669660","9665986","NA","NA","9558095","9614008","NA","9665765","NA","9665989","NA","9698080","9698080","NA","NA","9696572","NAP perception","9","13691","9","yes","1024"
"100","yes","100","1510.4","1510.4","white","no","xpyriment","Ich habe die obigen Informationen gelesen und verstanden.","legacy","legacy","0","uniform","1","0","NA","undefined","undefined","1","f","0","0","NA","NA","NA","NA","NA","0","0","0","0","0","0","9","9","9","0","0","NA","NA","0","0","0","0","NA","0","0","9","9","9","9","9","Sat Nov 11 21:59:16 2017","Forced-choice identification task with a practice and an experimental phase","yes","NAP_GER_AA_4blocks_noglides.osexp","/Users/aviadalbert/Documents/Academisch/UoC/Dissertation/Experiment/OpenSesame/NAP-FC/NAP_GER_AA_4blocks_noglides","yes","no","sans","no","20","no","black","no","Weiter","yes","768","legacy","9","9","0","/Users/aviadalbert/Documents/Academisch/UoC/Dissertation/Experiment/OpenSesame/NAP-FC/NAP_GER_AA_4blocks_noglides/subject-51.csv","xpyriment","Jazzy James","3.1.9","yes","yes","59a800d99ad5a1025d81bb03","59a801616c613b0251691de0","yes","no","0","f","f","NA","NA","space","space","f","1413","3669","NA","NA","32815","7464","1413","2","legacy","1024","1","44100","-16","experiment","vlal","3","0","0","0","1","Englisch","51","","odd","9665990","NA","NA","NA","NA","NA","NA","9531773","NA","9531774","9531773","9625411","9658231","9701113","9699608","9702527","9669660","9665986","NA","NA","9558095","9614008","NA","9665765","NA","9665989","NA","9701112","9701113","NA","NA","9699604","NAP perception","10","15104","10","yes","1024"
"100","yes","100","2460","2460","white","no","xpyriment","Ich habe die obigen Informationen gelesen und verstanden.","legacy","legacy","0","uniform","1","0","0","undefined","undefined","1","f","2","1","NA","0","1","0","0","0","0","0","0","0","0","10","10","10","0","0","0","NA","0","0","2","0","0","0","2","10","10","10","10","10","Sat Nov 11 21:59:16 2017","Forced-choice identification task with a practice and an experimental phase","yes","NAP_GER_AA_4blocks_noglides.osexp","/Users/aviadalbert/Documents/Academisch/UoC/Dissertation/Experiment/OpenSesame/NAP-FC/NAP_GER_AA_4blocks_noglides","yes","no","sans","no","20","no","black","no","Weiter","yes","768","legacy","0","9","0","/Users/aviadalbert/Documents/Academisch/UoC/Dissertation/Experiment/OpenSesame/NAP-FC/NAP_GER_AA_4blocks_noglides/subject-51.csv","xpyriment","Jazzy James","3.1.9","yes","yes","59a800d99ad5a1025d81bb03","59a801616c613b0251691de0","no","no","0","f","f","space","NA","space","space","f","2460","3276","61043","NA","32815","7464","2460","2","legacy","1024","1","44100","-16","experiment","ftal","3","0","0","0","1","Englisch","51","","odd","9765810","9704247","NA","NA","9769087","9765806","NA","9531773","9765346","9531774","9531773","9625411","9658231","9770797","9769292","9773258","9669660","9665986","9704246","NA","9558095","9614008","9702592","9665765","9765810","9665989","NA","9770796","9770797","NA","NA","9769288","NAP perception","1","2460","1","yes","1024"
"100","yes","100","1644.5","1644.5","white","no","xpyriment","Ich habe die obigen Informationen gelesen und verstanden.","legacy","legacy","0","uniform","1","0","0","undefined","undefined","1","f","2","1","NA","0","1","0","0","0","0","0","0","0","0","11","11","11","0","0","0","NA","0","0","2","0","0","0","2","11","11","11","11","11","Sat Nov 11 21:59:16 2017","Forced-choice identification task with a practice and an experimental phase","yes","NAP_GER_AA_4blocks_noglides.osexp","/Users/aviadalbert/Documents/Academisch/UoC/Dissertation/Experiment/OpenSesame/NAP-FC/NAP_GER_AA_4blocks_noglides","yes","no","sans","no","20","no","black","no","Weiter","yes","768","legacy","1","9","0","/Users/aviadalbert/Documents/Academisch/UoC/Dissertation/Experiment/OpenSesame/NAP-FC/NAP_GER_AA_4blocks_noglides/subject-51.csv","xpyriment","Jazzy James","3.1.9","yes","yes","59a800d99ad5a1025d81bb03","59a801616c613b0251691de0","no","no","0","f","f","space","NA","space","space","f","829","3276","61043","NA","32815","7464","829","2","legacy","1024","1","44100","-16","experiment","spal","3","0","0","0","1","Englisch","51","","odd","9765810","9704247","NA","NA","9769087","9765806","NA","9531773","9765346","9531774","9531773","9625411","9658231","9775023","9773520","9775853","9669660","9665986","9704246","NA","9558095","9614008","9702592","9665765","9765810","9665989","NA","9775023","9775023","NA","NA","9773516","NAP perception","2","3289","2","yes","1024"
"100","yes","100","1464","1464","white","no","xpyriment","Ich habe die obigen Informationen gelesen und verstanden.","legacy","legacy","0","uniform","1","0","0","undefined","undefined","1","j","2","1","NA","0","1","0","0","0","0","0","0","0","0","12","12","12","0","0","0","NA","0","0","2","0","0","0","2","12","12","12","12","12","Sat Nov 11 21:59:16 2017","Forced-choice identification task with a practice and an experimental phase","yes","NAP_GER_AA_4blocks_noglides.osexp","/Users/aviadalbert/Documents/Academisch/UoC/Dissertation/Experiment/OpenSesame/NAP-FC/NAP_GER_AA_4blocks_noglides","yes","no","sans","no","20","no","black","no","Weiter","yes","768","legacy","2","9","0","/Users/aviadalbert/Documents/Academisch/UoC/Dissertation/Experiment/OpenSesame/NAP-FC/NAP_GER_AA_4blocks_noglides/subject-51.csv","xpyriment","Jazzy James","3.1.9","yes","yes","59a800d99ad5a1025d81bb03","59a801616c613b0251691de0","no","no","0","j","f","space","NA","space","space","j","1103","3276","61043","NA","32815","7464","1103","2","legacy","1024","1","44100","-16","experiment","mezal","3","0","0","0","1","Englisch","51","","odd","9765810","9704247","NA","NA","9769087","9765806","NA","9531773","9765346","9531774","9531773","9625411","9658231","9777647","9776140","9778751","9669660","9665986","9704246","NA","9558095","9614008","9702592","9665765","9765810","9665989","NA","9777646","9777647","NA","NA","9776135","NAP perception","3","4392","3","yes","1024"
"75","yes","75","1409.5","1409.5","white","no","xpyriment","Ich habe die obigen Informationen gelesen und verstanden.","legacy","legacy","0","uniform","0","0","0","undefined","undefined","0","f","2","1","NA","0","1","0","0","0","0","0","0","0","0","13","13","13","0","0","0","NA","0","0","2","0","0","0","2","13","13","13","13","13","Sat Nov 11 21:59:16 2017","Forced-choice identification task with a practice and an experimental phase","yes","NAP_GER_AA_4blocks_noglides.osexp","/Users/aviadalbert/Documents/Academisch/UoC/Dissertation/Experiment/OpenSesame/NAP-FC/NAP_GER_AA_4blocks_noglides","yes","no","sans","no","20","no","black","no","Weiter","yes","768","legacy","3","9","0","/Users/aviadalbert/Documents/Academisch/UoC/Dissertation/Experiment/OpenSesame/NAP-FC/NAP_GER_AA_4blocks_noglides/subject-51.csv","xpyriment","Jazzy James","3.1.9","yes","yes","59a800d99ad5a1025d81bb03","59a801616c613b0251691de0","no","no","0","j","f","space","NA","space","space","j","1246","3276","61043","NA","32815","7464","1246","2","legacy","1024","1","44100","-16","experiment","zval","3","0","0","0","1","Englisch","51","","odd","9765810","9704247","NA","NA","9769087","9765806","NA","9531773","9765346","9531774","9531773","9625411","9658231","9780520","9779014","9781767","9669660","9665986","9704246","NA","9558095","9614008","9702592","9665765","9765810","9665989","NA","9780520","9780520","NA","NA","9779010","NAP perception","3","5638","4","yes","1024"
"80","yes","80","1380.2","1380.2","white","no","xpyriment","Ich habe die obigen Informationen gelesen und verstanden.","legacy","legacy","0","uniform","1","0","0","undefined","undefined","1","f","2","1","NA","0","1","0","0","0","0","0","0","0","0","14","14","14","0","0","0","NA","0","0","2","0","0","0","2","14","14","14","14","14","Sat Nov 11 21:59:16 2017","Forced-choice identification task with a practice and an experimental phase","yes","NAP_GER_AA_4blocks_noglides.osexp","/Users/aviadalbert/Documents/Academisch/UoC/Dissertation/Experiment/OpenSesame/NAP-FC/NAP_GER_AA_4blocks_noglides","yes","no","sans","no","20","no","black","no","Weiter","yes","768","legacy","4","9","0","/Users/aviadalbert/Documents/Academisch/UoC/Dissertation/Experiment/OpenSesame/NAP-FC/NAP_GER_AA_4blocks_noglides/subject-51.csv","xpyriment","Jazzy James","3.1.9","yes","yes","59a800d99ad5a1025d81bb03","59a801616c613b0251691de0","no","no","0","f","f","space","NA","space","space","f","1263","3276","61043","NA","32815","7464","1263","2","legacy","1024","1","44100","-16","experiment","fnal","3","0","0","0","1","Englisch","51","","odd","9765810","9704247","NA","NA","9769087","9765806","NA","9531773","9765346","9531774","9531773","9625411","9658231","9783546","9782042","9784810","9669660","9665986","9704246","NA","9558095","9614008","9702592","9665765","9765810","9665989","NA","9783545","9783545","NA","NA","9782038","NAP perception","4","6901","5","yes","1024"
"83.3333333333","yes","83.3333333333","1378.66666667","1378.66666667","white","no","xpyriment","Ich habe die obigen Informationen gelesen und verstanden.","legacy","legacy","0","uniform","1","0","0","undefined","undefined","1","j","2","1","NA","0","1","0","0","0","0","0","0","0","0","15","15","15","0","0","0","NA","0","0","2","0","0","0","2","15","15","15","15","15","Sat Nov 11 21:59:16 2017","Forced-choice identification task with a practice and an experimental phase","yes","NAP_GER_AA_4blocks_noglides.osexp","/Users/aviadalbert/Documents/Academisch/UoC/Dissertation/Experiment/OpenSesame/NAP-FC/NAP_GER_AA_4blocks_noglides","yes","no","sans","no","20","no","black","no","Weiter","yes","768","legacy","5","9","0","/Users/aviadalbert/Documents/Academisch/UoC/Dissertation/Experiment/OpenSesame/NAP-FC/NAP_GER_AA_4blocks_noglides/subject-51.csv","xpyriment","Jazzy James","3.1.9","yes","yes","59a800d99ad5a1025d81bb03","59a801616c613b0251691de0","no","no","0","j","f","space","NA","space","space","j","1371","3276","61043","NA","32815","7464","1371","2","legacy","1024","1","44100","-16","experiment","eʃpal","3","0","0","0","1","Englisch","51","","odd","9765810","9704247","NA","NA","9769087","9765806","NA","9531773","9765346","9531774","9531773","9625411","9658231","9786587","9785083","9787959","9669660","9665986","9704246","NA","9558095","9614008","9702592","9665765","9765810","9665989","NA","9786587","9786587","NA","NA","9785078","NAP perception","5","8272","6","yes","1024"
"85.7142857143","yes","85.7142857143","1398.85714286","1398.85714286","white","no","xpyriment","Ich habe die obigen Informationen gelesen und verstanden.","legacy","legacy","0","uniform","1","0","0","undefined","undefined","1","j","2","1","NA","0","1","0","0","0","0","0","0","0","0","16","16","16","0","0","0","NA","0","0","2","0","0","0","2","16","16","16","16","16","Sat Nov 11 21:59:16 2017","Forced-choice identification task with a practice and an experimental phase","yes","NAP_GER_AA_4blocks_noglides.osexp","/Users/aviadalbert/Documents/Academisch/UoC/Dissertation/Experiment/OpenSesame/NAP-FC/NAP_GER_AA_4blocks_noglides","yes","no","sans","no","20","no","black","no","Weiter","yes","768","legacy","6","9","0","/Users/aviadalbert/Documents/Academisch/UoC/Dissertation/Experiment/OpenSesame/NAP-FC/NAP_GER_AA_4blocks_noglides/subject-51.csv","xpyriment","Jazzy James","3.1.9","yes","yes","59a800d99ad5a1025d81bb03","59a801616c613b0251691de0","no","no","0","j","f","space","NA","space","space","j","1520","3276","61043","NA","32815","7464","1520","2","legacy","1024","1","44100","-16","experiment","esmal","3","0","0","0","1","Englisch","51","","odd","9765810","9704247","NA","NA","9769087","9765806","NA","9531773","9765346","9531774","9531773","9625411","9658231","9789732","9788228","9791253","9669660","9665986","9704246","NA","9558095","9614008","9702592","9665765","9765810","9665989","NA","9789732","9789732","NA","NA","9788223","NAP perception","6","9792","7","yes","1024"
"87.5","yes","87.5","1387.75","1387.75","white","no","xpyriment","Ich habe die obigen Informationen gelesen und verstanden.","legacy","legacy","0","uniform","1","0","0","undefined","undefined","1","j","2","1","NA","0","1","0","0","0","0","0","0","0","0","17","17","17","0","0","0","NA","0","0","2","0","0","0","2","17","17","17","17","17","Sat Nov 11 21:59:16 2017","Forced-choice identification task with a practice and an experimental phase","yes","NAP_GER_AA_4blocks_noglides.osexp","/Users/aviadalbert/Documents/Academisch/UoC/Dissertation/Experiment/OpenSesame/NAP-FC/NAP_GER_AA_4blocks_noglides","yes","no","sans","no","20","no","black","no","Weiter","yes","768","legacy","7","9","0","/Users/aviadalbert/Documents/Academisch/UoC/Dissertation/Experiment/OpenSesame/NAP-FC/NAP_GER_AA_4blocks_noglides/subject-51.csv","xpyriment","Jazzy James","3.1.9","yes","yes","59a800d99ad5a1025d81bb03","59a801616c613b0251691de0","no","no","0","j","f","space","NA","space","space","j","1310","3276","61043","NA","32815","7464","1310","2","legacy","1024","1","44100","-16","experiment","eʃmal","3","0","0","0","1","Englisch","51","","odd","9765810","9704247","NA","NA","9769087","9765806","NA","9531773","9765346","9531774","9531773","9625411","9658231","9793035","9791528","9794346","9669660","9665986","9704246","NA","9558095","9614008","9702592","9665765","9765810","9665989","NA","9793035","9793035","NA","NA","9791524","NAP perception","7","11102","8","yes","1024"
"88.8888888889","yes","88.8888888889","1390.33333333","1390.33333333","white","no","xpyriment","Ich habe die obigen Informationen gelesen und verstanden.","legacy","legacy","0","uniform","1","0","0","undefined","undefined","1","j","2","1","NA","0","1","0","0","0","0","0","0","0","0","18","18","18","0","0","0","NA","0","0","2","0","0","0","2","18","18","18","18","18","Sat Nov 11 21:59:16 2017","Forced-choice identification task with a practice and an experimental phase","yes","NAP_GER_AA_4blocks_noglides.osexp","/Users/aviadalbert/Documents/Academisch/UoC/Dissertation/Experiment/OpenSesame/NAP-FC/NAP_GER_AA_4blocks_noglides","yes","no","sans","no","20","no","black","no","Weiter","yes","768","legacy","8","9","0","/Users/aviadalbert/Documents/Academisch/UoC/Dissertation/Experiment/OpenSesame/NAP-FC/NAP_GER_AA_4blocks_noglides/subject-51.csv","xpyriment","Jazzy James","3.1.9","yes","yes","59a800d99ad5a1025d81bb03","59a801616c613b0251691de0","no","no","0","j","f","space","NA","space","space","j","1411","3276","61043","NA","32815","7464","1411","2","legacy","1024","1","44100","-16","experiment","vezal","3","0","0","0","1","Englisch","51","","odd","9765810","9704247","NA","NA","9769087","9765806","NA","9531773","9765346","9531774","9531773","9625411","9658231","9796122","9794618","9797535","9669660","9665986","9704246","NA","9558095","9614008","9702592","9665765","9765810","9665989","NA","9796121","9796122","NA","NA","9794613","NAP perception","8","12513","9","yes","1024"
"90","yes","90","1382.1","1382.1","white","no","xpyriment","Ich habe die obigen Informationen gelesen und verstanden.","legacy","legacy","0","uniform","1","0","0","undefined","undefined","1","f","2","1","NA","0","1","0","0","0","0","0","0","0","0","19","19","19","0","0","0","NA","0","0","2","0","0","0","2","19","19","19","19","19","Sat Nov 11 21:59:16 2017","Forced-choice identification task with a practice and an experimental phase","yes","NAP_GER_AA_4blocks_noglides.osexp","/Users/aviadalbert/Documents/Academisch/UoC/Dissertation/Experiment/OpenSesame/NAP-FC/NAP_GER_AA_4blocks_noglides","yes","no","sans","no","20","no","black","no","Weiter","yes","768","legacy","9","9","0","/Users/aviadalbert/Documents/Academisch/UoC/Dissertation/Experiment/OpenSesame/NAP-FC/NAP_GER_AA_4blocks_noglides/subject-51.csv","xpyriment","Jazzy James","3.1.9","yes","yes","59a800d99ad5a1025d81bb03","59a801616c613b0251691de0","no","no","0","f","f","space","NA","space","space","f","1308","3276","61043","NA","32815","7464","1308","2","legacy","1024","1","44100","-16","experiment","ʃpal","3","0","0","0","1","Englisch","51","","odd","9765810","9704247","NA","NA","9769087","9765806","NA","9531773","9765346","9531774","9531773","9625411","9658231","9799305","9797801","9800614","9669660","9665986","9704246","NA","9558095","9614008","9702592","9665765","9765810","9665989","NA","9799305","9799305","NA","NA","9797797","NAP perception","9","13821","10","yes","1024"
"90.9090909091","yes","90.9090909091","1393.27272727","1393.27272727","white","no","xpyriment","Ich habe die obigen Informationen gelesen und verstanden.","legacy","legacy","0","uniform","1","0","0","undefined","undefined","1","j","2","1","NA","0","1","0","0","0","0","0","0","0","0","20","20","20","0","0","0","NA","0","0","2","0","0","0","2","20","20","20","20","20","Sat Nov 11 21:59:16 2017","Forced-choice identification task with a practice and an experimental phase","yes","NAP_GER_AA_4blocks_noglides.osexp","/Users/aviadalbert/Documents/Academisch/UoC/Dissertation/Experiment/OpenSesame/NAP-FC/NAP_GER_AA_4blocks_noglides","yes","no","sans","no","20","no","black","no","Weiter","yes","768","legacy","10","9","0","/Users/aviadalbert/Documents/Academisch/UoC/Dissertation/Experiment/OpenSesame/NAP-FC/NAP_GER_AA_4blocks_noglides/subject-51.csv","xpyriment","Jazzy James","3.1.9","yes","yes","59a800d99ad5a1025d81bb03","59a801616c613b0251691de0","no","no","0","j","f","space","NA","space","space","j","1505","3276","61043","NA","32815","7464","1505","2","legacy","1024","1","44100","-16","experiment","ʃepal","3","0","0","0","1","Englisch","51","","odd","9765810","9704247","NA","NA","9769087","9765806","NA","9531773","9765346","9531774","9531773","9625411","9658231","9802412","9800905","9803919","9669660","9665986","9704246","NA","9558095","9614008","9702592","9665765","9765810","9665989","NA","9802411","9802411","NA","NA","9800901","NAP perception","10","15326","11","yes","1024"
"91.6666666667","yes","91.6666666667","1381.83333333","1381.83333333","white","no","xpyriment","Ich habe die obigen Informationen gelesen und verstanden.","legacy","legacy","0","uniform","1","0","0","undefined","undefined","1","f","2","1","NA","0","1","0","0","0","0","0","0","0","0","21","21","21","0","0","0","NA","0","0","2","0","0","0","2","21","21","21","21","21","Sat Nov 11 21:59:16 2017","Forced-choice identification task with a practice and an experimental phase","yes","NAP_GER_AA_4blocks_noglides.osexp","/Users/aviadalbert/Documents/Academisch/UoC/Dissertation/Experiment/OpenSesame/NAP-FC/NAP_GER_AA_4blocks_noglides","yes","no","sans","no","20","no","black","no","Weiter","yes","768","legacy","11","9","0","/Users/aviadalbert/Documents/Academisch/UoC/Dissertation/Experiment/OpenSesame/NAP-FC/NAP_GER_AA_4blocks_noglides/subject-51.csv","xpyriment","Jazzy James","3.1.9","yes","yes","59a800d99ad5a1025d81bb03","59a801616c613b0251691de0","no","no","0","f","f","space","NA","space","space","f","1256","3276","61043","NA","32815","7464","1256","2","legacy","1024","1","44100","-16","experiment","zmal","3","0","0","0","1","Englisch","51","","odd","9765810","9704247","NA","NA","9769087","9765806","NA","9531773","9765346","9531774","9531773","9625411","9658231","9805697","9804190","9806955","9669660","9665986","9704246","NA","9558095","9614008","9702592","9665765","9765810","9665989","NA","9805697","9805697","NA","NA","9804186","NAP perception","11","16582","12","yes","1024"
"92.3076923077","yes","92.3076923077","1365.92307692","1365.92307692","white","no","xpyriment","Ich habe die obigen Informationen gelesen und verstanden.","legacy","legacy","0","uniform","1","0","0","undefined","undefined","1","j","2","1","NA","0","1","0","0","0","0","0","0","0","0","22","22","22","0","0","0","NA","0","0","2","0","0","0","2","22","22","22","22","22","Sat Nov 11 21:59:16 2017","Forced-choice identification task with a practice and an experimental phase","yes","NAP_GER_AA_4blocks_noglides.osexp","/Users/aviadalbert/Documents/Academisch/UoC/Dissertation/Experiment/OpenSesame/NAP-FC/NAP_GER_AA_4blocks_noglides","yes","no","sans","no","20","no","black","no","Weiter","yes","768","legacy","12","9","0","/Users/aviadalbert/Documents/Academisch/UoC/Dissertation/Experiment/OpenSesame/NAP-FC/NAP_GER_AA_4blocks_noglides/subject-51.csv","xpyriment","Jazzy James","3.1.9","yes","yes","59a800d99ad5a1025d81bb03","59a801616c613b0251691de0","no","no","0","j","f","space","NA","space","space","j","1175","3276","61043","NA","32815","7464","1175","2","legacy","1024","1","44100","-16","experiment","enpal","3","0","0","0","1","Englisch","51","","odd","9765810","9704247","NA","NA","9769087","9765806","NA","9531773","9765346","9531774","9531773","9625411","9658231","9808720","9807216","9809896","9669660","9665986","9704246","NA","9558095","9614008","9702592","9665765","9765810","9665989","NA","9808719","9808719","NA","NA","9807212","NAP perception","12","17757","13","yes","1024"
"85.7142857143","yes","85.7142857143","1384","1384","white","no","xpyriment","Ich habe die obigen Informationen gelesen und verstanden.","legacy","legacy","0","uniform","0","0","0","undefined","undefined","0","f","2","1","NA","0","1","0","0","0","0","0","0","0","0","23","23","23","0","0","0","NA","0","0","2","0","0","0","2","23","23","23","23","23","Sat Nov 11 21:59:16 2017","Forced-choice identification task with a practice and an experimental phase","yes","NAP_GER_AA_4blocks_noglides.osexp","/Users/aviadalbert/Documents/Academisch/UoC/Dissertation/Experiment/OpenSesame/NAP-FC/NAP_GER_AA_4blocks_noglides","yes","no","sans","no","20","no","black","no","Weiter","yes","768","legacy","13","9","0","/Users/aviadalbert/Documents/Academisch/UoC/Dissertation/Experiment/OpenSesame/NAP-FC/NAP_GER_AA_4blocks_noglides/subject-51.csv","xpyriment","Jazzy James","3.1.9","yes","yes","59a800d99ad5a1025d81bb03","59a801616c613b0251691de0","no","no","0","j","f","space","NA","space","space","j","1619","3276","61043","NA","32815","7464","1619","2","legacy","1024","1","44100","-16","experiment","lkal","3","0","0","0","1","Englisch","51","","odd","9765810","9704247","NA","NA","9769087","9765806","NA","9531773","9765346","9531774","9531773","9625411","9658231","9811670","9810165","9813291","9669660","9665986","9704246","NA","9558095","9614008","9702592","9665765","9765810","9665989","NA","9811670","9811670","NA","NA","9810161","NAP perception","12","19376","14","yes","1024"
"86.6666666667","yes","86.6666666667","1374.6","1374.6","white","no","xpyriment","Ich habe die obigen Informationen gelesen und verstanden.","legacy","legacy","0","uniform","1","0","0","undefined","undefined","1","j","2","1","NA","0","1","0","0","0","0","0","0","0","0","24","24","24","0","0","0","NA","0","0","2","0","0","0","2","24","24","24","24","24","Sat Nov 11 21:59:16 2017","Forced-choice identification task with a practice and an experimental phase","yes","NAP_GER_AA_4blocks_noglides.osexp","/Users/aviadalbert/Documents/Academisch/UoC/Dissertation/Experiment/OpenSesame/NAP-FC/NAP_GER_AA_4blocks_noglides","yes","no","sans","no","20","no","black","no","Weiter","yes","768","legacy","14","9","0","/Users/aviadalbert/Documents/Academisch/UoC/Dissertation/Experiment/OpenSesame/NAP-FC/NAP_GER_AA_4blocks_noglides/subject-51.csv","xpyriment","Jazzy James","3.1.9","yes","yes","59a800d99ad5a1025d81bb03","59a801616c613b0251691de0","no","no","0","j","f","space","NA","space","space","j","1243","3276","61043","NA","32815","7464","1243","2","legacy","1024","1","44100","-16","experiment","emnal","3","0","0","0","1","Englisch","51","","odd","9765810","9704247","NA","NA","9769087","9765806","NA","9531773","9765346","9531774","9531773","9625411","9658231","9815070","9813565","9816314","9669660","9665986","9704246","NA","9558095","9614008","9702592","9665765","9765810","9665989","NA","9815070","9815070","NA","NA","9813561","NAP perception","13","20619","15","yes","1024"
"87.5","yes","87.5","1348.4375","1348.4375","white","no","xpyriment","Ich habe die obigen Informationen gelesen und verstanden.","legacy","legacy","0","uniform","1","0","0","undefined","undefined","1","j","2","1","NA","0","1","0","0","0","0","0","0","0","0","25","25","25","0","0","0","NA","0","0","2","0","0","0","2","25","25","25","25","25","Sat Nov 11 21:59:16 2017","Forced-choice identification task with a practice and an experimental phase","yes","NAP_GER_AA_4blocks_noglides.osexp","/Users/aviadalbert/Documents/Academisch/UoC/Dissertation/Experiment/OpenSesame/NAP-FC/NAP_GER_AA_4blocks_noglides","yes","no","sans","no","20","no","black","no","Weiter","yes","768","legacy","15","9","0","/Users/aviadalbert/Documents/Academisch/UoC/Dissertation/Experiment/OpenSesame/NAP-FC/NAP_GER_AA_4blocks_noglides/subject-51.csv","xpyriment","Jazzy James","3.1.9","yes","yes","59a800d99ad5a1025d81bb03","59a801616c613b0251691de0","no","no","0","j","f","space","NA","space","space","j","956","3276","61043","NA","32815","7464","956","2","legacy","1024","1","44100","-16","experiment","elmal","3","0","0","0","1","Englisch","51","","odd","9765810","9704247","NA","NA","9769087","9765806","NA","9531773","9765346","9531774","9531773","9625411","9658231","9818088","9816583","9819045","9669660","9665986","9704246","NA","9558095","9614008","9702592","9665765","9765810","9665989","NA","9818087","9818087","NA","NA","9816579","NAP perception","14","21575","16","yes","1024"
"88.2352941176","yes","88.2352941176","1340.47058824","1340.47058824","white","no","xpyriment","Ich habe die obigen Informationen gelesen und verstanden.","legacy","legacy","0","uniform","1","0","0","undefined","undefined","1","j","2","1","NA","0","1","0","0","0","0","0","0","0","0","26","26","26","0","0","0","NA","0","0","2","0","0","0","2","26","26","26","26","26","Sat Nov 11 21:59:16 2017","Forced-choice identification task with a practice and an experimental phase","yes","NAP_GER_AA_4blocks_noglides.osexp","/Users/aviadalbert/Documents/Academisch/UoC/Dissertation/Experiment/OpenSesame/NAP-FC/NAP_GER_AA_4blocks_noglides","yes","no","sans","no","20","no","black","no","Weiter","yes","768","legacy","16","9","0","/Users/aviadalbert/Documents/Academisch/UoC/Dissertation/Experiment/OpenSesame/NAP-FC/NAP_GER_AA_4blocks_noglides/subject-51.csv","xpyriment","Jazzy James","3.1.9","yes","yes","59a800d99ad5a1025d81bb03","59a801616c613b0251691de0","no","no","0","j","f","space","NA","space","space","j","1213","3276","61043","NA","32815","7464","1213","2","legacy","1024","1","44100","-16","experiment","felal","3","0","0","0","1","Englisch","51","","odd","9765810","9704247","NA","NA","9769087","9765806","NA","9531773","9765346","9531774","9531773","9625411","9658231","9820827","9819321","9822041","9669660","9665986","9704246","NA","9558095","9614008","9702592","9665765","9765810","9665989","NA","9820826","9820826","NA","NA","9819316","NAP perception","15","22788","17","yes","1024"
"88.8888888889","yes","88.8888888889","1361.66666667","1361.66666667","white","no","xpyriment","Ich habe die obigen Informationen gelesen und verstanden.","legacy","legacy","0","uniform","1","0","0","undefined","undefined","1","j","2","1","NA","0","1","0","0","0","0","0","0","0","0","27","27","27","0","0","0","NA","0","0","2","0","0","0","2","27","27","27","27","27","Sat Nov 11 21:59:16 2017","Forced-choice identification task with a practice and an experimental phase","yes","NAP_GER_AA_4blocks_noglides.osexp","/Users/aviadalbert/Documents/Academisch/UoC/Dissertation/Experiment/OpenSesame/NAP-FC/NAP_GER_AA_4blocks_noglides","yes","no","sans","no","20","no","black","no","Weiter","yes","768","legacy","17","9","0","/Users/aviadalbert/Documents/Academisch/UoC/Dissertation/Experiment/OpenSesame/NAP-FC/NAP_GER_AA_4blocks_noglides/subject-51.csv","xpyriment","Jazzy James","3.1.9","yes","yes","59a800d99ad5a1025d81bb03","59a801616c613b0251691de0","no","no","0","j","f","space","NA","space","space","j","1722","3276","61043","NA","32815","7464","1722","2","legacy","1024","1","44100","-16","experiment","emsal","3","0","0","0","1","Englisch","51","","odd","9765810","9704247","NA","NA","9769087","9765806","NA","9531773","9765346","9531774","9531773","9625411","9658231","9823830","9822322","9825553","9669660","9665986","9704246","NA","9558095","9614008","9702592","9665765","9765810","9665989","NA","9823830","9823830","NA","NA","9822318","NAP perception","16","24510","18","yes","1024"
"84.2105263158","yes","84.2105263158","1398.42105263","1398.42105263","white","no","xpyriment","Ich habe die obigen Informationen gelesen und verstanden.","legacy","legacy","0","uniform","0","0","0","undefined","undefined","0","j","2","1","NA","0","1","0","0","0","0","0","0","0","0","28","28","28","0","0","0","NA","0","0","2","0","0","0","2","28","28","28","28","28","Sat Nov 11 21:59:16 2017","Forced-choice identification task with a practice and an experimental phase","yes","NAP_GER_AA_4blocks_noglides.osexp","/Users/aviadalbert/Documents/Academisch/UoC/Dissertation/Experiment/OpenSesame/NAP-FC/NAP_GER_AA_4blocks_noglides","yes","no","sans","no","20","no","black","no","Weiter","yes","768","legacy","18","9","0","/Users/aviadalbert/Documents/Academisch/UoC/Dissertation/Experiment/OpenSesame/NAP-FC/NAP_GER_AA_4blocks_noglides/subject-51.csv","xpyriment","Jazzy James","3.1.9","yes","yes","59a800d99ad5a1025d81bb03","59a801616c613b0251691de0","no","no","0","f","f","space","NA","space","space","f","2060","3276","61043","NA","32815","7464","2060","2","legacy","1024","1","44100","-16","experiment","nemal","3","0","0","0","1","Englisch","51","","odd","9765810","9704247","NA","NA","9769087","9765806","NA","9531773","9765346","9531774","9531773","9625411","9658231","9827341","9825836","9829402","9669660","9665986","9704246","NA","9558095","9614008","9702592","9665765","9765810","9665989","NA","9827340","9827341","NA","NA","9825832","NAP perception","16","26570","19","yes","1024"
"85","yes","85","1378.1","1378.1","white","no","xpyriment","Ich habe die obigen Informationen gelesen und verstanden.","legacy","legacy","0","uniform","1","0","0","undefined","undefined","1","j","2","1","NA","0","1","0","0","0","0","0","0","0","0","29","29","29","0","0","0","NA","0","0","2","0","0","0","2","29","29","29","29","29","Sat Nov 11 21:59:16 2017","Forced-choice identification task with a practice and an experimental phase","yes","NAP_GER_AA_4blocks_noglides.osexp","/Users/aviadalbert/Documents/Academisch/UoC/Dissertation/Experiment/OpenSesame/NAP-FC/NAP_GER_AA_4blocks_noglides","yes","no","sans","no","20","no","black","no","Weiter","yes","768","legacy","19","9","0","/Users/aviadalbert/Documents/Academisch/UoC/Dissertation/Experiment/OpenSesame/NAP-FC/NAP_GER_AA_4blocks_noglides/subject-51.csv","xpyriment","Jazzy James","3.1.9","yes","yes","59a800d99ad5a1025d81bb03","59a801616c613b0251691de0","no","no","0","j","f","space","NA","space","space","j","992","3276","61043","NA","32815","7464","992","2","legacy","1024","1","44100","-16","experiment","leval","3","0","0","0","1","Englisch","51","","odd","9765810","9704247","NA","NA","9769087","9765806","NA","9531773","9765346","9531774","9531773","9625411","9658231","9831179","9829674","9832172","9669660","9665986","9704246","NA","9558095","9614008","9702592","9665765","9765810","9665989","NA","9831178","9831178","NA","NA","9829670","NAP perception","17","27562","20","yes","1024"
"80.9523809524","yes","80.9523809524","1421.0952381","1421.0952381","white","no","xpyriment","Ich habe die obigen Informationen gelesen und verstanden.","legacy","legacy","0","uniform","0","0","0","undefined","undefined","0","j","2","1","NA","0","1","0","0","0","0","0","0","0","0","30","30","30","0","0","0","NA","0","0","2","0","0","0","2","30","30","30","30","30","Sat Nov 11 21:59:16 2017","Forced-choice identification task with a practice and an experimental phase","yes","NAP_GER_AA_4blocks_noglides.osexp","/Users/aviadalbert/Documents/Academisch/UoC/Dissertation/Experiment/OpenSesame/NAP-FC/NAP_GER_AA_4blocks_noglides","yes","no","sans","no","20","no","black","no","Weiter","yes","768","legacy","20","9","0","/Users/aviadalbert/Documents/Academisch/UoC/Dissertation/Experiment/OpenSesame/NAP-FC/NAP_GER_AA_4blocks_noglides/subject-51.csv","xpyriment","Jazzy James","3.1.9","yes","yes","59a800d99ad5a1025d81bb03","59a801616c613b0251691de0","no","no","0","f","f","space","NA","space","space","f","2281","3276","61043","NA","32815","7464","2281","2","legacy","1024","1","44100","-16","experiment","ezval","3","0","0","0","1","Englisch","51","","odd","9765810","9704247","NA","NA","9769087","9765806","NA","9531773","9765346","9531774","9531773","9625411","9658231","9833947","9832438","9836229","9669660","9665986","9704246","NA","9558095","9614008","9702592","9665765","9765810","9665989","NA","9833946","9833946","NA","NA","9832434","NAP perception","17","29843","21","yes","1024"
"81.8181818182","yes","81.8181818182","1410.63636364","1410.63636364","white","no","xpyriment","Ich habe die obigen Informationen gelesen und verstanden.","legacy","legacy","0","uniform","1","0","0","undefined","undefined","1","j","2","1","NA","0","1","0","0","0","0","0","0","0","0","31","31","31","0","0","0","NA","0","0","2","0","0","0","2","31","31","31","31","31","Sat Nov 11 21:59:16 2017","Forced-choice identification task with a practice and an experimental phase","yes","NAP_GER_AA_4blocks_noglides.osexp","/Users/aviadalbert/Documents/Academisch/UoC/Dissertation/Experiment/OpenSesame/NAP-FC/NAP_GER_AA_4blocks_noglides","yes","no","sans","no","20","no","black","no","Weiter","yes","768","legacy","21","9","0","/Users/aviadalbert/Documents/Academisch/UoC/Dissertation/Experiment/OpenSesame/NAP-FC/NAP_GER_AA_4blocks_noglides/subject-51.csv","xpyriment","Jazzy James","3.1.9","yes","yes","59a800d99ad5a1025d81bb03","59a801616c613b0251691de0","no","no","0","j","f","space","NA","space","space","j","1191","3276","61043","NA","32815","7464","1191","2","legacy","1024","1","44100","-16","experiment","espal","3","0","0","0","1","Englisch","51","","odd","9765810","9704247","NA","NA","9769087","9765806","NA","9531773","9765346","9531774","9531773","9625411","9658231","9837993","9836488","9839186","9669660","9665986","9704246","NA","9558095","9614008","9702592","9665765","9765810","9665989","NA","9837993","9837993","NA","NA","9836484","NAP perception","18","31034","22","yes","1024"
"82.6086956522","yes","82.6086956522","1391.69565217","1391.69565217","white","no","xpyriment","Ich habe die obigen Informationen gelesen und verstanden.","legacy","legacy","0","uniform","1","0","0","undefined","undefined","1","f","2","1","NA","0","1","0","0","0","0","0","0","0","0","32","32","32","0","0","0","NA","0","0","2","0","0","0","2","32","32","32","32","32","Sat Nov 11 21:59:16 2017","Forced-choice identification task with a practice and an experimental phase","yes","NAP_GER_AA_4blocks_noglides.osexp","/Users/aviadalbert/Documents/Academisch/UoC/Dissertation/Experiment/OpenSesame/NAP-FC/NAP_GER_AA_4blocks_noglides","yes","no","sans","no","20","no","black","no","Weiter","yes","768","legacy","22","9","0","/Users/aviadalbert/Documents/Academisch/UoC/Dissertation/Experiment/OpenSesame/NAP-FC/NAP_GER_AA_4blocks_noglides/subject-51.csv","xpyriment","Jazzy James","3.1.9","yes","yes","59a800d99ad5a1025d81bb03","59a801616c613b0251691de0","no","no","0","f","f","space","NA","space","space","f","975","3276","61043","NA","32815","7464","975","2","legacy","1024","1","44100","-16","experiment","ftal","3","0","0","0","1","Englisch","51","","odd","9765810","9704247","NA","NA","9769087","9765806","NA","9531773","9765346","9531774","9531773","9625411","9658231","9840959","9839451","9841935","9669660","9665986","9704246","NA","9558095","9614008","9702592","9665765","9765810","9665989","NA","9840959","9840959","NA","NA","9839447","NAP perception","19","32009","23","yes","1024"
"83.3333333333","yes","83.3333333333","1380.04166667","1380.04166667","white","no","xpyriment","Ich habe die obigen Informationen gelesen und verstanden.","legacy","legacy","0","uniform","1","0","0","undefined","undefined","1","j","2","1","NA","0","1","0","0","0","0","0","0","0","0","33","33","33","0","0","0","NA","0","0","2","0","0","0","2","33","33","33","33","33","Sat Nov 11 21:59:16 2017","Forced-choice identification task with a practice and an experimental phase","yes","NAP_GER_AA_4blocks_noglides.osexp","/Users/aviadalbert/Documents/Academisch/UoC/Dissertation/Experiment/OpenSesame/NAP-FC/NAP_GER_AA_4blocks_noglides","yes","no","sans","no","20","no","black","no","Weiter","yes","768","legacy","23","9","0","/Users/aviadalbert/Documents/Academisch/UoC/Dissertation/Experiment/OpenSesame/NAP-FC/NAP_GER_AA_4blocks_noglides/subject-51.csv","xpyriment","Jazzy James","3.1.9","yes","yes","59a800d99ad5a1025d81bb03","59a801616c613b0251691de0","no","no","0","j","f","space","NA","space","space","j","1112","3276","61043","NA","32815","7464","1112","2","legacy","1024","1","44100","-16","experiment","lepal","3","0","0","0","1","Englisch","51","","odd","9765810","9704247","NA","NA","9769087","9765806","NA","9531773","9765346","9531774","9531773","9625411","9658231","9843716","9842211","9844829","9669660","9665986","9704246","NA","9558095","9614008","9702592","9665765","9765810","9665989","NA","9843715","9843715","NA","NA","9842207","NAP perception","20","33121","24","yes","1024"
"84","yes","84","1358.84","1358.84","white","no","xpyriment","Ich habe die obigen Informationen gelesen und verstanden.","legacy","legacy","0","uniform","1","0","0","undefined","undefined","1","f","2","1","NA","0","1","0","0","0","0","0","0","0","0","34","34","34","0","0","0","NA","0","0","2","0","0","0","2","34","34","34","34","34","Sat Nov 11 21:59:16 2017","Forced-choice identification task with a practice and an experimental phase","yes","NAP_GER_AA_4blocks_noglides.osexp","/Users/aviadalbert/Documents/Academisch/UoC/Dissertation/Experiment/OpenSesame/NAP-FC/NAP_GER_AA_4blocks_noglides","yes","no","sans","no","20","no","black","no","Weiter","yes","768","legacy","24","9","0","/Users/aviadalbert/Documents/Academisch/UoC/Dissertation/Experiment/OpenSesame/NAP-FC/NAP_GER_AA_4blocks_noglides/subject-51.csv","xpyriment","Jazzy James","3.1.9","yes","yes","59a800d99ad5a1025d81bb03","59a801616c613b0251691de0","no","no","0","f","f","space","NA","space","space","f","850","3276","61043","NA","32815","7464","850","2","legacy","1024","1","44100","-16","experiment","sfal","3","0","0","0","1","Englisch","51","","odd","9765810","9704247","NA","NA","9769087","9765806","NA","9531773","9765346","9531774","9531773","9625411","9658231","9846615","9845111","9847466","9669660","9665986","9704246","NA","9558095","9614008","9702592","9665765","9765810","9665989","NA","9846614","9846614","NA","NA","9845106","NAP perception","21","33971","25","yes","1024"
"80.7692307692","yes","80.7692307692","1352.5","1352.5","white","no","xpyriment","Ich habe die obigen Informationen gelesen und verstanden.","legacy","legacy","0","uniform","0","0","0","undefined","undefined","0","f","2","1","NA","0","1","0","0","0","0","0","0","0","0","35","35","35","0","0","0","NA","0","0","2","0","0","0","2","35","35","35","35","35","Sat Nov 11 21:59:16 2017","Forced-choice identification task with a practice and an experimental phase","yes","NAP_GER_AA_4blocks_noglides.osexp","/Users/aviadalbert/Documents/Academisch/UoC/Dissertation/Experiment/OpenSesame/NAP-FC/NAP_GER_AA_4blocks_noglides","yes","no","sans","no","20","no","black","no","Weiter","yes","768","legacy","25","9","0","/Users/aviadalbert/Documents/Academisch/UoC/Dissertation/Experiment/OpenSesame/NAP-FC/NAP_GER_AA_4blocks_noglides/subject-51.csv","xpyriment","Jazzy James","3.1.9","yes","yes","59a800d99ad5a1025d81bb03","59a801616c613b0251691de0","no","no","0","j","f","space","NA","space","space","j","1194","3276","61043","NA","32815","7464","1194","2","legacy","1024","1","44100","-16","experiment","mtal","3","0","0","0","1","Englisch","51","","odd","9765810","9704247","NA","NA","9769087","9765806","NA","9531773","9765346","9531774","9531773","9625411","9658231","9849241","9847737","9850436","9669660","9665986","9704246","NA","9558095","9614008","9702592","9665765","9765810","9665989","NA","9849240","9849240","NA","NA","9847732","NAP perception","21","35165","26","yes","1024"
"81.4814814815","yes","81.4814814815","1345.22222222","1345.22222222","white","no","xpyriment","Ich habe die obigen Informationen gelesen und verstanden.","legacy","legacy","0","uniform","1","0","0","undefined","undefined","1","f","2","1","NA","0","1","0","0","0","0","0","0","0","0","36","36","36","0","0","0","NA","0","0","2","0","0","0","2","36","36","36","36","36","Sat Nov 11 21:59:16 2017","Forced-choice identification task with a practice and an experimental phase","yes","NAP_GER_AA_4blocks_noglides.osexp","/Users/aviadalbert/Documents/Academisch/UoC/Dissertation/Experiment/OpenSesame/NAP-FC/NAP_GER_AA_4blocks_noglides","yes","no","sans","no","20","no","black","no","Weiter","yes","768","legacy","26","9","0","/Users/aviadalbert/Documents/Academisch/UoC/Dissertation/Experiment/OpenSesame/NAP-FC/NAP_GER_AA_4blocks_noglides/subject-51.csv","xpyriment","Jazzy James","3.1.9","yes","yes","59a800d99ad5a1025d81bb03","59a801616c613b0251691de0","no","no","0","f","f","space","NA","space","space","f","1156","3276","61043","NA","32815","7464","1156","2","legacy","1024","1","44100","-16","experiment","sfal","3","0","0","0","1","Englisch","51","","odd","9765810","9704247","NA","NA","9769087","9765806","NA","9531773","9765346","9531774","9531773","9625411","9658231","9852211","9850707","9853368","9669660","9665986","9704246","NA","9558095","9614008","9702592","9665765","9765810","9665989","NA","9852210","9852210","NA","NA","9850703","NAP perception","22","36321","27","yes","1024"
"78.5714285714","yes","78.5714285714","1377.14285714","1377.14285714","white","no","xpyriment","Ich habe die obigen Informationen gelesen und verstanden.","legacy","legacy","0","uniform","0","0","0","undefined","undefined","0","f","2","1","NA","0","1","0","0","0","0","0","0","0","0","37","37","37","0","0","0","NA","0","0","2","0","0","0","2","37","37","37","37","37","Sat Nov 11 21:59:16 2017","Forced-choice identification task with a practice and an experimental phase","yes","NAP_GER_AA_4blocks_noglides.osexp","/Users/aviadalbert/Documents/Academisch/UoC/Dissertation/Experiment/OpenSesame/NAP-FC/NAP_GER_AA_4blocks_noglides","yes","no","sans","no","20","no","black","no","Weiter","yes","768","legacy","27","9","0","/Users/aviadalbert/Documents/Academisch/UoC/Dissertation/Experiment/OpenSesame/NAP-FC/NAP_GER_AA_4blocks_noglides/subject-51.csv","xpyriment","Jazzy James","3.1.9","yes","yes","59a800d99ad5a1025d81bb03","59a801616c613b0251691de0","no","no","0","j","f","space","NA","space","space","j","2239","3276","61043","NA","32815","7464","2239","2","legacy","1024","1","44100","-16","experiment","mlal","3","0","0","0","1","Englisch","51","","odd","9765810","9704247","NA","NA","9769087","9765806","NA","9531773","9765346","9531774","9531773","9625411","9658231","9855136","9853631","9857377","9669660","9665986","9704246","NA","9558095","9614008","9702592","9665765","9765810","9665989","NA","9855135","9855135","NA","NA","9853627","NAP perception","22","38560","28","yes","1024"
"79.3103448276","yes","79.3103448276","1363","1363","white","no","xpyriment","Ich habe die obigen Informationen gelesen und verstanden.","legacy","legacy","0","uniform","1","0","0","undefined","undefined","1","j","2","1","NA","0","1","0","0","0","0","0","0","0","0","38","38","38","0","0","0","NA","0","0","2","0","0","0","2","38","38","38","38","38","Sat Nov 11 21:59:16 2017","Forced-choice identification task with a practice and an experimental phase","yes","NAP_GER_AA_4blocks_noglides.osexp","/Users/aviadalbert/Documents/Academisch/UoC/Dissertation/Experiment/OpenSesame/NAP-FC/NAP_GER_AA_4blocks_noglides","yes","no","sans","no","20","no","black","no","Weiter","yes","768","legacy","28","9","0","/Users/aviadalbert/Documents/Academisch/UoC/Dissertation/Experiment/OpenSesame/NAP-FC/NAP_GER_AA_4blocks_noglides/subject-51.csv","xpyriment","Jazzy James","3.1.9","yes","yes","59a800d99ad5a1025d81bb03","59a801616c613b0251691de0","no","no","0","j","f","space","NA","space","space","j","967","3276","61043","NA","32815","7464","967","2","legacy","1024","1","44100","-16","experiment","ʃefal","3","0","0","0","1","Englisch","51","","odd","9765810","9704247","NA","NA","9769087","9765806","NA","9531773","9765346","9531774","9531773","9625411","9658231","9859147","9857643","9860116","9669660","9665986","9704246","NA","9558095","9614008","9702592","9665765","9765810","9665989","NA","9859147","9859147","NA","NA","9857639","NAP perception","23","39527","29","yes","1024"
"80","yes","80","1379.8","1379.8","white","no","xpyriment","Ich habe die obigen Informationen gelesen und verstanden.","legacy","legacy","0","uniform","1","0","0","undefined","undefined","1","f","2","1","NA","0","1","0","0","0","0","0","0","0","0","39","39","39","0","0","0","NA","0","0","2","0","0","0","2","39","39","39","39","39","Sat Nov 11 21:59:16 2017","Forced-choice identification task with a practice and an experimental phase","yes","NAP_GER_AA_4blocks_noglides.osexp","/Users/aviadalbert/Documents/Academisch/UoC/Dissertation/Experiment/OpenSesame/NAP-FC/NAP_GER_AA_4blocks_noglides","yes","no","sans","no","20","no","black","no","Weiter","yes","768","legacy","29","9","0","/Users/aviadalbert/Documents/Academisch/UoC/Dissertation/Experiment/OpenSesame/NAP-FC/NAP_GER_AA_4blocks_noglides/subject-51.csv","xpyriment","Jazzy James","3.1.9","yes","yes","59a800d99ad5a1025d81bb03","59a801616c613b0251691de0","no","no","0","f","f","space","NA","space","space","f","1867","3276","61043","NA","32815","7464","1867","2","legacy","1024","1","44100","-16","experiment","vzal","3","0","0","0","1","Englisch","51","","odd","9765810","9704247","NA","NA","9769087","9765806","NA","9531773","9765346","9531774","9531773","9625411","9658231","9861884","9860379","9863752","9669660","9665986","9704246","NA","9558095","9614008","9702592","9665765","9765810","9665989","NA","9861884","9861884","NA","NA","9860374","NAP perception","24","41394","30","yes","1024"
"80.6451612903","yes","80.6451612903","1405.80645161","1405.80645161","white","no","xpyriment","Ich habe die obigen Informationen gelesen und verstanden.","legacy","legacy","0","uniform","1","0","0","undefined","undefined","1","f","2","1","NA","0","1","0","0","0","0","0","0","0","0","40","40","40","0","0","0","NA","0","0","2","0","0","0","2","40","40","40","40","40","Sat Nov 11 21:59:16 2017","Forced-choice identification task with a practice and an experimental phase","yes","NAP_GER_AA_4blocks_noglides.osexp","/Users/aviadalbert/Documents/Academisch/UoC/Dissertation/Experiment/OpenSesame/NAP-FC/NAP_GER_AA_4blocks_noglides","yes","no","sans","no","20","no","black","no","Weiter","yes","768","legacy","30","9","0","/Users/aviadalbert/Documents/Academisch/UoC/Dissertation/Experiment/OpenSesame/NAP-FC/NAP_GER_AA_4blocks_noglides/subject-51.csv","xpyriment","Jazzy James","3.1.9","yes","yes","59a800d99ad5a1025d81bb03","59a801616c613b0251691de0","no","no","0","f","f","space","NA","space","space","f","2186","3276","61043","NA","32815","7464","2186","2","legacy","1024","1","44100","-16","experiment","nmal","3","0","0","0","1","Englisch","51","","odd","9765810","9704247","NA","NA","9769087","9765806","NA","9531773","9765346","9531774","9531773","9625411","9658231","9865532","9864024","9867719","9669660","9665986","9704246","NA","9558095","9614008","9702592","9665765","9765810","9665989","NA","9865532","9865532","NA","NA","9864020","NAP perception","25","43580","31","yes","1024"
"81.25","yes","81.25","1390.3125","1390.3125","white","no","xpyriment","Ich habe die obigen Informationen gelesen und verstanden.","legacy","legacy","0","uniform","1","0","0","undefined","undefined","1","f","2","1","NA","0","1","0","0","0","0","0","0","0","0","41","41","41","0","0","0","NA","0","0","2","0","0","0","2","41","41","41","41","41","Sat Nov 11 21:59:16 2017","Forced-choice identification task with a practice and an experimental phase","yes","NAP_GER_AA_4blocks_noglides.osexp","/Users/aviadalbert/Documents/Academisch/UoC/Dissertation/Experiment/OpenSesame/NAP-FC/NAP_GER_AA_4blocks_noglides","yes","no","sans","no","20","no","black","no","Weiter","yes","768","legacy","31","9","0","/Users/aviadalbert/Documents/Academisch/UoC/Dissertation/Experiment/OpenSesame/NAP-FC/NAP_GER_AA_4blocks_noglides/subject-51.csv","xpyriment","Jazzy James","3.1.9","yes","yes","59a800d99ad5a1025d81bb03","59a801616c613b0251691de0","no","no","0","f","f","space","NA","space","space","f","910","3276","61043","NA","32815","7464","910","2","legacy","1024","1","44100","-16","experiment","smal","3","0","0","0","1","Englisch","51","","odd","9765810","9704247","NA","NA","9769087","9765806","NA","9531773","9765346","9531774","9531773","9625411","9658231","9869491","9867987","9870402","9669660","9665986","9704246","NA","9558095","9614008","9702592","9665765","9765810","9665989","NA","9869490","9869490","NA","NA","9867983","NAP perception","26","44490","32","yes","1024"
"78.7878787879","yes","78.7878787879","1412.33333333","1412.33333333","white","no","xpyriment","Ich habe die obigen Informationen gelesen und verstanden.","legacy","legacy","0","uniform","0","0","0","undefined","undefined","0","f","2","1","NA","0","1","0","0","0","0","0","0","0","0","42","42","42","0","0","0","NA","0","0","2","0","0","0","2","42","42","42","42","42","Sat Nov 11 21:59:16 2017","Forced-choice identification task with a practice and an experimental phase","yes","NAP_GER_AA_4blocks_noglides.osexp","/Users/aviadalbert/Documents/Academisch/UoC/Dissertation/Experiment/OpenSesame/NAP-FC/NAP_GER_AA_4blocks_noglides","yes","no","sans","no","20","no","black","no","Weiter","yes","768","legacy","32","9","0","/Users/aviadalbert/Documents/Academisch/UoC/Dissertation/Experiment/OpenSesame/NAP-FC/NAP_GER_AA_4blocks_noglides/subject-51.csv","xpyriment","Jazzy James","3.1.9","yes","yes","59a800d99ad5a1025d81bb03","59a801616c613b0251691de0","no","no","0","j","f","space","NA","space","space","j","2117","3276","61043","NA","32815","7464","2117","2","legacy","1024","1","44100","-16","experiment","nval","3","0","0","0","1","Englisch","51","","odd","9765810","9704247","NA","NA","9769087","9765806","NA","9531773","9765346","9531774","9531773","9625411","9658231","9872179","9870675","9874297","9669660","9665986","9704246","NA","9558095","9614008","9702592","9665765","9765810","9665989","NA","9872179","9872179","NA","NA","9870671","NAP perception","26","46607","33","yes","1024"
"76.4705882353","yes","76.4705882353","1412.94117647","1412.94117647","white","no","xpyriment","Ich habe die obigen Informationen gelesen und verstanden.","legacy","legacy","0","uniform","0","0","0","undefined","undefined","0","f","2","1","NA","0","1","0","0","0","0","0","0","0","0","43","43","43","0","0","0","NA","0","0","2","0","0","0","2","43","43","43","43","43","Sat Nov 11 21:59:16 2017","Forced-choice identification task with a practice and an experimental phase","yes","NAP_GER_AA_4blocks_noglides.osexp","/Users/aviadalbert/Documents/Academisch/UoC/Dissertation/Experiment/OpenSesame/NAP-FC/NAP_GER_AA_4blocks_noglides","yes","no","sans","no","20","no","black","no","Weiter","yes","768","legacy","33","9","0","/Users/aviadalbert/Documents/Academisch/UoC/Dissertation/Experiment/OpenSesame/NAP-FC/NAP_GER_AA_4blocks_noglides/subject-51.csv","xpyriment","Jazzy James","3.1.9","yes","yes","59a800d99ad5a1025d81bb03","59a801616c613b0251691de0","no","no","0","j","f","space","NA","space","space","j","1433","3276","61043","NA","32815","7464","1433","2","legacy","1024","1","44100","-16","experiment","ʃpal","3","0","0","0","1","Englisch","51","","odd","9765810","9704247","NA","NA","9769087","9765806","NA","9531773","9765346","9531774","9531773","9625411","9658231","9876083","9874577","9877517","9669660","9665986","9704246","NA","9558095","9614008","9702592","9665765","9765810","9665989","NA","9876083","9876083","NA","NA","9874573","NAP perception","26","48040","34","yes","1024"
"77.1428571429","yes","77.1428571429","1399.37142857","1399.37142857","white","no","xpyriment","Ich habe die obigen Informationen gelesen und verstanden.","legacy","legacy","0","uniform","1","0","0","undefined","undefined","1","j","2","1","NA","0","1","0","0","0","0","0","0","0","0","44","44","44","0","0","0","NA","0","0","2","0","0","0","2","44","44","44","44","44","Sat Nov 11 21:59:16 2017","Forced-choice identification task with a practice and an experimental phase","yes","NAP_GER_AA_4blocks_noglides.osexp","/Users/aviadalbert/Documents/Academisch/UoC/Dissertation/Experiment/OpenSesame/NAP-FC/NAP_GER_AA_4blocks_noglides","yes","no","sans","no","20","no","black","no","Weiter","yes","768","legacy","34","9","0","/Users/aviadalbert/Documents/Academisch/UoC/Dissertation/Experiment/OpenSesame/NAP-FC/NAP_GER_AA_4blocks_noglides/subject-51.csv","xpyriment","Jazzy James","3.1.9","yes","yes","59a800d99ad5a1025d81bb03","59a801616c613b0251691de0","no","no","0","j","f","space","NA","space","space","j","938","3276","61043","NA","32815","7464","938","2","legacy","1024","1","44100","-16","experiment","nefal","3","0","0","0","1","Englisch","51","","odd","9765810","9704247","NA","NA","9769087","9765806","NA","9531773","9765346","9531774","9531773","9625411","9658231","9879286","9877783","9880225","9669660","9665986","9704246","NA","9558095","9614008","9702592","9665765","9765810","9665989","NA","9879286","9879286","NA","NA","9877777","NAP perception","27","48978","35","yes","1024"
"75","yes","75","1390.91666667","1390.91666667","white","no","xpyriment","Ich habe die obigen Informationen gelesen und verstanden.","legacy","legacy","0","uniform","0","0","0","undefined","undefined","0","f","2","1","NA","0","1","0","0","0","0","0","0","0","0","45","45","45","0","0","0","NA","0","0","2","0","0","0","2","45","45","45","45","45","Sat Nov 11 21:59:16 2017","Forced-choice identification task with a practice and an experimental phase","yes","NAP_GER_AA_4blocks_noglides.osexp","/Users/aviadalbert/Documents/Academisch/UoC/Dissertation/Experiment/OpenSesame/NAP-FC/NAP_GER_AA_4blocks_noglides","yes","no","sans","no","20","no","black","no","Weiter","yes","768","legacy","35","9","0","/Users/aviadalbert/Documents/Academisch/UoC/Dissertation/Experiment/OpenSesame/NAP-FC/NAP_GER_AA_4blocks_noglides/subject-51.csv","xpyriment","Jazzy James","3.1.9","yes","yes","59a800d99ad5a1025d81bb03","59a801616c613b0251691de0","no","no","0","j","f","space","NA","space","space","j","1095","3276","61043","NA","32815","7464","1095","2","legacy","1024","1","44100","-16","experiment","msal","3","0","0","0","1","Englisch","51","","odd","9765810","9704247","NA","NA","9769087","9765806","NA","9531773","9765346","9531774","9531773","9625411","9658231","9882002","9880495","9883099","9669660","9665986","9704246","NA","9558095","9614008","9702592","9665765","9765810","9665989","NA","9882002","9882002","NA","NA","9880491","NAP perception","27","50073","36","yes","1024"
"72.972972973","yes","72.972972973","1410.35135135","1410.35135135","white","no","xpyriment","Ich habe die obigen Informationen gelesen und verstanden.","legacy","legacy","0","uniform","0","0","0","undefined","undefined","0","f","2","1","NA","0","1","0","0","0","0","0","0","0","0","46","46","46","0","0","0","NA","0","0","2","0","0","0","2","46","46","46","46","46","Sat Nov 11 21:59:16 2017","Forced-choice identification task with a practice and an experimental phase","yes","NAP_GER_AA_4blocks_noglides.osexp","/Users/aviadalbert/Documents/Academisch/UoC/Dissertation/Experiment/OpenSesame/NAP-FC/NAP_GER_AA_4blocks_noglides","yes","no","sans","no","20","no","black","no","Weiter","yes","768","legacy","36","9","0","/Users/aviadalbert/Documents/Academisch/UoC/Dissertation/Experiment/OpenSesame/NAP-FC/NAP_GER_AA_4blocks_noglides/subject-51.csv","xpyriment","Jazzy James","3.1.9","yes","yes","59a800d99ad5a1025d81bb03","59a801616c613b0251691de0","no","no","0","j","f","space","NA","space","space","j","2110","3276","61043","NA","32815","7464","2110","2","legacy","1024","1","44100","-16","experiment","ʃmal","3","0","0","0","1","Englisch","51","","odd","9765810","9704247","NA","NA","9769087","9765806","NA","9531773","9765346","9531774","9531773","9625411","9658231","9884882","9883376","9886994","9669660","9665986","9704246","NA","9558095","9614008","9702592","9665765","9765810","9665989","NA","9884882","9884882","NA","NA","9883371","NAP perception","27","52183","37","yes","1024"
"73.6842105263","yes","73.6842105263","1418.78947368","1418.78947368","white","no","xpyriment","Ich habe die obigen Informationen gelesen und verstanden.","legacy","legacy","0","uniform","1","0","0","undefined","undefined","1","j","2","1","NA","0","1","0","0","0","0","0","0","0","0","47","47","47","0","0","0","NA","0","0","2","0","0","0","2","47","47","47","47","47","Sat Nov 11 21:59:16 2017","Forced-choice identification task with a practice and an experimental phase","yes","NAP_GER_AA_4blocks_noglides.osexp","/Users/aviadalbert/Documents/Academisch/UoC/Dissertation/Experiment/OpenSesame/NAP-FC/NAP_GER_AA_4blocks_noglides","yes","no","sans","no","20","no","black","no","Weiter","yes","768","legacy","37","9","0","/Users/aviadalbert/Documents/Academisch/UoC/Dissertation/Experiment/OpenSesame/NAP-FC/NAP_GER_AA_4blocks_noglides/subject-51.csv","xpyriment","Jazzy James","3.1.9","yes","yes","59a800d99ad5a1025d81bb03","59a801616c613b0251691de0","no","no","0","j","f","space","NA","space","space","j","1731","3276","61043","NA","32815","7464","1731","2","legacy","1024","1","44100","-16","experiment","elpal","3","0","0","0","1","Englisch","51","","odd","9765810","9704247","NA","NA","9769087","9765806","NA","9531773","9765346","9531774","9531773","9625411","9658231","9888784","9887277","9890517","9669660","9665986","9704246","NA","9558095","9614008","9702592","9665765","9765810","9665989","NA","9888783","9888783","NA","NA","9887273","NAP perception","28","53914","38","yes","1024"
"74.358974359","yes","74.358974359","1407.97435897","1407.97435897","white","no","xpyriment","Ich habe die obigen Informationen gelesen und verstanden.","legacy","legacy","0","uniform","1","0","0","undefined","undefined","1","j","2","1","NA","0","1","0","0","0","0","0","0","0","0","48","48","48","0","0","0","NA","0","0","2","0","0","0","2","48","48","48","48","48","Sat Nov 11 21:59:16 2017","Forced-choice identification task with a practice and an experimental phase","yes","NAP_GER_AA_4blocks_noglides.osexp","/Users/aviadalbert/Documents/Academisch/UoC/Dissertation/Experiment/OpenSesame/NAP-FC/NAP_GER_AA_4blocks_noglides","yes","no","sans","no","20","no","black","no","Weiter","yes","768","legacy","38","9","0","/Users/aviadalbert/Documents/Academisch/UoC/Dissertation/Experiment/OpenSesame/NAP-FC/NAP_GER_AA_4blocks_noglides/subject-51.csv","xpyriment","Jazzy James","3.1.9","yes","yes","59a800d99ad5a1025d81bb03","59a801616c613b0251691de0","no","no","0","j","f","space","NA","space","space","j","997","3276","61043","NA","32815","7464","997","2","legacy","1024","1","44100","-16","experiment","elfal","3","0","0","0","1","Englisch","51","","odd","9765810","9704247","NA","NA","9769087","9765806","NA","9531773","9765346","9531774","9531773","9625411","9658231","9892294","9890790","9893293","9669660","9665986","9704246","NA","9558095","9614008","9702592","9665765","9765810","9665989","NA","9892293","9892294","NA","NA","9890786","NAP perception","29","54911","39","yes","1024"
"75","yes","75","1404.825","1404.825","white","no","xpyriment","Ich habe die obigen Informationen gelesen und verstanden.","legacy","legacy","0","uniform","1","0","0","undefined","undefined","1","j","2","1","NA","0","1","0","0","0","0","0","0","0","0","49","49","49","0","0","0","NA","0","0","2","0","0","0","2","49","49","49","49","49","Sat Nov 11 21:59:16 2017","Forced-choice identification task with a practice and an experimental phase","yes","NAP_GER_AA_4blocks_noglides.osexp","/Users/aviadalbert/Documents/Academisch/UoC/Dissertation/Experiment/OpenSesame/NAP-FC/NAP_GER_AA_4blocks_noglides","yes","no","sans","no","20","no","black","no","Weiter","yes","768","legacy","39","9","0","/Users/aviadalbert/Documents/Academisch/UoC/Dissertation/Experiment/OpenSesame/NAP-FC/NAP_GER_AA_4blocks_noglides/subject-51.csv","xpyriment","Jazzy James","3.1.9","yes","yes","59a800d99ad5a1025d81bb03","59a801616c613b0251691de0","no","no","0","j","f","space","NA","space","space","j","1282","3276","61043","NA","32815","7464","1282","2","legacy","1024","1","44100","-16","experiment","esfal","3","0","0","0","1","Englisch","51","","odd","9765810","9704247","NA","NA","9769087","9765806","NA","9531773","9765346","9531774","9531773","9625411","9658231","9895079","9893575","9896363","9669660","9665986","9704246","NA","9558095","9614008","9702592","9665765","9765810","9665989","NA","9895079","9895079","NA","NA","9893571","NAP perception","30","56193","40","yes","1024"
"73.1707317073","yes","73.1707317073","1417.19512195","1417.19512195","white","no","xpyriment","Ich habe die obigen Informationen gelesen und verstanden.","legacy","legacy","0","uniform","0","0","0","undefined","undefined","0","f","2","1","NA","0","1","0","0","0","0","0","0","0","0","50","50","50","0","0","0","NA","0","0","2","0","0","0","2","50","50","50","50","50","Sat Nov 11 21:59:16 2017","Forced-choice identification task with a practice and an experimental phase","yes","NAP_GER_AA_4blocks_noglides.osexp","/Users/aviadalbert/Documents/Academisch/UoC/Dissertation/Experiment/OpenSesame/NAP-FC/NAP_GER_AA_4blocks_noglides","yes","no","sans","no","20","no","black","no","Weiter","yes","768","legacy","40","9","0","/Users/aviadalbert/Documents/Academisch/UoC/Dissertation/Experiment/OpenSesame/NAP-FC/NAP_GER_AA_4blocks_noglides/subject-51.csv","xpyriment","Jazzy James","3.1.9","yes","yes","59a800d99ad5a1025d81bb03","59a801616c613b0251691de0","no","no","0","j","f","space","NA","space","space","j","1912","3276","61043","NA","32815","7464","1912","2","legacy","1024","1","44100","-16","experiment","lfal","3","0","0","0","1","Englisch","51","","odd","9765810","9704247","NA","NA","9769087","9765806","NA","9531773","9765346","9531774","9531773","9625411","9658231","9898141","9896637","9900055","9669660","9665986","9704246","NA","9558095","9614008","9702592","9665765","9765810","9665989","NA","9898141","9898141","NA","NA","9896633","NAP perception","30","58105","41","yes","1024"
"73.8095238095","yes","73.8095238095","1427.45238095","1427.45238095","white","no","xpyriment","Ich habe die obigen Informationen gelesen und verstanden.","legacy","legacy","0","uniform","1","0","0","undefined","undefined","1","f","2","1","NA","0","1","0","0","0","0","0","0","0","0","51","51","51","0","0","0","NA","0","0","2","0","0","0","2","51","51","51","51","51","Sat Nov 11 21:59:16 2017","Forced-choice identification task with a practice and an experimental phase","yes","NAP_GER_AA_4blocks_noglides.osexp","/Users/aviadalbert/Documents/Academisch/UoC/Dissertation/Experiment/OpenSesame/NAP-FC/NAP_GER_AA_4blocks_noglides","yes","no","sans","no","20","no","black","no","Weiter","yes","768","legacy","41","9","0","/Users/aviadalbert/Documents/Academisch/UoC/Dissertation/Experiment/OpenSesame/NAP-FC/NAP_GER_AA_4blocks_noglides/subject-51.csv","xpyriment","Jazzy James","3.1.9","yes","yes","59a800d99ad5a1025d81bb03","59a801616c613b0251691de0","no","no","0","f","f","space","NA","space","space","f","1848","3276","61043","NA","32815","7464","1848","2","legacy","1024","1","44100","-16","experiment","lpal","3","0","0","0","1","Englisch","51","","odd","9765810","9704247","NA","NA","9769087","9765806","NA","9531773","9765346","9531774","9531773","9625411","9658231","9901835","9900330","9903685","9669660","9665986","9704246","NA","9558095","9614008","9702592","9665765","9765810","9665989","NA","9901835","9901835","NA","NA","9900326","NAP perception","31","59953","42","yes","1024"
"74.4186046512","yes","74.4186046512","1418.25581395","1418.25581395","white","no","xpyriment","Ich habe die obigen Informationen gelesen und verstanden.","legacy","legacy","0","uniform","1","0","0","undefined","undefined","1","j","2","1","NA","0","1","0","0","0","0","0","0","0","0","52","52","52","0","0","0","NA","0","0","2","0","0","0","2","52","52","52","52","52","Sat Nov 11 21:59:16 2017","Forced-choice identification task with a practice and an experimental phase","yes","NAP_GER_AA_4blocks_noglides.osexp","/Users/aviadalbert/Documents/Academisch/UoC/Dissertation/Experiment/OpenSesame/NAP-FC/NAP_GER_AA_4blocks_noglides","yes","no","sans","no","20","no","black","no","Weiter","yes","768","legacy","42","9","0","/Users/aviadalbert/Documents/Academisch/UoC/Dissertation/Experiment/OpenSesame/NAP-FC/NAP_GER_AA_4blocks_noglides/subject-51.csv","xpyriment","Jazzy James","3.1.9","yes","yes","59a800d99ad5a1025d81bb03","59a801616c613b0251691de0","no","no","0","j","f","space","NA","space","space","j","1032","3276","61043","NA","32815","7464","1032","2","legacy","1024","1","44100","-16","experiment","lekal","3","0","0","0","1","Englisch","51","","odd","9765810","9704247","NA","NA","9769087","9765806","NA","9531773","9765346","9531774","9531773","9625411","9658231","9905461","9903955","9906495","9669660","9665986","9704246","NA","9558095","9614008","9702592","9665765","9765810","9665989","NA","9905461","9905461","NA","NA","9903951","NAP perception","32","60985","43","yes","1024"
"75","yes","75","1423.02272727","1423.02272727","white","no","xpyriment","Ich habe die obigen Informationen gelesen und verstanden.","legacy","legacy","0","uniform","1","0","0","undefined","undefined","1","j","2","1","NA","0","1","0","0","0","0","0","0","0","0","53","53","53","0","0","0","NA","0","0","2","0","0","0","2","53","53","53","53","53","Sat Nov 11 21:59:16 2017","Forced-choice identification task with a practice and an experimental phase","yes","NAP_GER_AA_4blocks_noglides.osexp","/Users/aviadalbert/Documents/Academisch/UoC/Dissertation/Experiment/OpenSesame/NAP-FC/NAP_GER_AA_4blocks_noglides","yes","no","sans","no","20","no","black","no","Weiter","yes","768","legacy","43","9","0","/Users/aviadalbert/Documents/Academisch/UoC/Dissertation/Experiment/OpenSesame/NAP-FC/NAP_GER_AA_4blocks_noglides/subject-51.csv","xpyriment","Jazzy James","3.1.9","yes","yes","59a800d99ad5a1025d81bb03","59a801616c613b0251691de0","no","no","0","j","f","space","NA","space","space","j","1628","3276","61043","NA","32815","7464","1628","2","legacy","1024","1","44100","-16","experiment","ezmal","3","0","0","0","1","Englisch","51","","odd","9765810","9704247","NA","NA","9769087","9765806","NA","9531773","9765346","9531774","9531773","9625411","9658231","9908284","9906780","9909915","9669660","9665986","9704246","NA","9558095","9614008","9702592","9665765","9765810","9665989","NA","9908284","9908284","NA","NA","9906774","NAP perception","33","62613","44","yes","1024"
"75.5555555556","yes","75.5555555556","1409.88888889","1409.88888889","white","no","xpyriment","Ich habe die obigen Informationen gelesen und verstanden.","legacy","legacy","0","uniform","1","0","0","undefined","undefined","1","f","2","1","NA","0","1","0","0","0","0","0","0","0","0","54","54","54","0","0","0","NA","0","0","2","0","0","0","2","54","54","54","54","54","Sat Nov 11 21:59:16 2017","Forced-choice identification task with a practice and an experimental phase","yes","NAP_GER_AA_4blocks_noglides.osexp","/Users/aviadalbert/Documents/Academisch/UoC/Dissertation/Experiment/OpenSesame/NAP-FC/NAP_GER_AA_4blocks_noglides","yes","no","sans","no","20","no","black","no","Weiter","yes","768","legacy","44","9","0","/Users/aviadalbert/Documents/Academisch/UoC/Dissertation/Experiment/OpenSesame/NAP-FC/NAP_GER_AA_4blocks_noglides/subject-51.csv","xpyriment","Jazzy James","3.1.9","yes","yes","59a800d99ad5a1025d81bb03","59a801616c613b0251691de0","no","no","0","f","f","space","NA","space","space","f","832","3276","61043","NA","32815","7464","832","2","legacy","1024","1","44100","-16","experiment","ʃmal","3","0","0","0","1","Englisch","51","","odd","9765810","9704247","NA","NA","9769087","9765806","NA","9531773","9765346","9531774","9531773","9625411","9658231","9911692","9910188","9912526","9669660","9665986","9704246","NA","9558095","9614008","9702592","9665765","9765810","9665989","NA","9911691","9911691","NA","NA","9910184","NAP perception","34","63445","45","yes","1024"
"76.0869565217","yes","76.0869565217","1405.13043478","1405.13043478","white","no","xpyriment","Ich habe die obigen Informationen gelesen und verstanden.","legacy","legacy","0","uniform","1","0","0","undefined","undefined","1","j","2","1","NA","0","1","0","0","0","0","0","0","0","0","55","55","55","0","0","0","NA","0","0","2","0","0","0","2","55","55","55","55","55","Sat Nov 11 21:59:16 2017","Forced-choice identification task with a practice and an experimental phase","yes","NAP_GER_AA_4blocks_noglides.osexp","/Users/aviadalbert/Documents/Academisch/UoC/Dissertation/Experiment/OpenSesame/NAP-FC/NAP_GER_AA_4blocks_noglides","yes","no","sans","no","20","no","black","no","Weiter","yes","768","legacy","45","9","0","/Users/aviadalbert/Documents/Academisch/UoC/Dissertation/Experiment/OpenSesame/NAP-FC/NAP_GER_AA_4blocks_noglides/subject-51.csv","xpyriment","Jazzy James","3.1.9","yes","yes","59a800d99ad5a1025d81bb03","59a801616c613b0251691de0","no","no","0","j","f","space","NA","space","space","j","1191","3276","61043","NA","32815","7464","1191","2","legacy","1024","1","44100","-16","experiment","enmal","3","0","0","0","1","Englisch","51","","odd","9765810","9704247","NA","NA","9769087","9765806","NA","9531773","9765346","9531774","9531773","9625411","9658231","9914302","9912797","9915495","9669660","9665986","9704246","NA","9558095","9614008","9702592","9665765","9765810","9665989","NA","9914302","9914302","NA","NA","9912793","NAP perception","35","64636","46","yes","1024"
"76.5957446809","yes","76.5957446809","1398.68085106","1398.68085106","white","no","xpyriment","Ich habe die obigen Informationen gelesen und verstanden.","legacy","legacy","0","uniform","1","0","0","undefined","undefined","1","f","2","1","NA","0","1","0","0","0","0","0","0","0","0","56","56","56","0","0","0","NA","0","0","2","0","0","0","2","56","56","56","56","56","Sat Nov 11 21:59:16 2017","Forced-choice identification task with a practice and an experimental phase","yes","NAP_GER_AA_4blocks_noglides.osexp","/Users/aviadalbert/Documents/Academisch/UoC/Dissertation/Experiment/OpenSesame/NAP-FC/NAP_GER_AA_4blocks_noglides","yes","no","sans","no","20","no","black","no","Weiter","yes","768","legacy","46","9","0","/Users/aviadalbert/Documents/Academisch/UoC/Dissertation/Experiment/OpenSesame/NAP-FC/NAP_GER_AA_4blocks_noglides/subject-51.csv","xpyriment","Jazzy James","3.1.9","yes","yes","59a800d99ad5a1025d81bb03","59a801616c613b0251691de0","no","no","0","f","f","space","NA","space","space","f","1102","3276","61043","NA","32815","7464","1102","2","legacy","1024","1","44100","-16","experiment","fsal","3","0","0","0","1","Englisch","51","","odd","9765810","9704247","NA","NA","9769087","9765806","NA","9531773","9765346","9531774","9531773","9625411","9658231","9917274","9915768","9918378","9669660","9665986","9704246","NA","9558095","9614008","9702592","9665765","9765810","9665989","NA","9917274","9917274","NA","NA","9915764","NAP perception","36","65738","47","yes","1024"
"75","yes","75","1402.45833333","1402.45833333","white","no","xpyriment","Ich habe die obigen Informationen gelesen und verstanden.","legacy","legacy","0","uniform","0","0","0","undefined","undefined","0","f","2","1","NA","0","1","0","0","0","0","0","0","0","0","57","57","57","0","0","0","NA","0","0","2","0","0","0","2","57","57","57","57","57","Sat Nov 11 21:59:16 2017","Forced-choice identification task with a practice and an experimental phase","yes","NAP_GER_AA_4blocks_noglides.osexp","/Users/aviadalbert/Documents/Academisch/UoC/Dissertation/Experiment/OpenSesame/NAP-FC/NAP_GER_AA_4blocks_noglides","yes","no","sans","no","20","no","black","no","Weiter","yes","768","legacy","47","9","0","/Users/aviadalbert/Documents/Academisch/UoC/Dissertation/Experiment/OpenSesame/NAP-FC/NAP_GER_AA_4blocks_noglides/subject-51.csv","xpyriment","Jazzy James","3.1.9","yes","yes","59a800d99ad5a1025d81bb03","59a801616c613b0251691de0","no","no","0","j","f","space","NA","space","space","j","1580","3276","61043","NA","32815","7464","1580","2","legacy","1024","1","44100","-16","experiment","ʃfal","3","0","0","0","1","Englisch","51","","odd","9765810","9704247","NA","NA","9769087","9765806","NA","9531773","9765346","9531774","9531773","9625411","9658231","9920143","9918638","9921725","9669660","9665986","9704246","NA","9558095","9614008","9702592","9665765","9765810","9665989","NA","9920143","9920143","NA","NA","9918634","NAP perception","36","67318","48","yes","1024"
"75.5102040816","yes","75.5102040816","1400.55102041","1400.55102041","white","no","xpyriment","Ich habe die obigen Informationen gelesen und verstanden.","legacy","legacy","0","uniform","1","0","0","undefined","undefined","1","f","2","1","NA","0","1","0","0","0","0","0","0","0","0","58","58","58","0","0","0","NA","0","0","2","0","0","0","2","58","58","58","58","58","Sat Nov 11 21:59:16 2017","Forced-choice identification task with a practice and an experimental phase","yes","NAP_GER_AA_4blocks_noglides.osexp","/Users/aviadalbert/Documents/Academisch/UoC/Dissertation/Experiment/OpenSesame/NAP-FC/NAP_GER_AA_4blocks_noglides","yes","no","sans","no","20","no","black","no","Weiter","yes","768","legacy","48","9","0","/Users/aviadalbert/Documents/Academisch/UoC/Dissertation/Experiment/OpenSesame/NAP-FC/NAP_GER_AA_4blocks_noglides/subject-51.csv","xpyriment","Jazzy James","3.1.9","yes","yes","59a800d99ad5a1025d81bb03","59a801616c613b0251691de0","no","no","0","f","f","space","NA","space","space","f","1309","3276","61043","NA","32815","7464","1309","2","legacy","1024","1","44100","-16","experiment","fsal","3","0","0","0","1","Englisch","51","","odd","9765810","9704247","NA","NA","9769087","9765806","NA","9531773","9765346","9531774","9531773","9625411","9658231","9923497","9921992","9924808","9669660","9665986","9704246","NA","9558095","9614008","9702592","9665765","9765810","9665989","NA","9923497","9923497","NA","NA","9921988","NAP perception","37","68627","49","yes","1024"
"74","yes","74","1400.64","1400.64","white","no","xpyriment","Ich habe die obigen Informationen gelesen und verstanden.","legacy","legacy","0","uniform","0","0","0","undefined","undefined","0","f","2","1","NA","0","1","0","0","0","0","0","0","0","0","59","59","59","0","0","0","NA","0","0","2","0","0","0","2","59","59","59","59","59","Sat Nov 11 21:59:16 2017","Forced-choice identification task with a practice and an experimental phase","yes","NAP_GER_AA_4blocks_noglides.osexp","/Users/aviadalbert/Documents/Academisch/UoC/Dissertation/Experiment/OpenSesame/NAP-FC/NAP_GER_AA_4blocks_noglides","yes","no","sans","no","20","no","black","no","Weiter","yes","768","legacy","49","9","0","/Users/aviadalbert/Documents/Academisch/UoC/Dissertation/Experiment/OpenSesame/NAP-FC/NAP_GER_AA_4blocks_noglides/subject-51.csv","xpyriment","Jazzy James","3.1.9","yes","yes","59a800d99ad5a1025d81bb03","59a801616c613b0251691de0","no","no","0","j","f","space","NA","space","space","j","1405","3276","61043","NA","32815","7464","1405","2","legacy","1024","1","44100","-16","experiment","msal","3","0","0","0","1","Englisch","51","","odd","9765810","9704247","NA","NA","9769087","9765806","NA","9531773","9765346","9531774","9531773","9625411","9658231","9926589","9925085","9927996","9669660","9665986","9704246","NA","9558095","9614008","9702592","9665765","9765810","9665989","NA","9926589","9926589","NA","NA","9925081","NAP perception","37","70032","50","yes","1024"
"72.5490196078","yes","72.5490196078","1395.90196078","1395.90196078","white","no","xpyriment","Ich habe die obigen Informationen gelesen und verstanden.","legacy","legacy","0","uniform","0","0","0","undefined","undefined","0","f","2","1","NA","0","1","0","0","0","0","0","0","0","0","60","60","60","0","0","0","NA","0","0","2","0","0","0","2","60","60","60","60","60","Sat Nov 11 21:59:16 2017","Forced-choice identification task with a practice and an experimental phase","yes","NAP_GER_AA_4blocks_noglides.osexp","/Users/aviadalbert/Documents/Academisch/UoC/Dissertation/Experiment/OpenSesame/NAP-FC/NAP_GER_AA_4blocks_noglides","yes","no","sans","no","20","no","black","no","Weiter","yes","768","legacy","50","9","0","/Users/aviadalbert/Documents/Academisch/UoC/Dissertation/Experiment/OpenSesame/NAP-FC/NAP_GER_AA_4blocks_noglides/subject-51.csv","xpyriment","Jazzy James","3.1.9","yes","yes","59a800d99ad5a1025d81bb03","59a801616c613b0251691de0","no","no","0","j","f","space","NA","space","space","j","1159","3276","61043","NA","32815","7464","1159","2","legacy","1024","1","44100","-16","experiment","nval","3","0","0","0","1","Englisch","51","","odd","9765810","9704247","NA","NA","9769087","9765806","NA","9531773","9765346","9531774","9531773","9625411","9658231","9929791","9928285","9930952","9669660","9665986","9704246","NA","9558095","9614008","9702592","9665765","9765810","9665989","NA","9929791","9929791","NA","NA","9928281","NAP perception","37","71191","51","yes","1024"
"73.0769230769","yes","73.0769230769","1389.88461538","1389.88461538","white","no","xpyriment","Ich habe die obigen Informationen gelesen und verstanden.","legacy","legacy","0","uniform","1","0","0","undefined","undefined","1","f","2","1","NA","0","1","0","0","0","0","0","0","0","0","61","61","61","0","0","0","NA","0","0","2","0","0","0","2","61","61","61","61","61","Sat Nov 11 21:59:16 2017","Forced-choice identification task with a practice and an experimental phase","yes","NAP_GER_AA_4blocks_noglides.osexp","/Users/aviadalbert/Documents/Academisch/UoC/Dissertation/Experiment/OpenSesame/NAP-FC/NAP_GER_AA_4blocks_noglides","yes","no","sans","no","20","no","black","no","Weiter","yes","768","legacy","51","9","0","/Users/aviadalbert/Documents/Academisch/UoC/Dissertation/Experiment/OpenSesame/NAP-FC/NAP_GER_AA_4blocks_noglides/subject-51.csv","xpyriment","Jazzy James","3.1.9","yes","yes","59a800d99ad5a1025d81bb03","59a801616c613b0251691de0","no","no","0","f","f","space","NA","space","space","f","1083","3276","61043","NA","32815","7464","1083","2","legacy","1024","1","44100","-16","experiment","smal","3","0","0","0","1","Englisch","51","","odd","9765810","9704247","NA","NA","9769087","9765806","NA","9531773","9765346","9531774","9531773","9625411","9658231","9932733","9931229","9933818","9669660","9665986","9704246","NA","9558095","9614008","9702592","9665765","9765810","9665989","NA","9932733","9932733","NA","NA","9931225","NAP perception","38","72274","52","yes","1024"
"73.5849056604","yes","73.5849056604","1398.09433962","1398.09433962","white","no","xpyriment","Ich habe die obigen Informationen gelesen und verstanden.","legacy","legacy","0","uniform","1","0","0","undefined","undefined","1","f","2","1","NA","0","1","0","0","0","0","0","0","0","0","62","62","62","0","0","0","NA","0","0","2","0","0","0","2","62","62","62","62","62","Sat Nov 11 21:59:16 2017","Forced-choice identification task with a practice and an experimental phase","yes","NAP_GER_AA_4blocks_noglides.osexp","/Users/aviadalbert/Documents/Academisch/UoC/Dissertation/Experiment/OpenSesame/NAP-FC/NAP_GER_AA_4blocks_noglides","yes","no","sans","no","20","no","black","no","Weiter","yes","768","legacy","52","9","0","/Users/aviadalbert/Documents/Academisch/UoC/Dissertation/Experiment/OpenSesame/NAP-FC/NAP_GER_AA_4blocks_noglides/subject-51.csv","xpyriment","Jazzy James","3.1.9","yes","yes","59a800d99ad5a1025d81bb03","59a801616c613b0251691de0","no","no","0","f","f","space","NA","space","space","f","1825","3276","61043","NA","32815","7464","1825","2","legacy","1024","1","44100","-16","experiment","vnal","3","0","0","0","1","Englisch","51","","odd","9765810","9704247","NA","NA","9769087","9765806","NA","9531773","9765346","9531774","9531773","9625411","9658231","9935597","9934093","9937424","9669660","9665986","9704246","NA","9558095","9614008","9702592","9665765","9765810","9665989","NA","9935596","9935596","NA","NA","9934089","NAP perception","39","74099","53","yes","1024"
"72.2222222222","yes","72.2222222222","1418.48148148","1418.48148148","white","no","xpyriment","Ich habe die obigen Informationen gelesen und verstanden.","legacy","legacy","0","uniform","0","0","0","undefined","undefined","0","f","2","1","NA","0","1","0","0","0","0","0","0","0","0","63","63","63","0","0","0","NA","0","0","2","0","0","0","2","63","63","63","63","63","Sat Nov 11 21:59:16 2017","Forced-choice identification task with a practice and an experimental phase","yes","NAP_GER_AA_4blocks_noglides.osexp","/Users/aviadalbert/Documents/Academisch/UoC/Dissertation/Experiment/OpenSesame/NAP-FC/NAP_GER_AA_4blocks_noglides","yes","no","sans","no","20","no","black","no","Weiter","yes","768","legacy","53","9","0","/Users/aviadalbert/Documents/Academisch/UoC/Dissertation/Experiment/OpenSesame/NAP-FC/NAP_GER_AA_4blocks_noglides/subject-51.csv","xpyriment","Jazzy James","3.1.9","yes","yes","59a800d99ad5a1025d81bb03","59a801616c613b0251691de0","no","no","0","j","f","space","NA","space","space","j","2499","3276","61043","NA","32815","7464","2499","2","legacy","1024","1","44100","-16","experiment","lval","3","0","0","0","1","Englisch","51","","odd","9765810","9704247","NA","NA","9769087","9765806","NA","9531773","9765346","9531774","9531773","9625411","9658231","9939212","9937708","9941713","9669660","9665986","9704246","NA","9558095","9614008","9702592","9665765","9765810","9665989","NA","9939212","9939212","NA","NA","9937704","NAP perception","39","76598","54","yes","1024"
"70.9090909091","yes","70.9090909091","1431.78181818","1431.78181818","white","no","xpyriment","Ich habe die obigen Informationen gelesen und verstanden.","legacy","legacy","0","uniform","0","0","0","undefined","undefined","0","j","2","1","NA","0","1","0","0","0","0","0","0","0","0","64","64","64","0","0","0","NA","0","0","2","0","0","0","2","64","64","64","64","64","Sat Nov 11 21:59:16 2017","Forced-choice identification task with a practice and an experimental phase","yes","NAP_GER_AA_4blocks_noglides.osexp","/Users/aviadalbert/Documents/Academisch/UoC/Dissertation/Experiment/OpenSesame/NAP-FC/NAP_GER_AA_4blocks_noglides","yes","no","sans","no","20","no","black","no","Weiter","yes","768","legacy","54","9","0","/Users/aviadalbert/Documents/Academisch/UoC/Dissertation/Experiment/OpenSesame/NAP-FC/NAP_GER_AA_4blocks_noglides/subject-51.csv","xpyriment","Jazzy James","3.1.9","yes","yes","59a800d99ad5a1025d81bb03","59a801616c613b0251691de0","no","no","0","f","f","space","NA","space","space","f","2150","3276","61043","NA","32815","7464","2150","2","legacy","1024","1","44100","-16","experiment","enval","3","0","0","0","1","Englisch","51","","odd","9765810","9704247","NA","NA","9769087","9765806","NA","9531773","9765346","9531774","9531773","9625411","9658231","9943485","9941981","9945637","9669660","9665986","9704246","NA","9558095","9614008","9702592","9665765","9765810","9665989","NA","9943485","9943485","NA","NA","9941977","NAP perception","39","78748","55","yes","1024"
