"acc","accept_status","accuracy","average_response_time","avg_rt","background","bidi","canvas_backend","checkbox_status","clock_backend","color_backend","compensation","coordinates","correct","correct_block_activation","correct_block_exit","correct_instructions_1","correct_instructions_2","correct_keyboard_response","correct_response","count_block_activation","count_block_exit","count_block_info_QA","count_cont_e_block_message","count_e_block_loop","count_e_block_sequence","count_end_of_experiment","count_experiment","count_experimental_loop","count_form_consent","count_info_forms","count_instructions_1","count_instructions_2","count_keyboard_response","count_listen_message","count_logger","count_p_block_loop","count_p_block_sequence","count_p_feedback","count_pause_feedback","count_personal_details_form_1","count_personal_details_form_2","count_post_loop_blank","count_practice_loop","count_pre_e_block_message","count_pre_p_block_message","count_reset_feedback","count_stimulus_image","count_stimulus_sound","count_timeout_message","count_timeout_sound","count_trial_sequence","datetime","description","disable_garbage_collection","experiment_file","experiment_path","expyriment_opengl","font_bold","font_family","font_italic","font_size","font_underline","foreground","form_clicks","form_response","fullscreen","height","keyboard_backend","live_row","live_row_p_block_loop","live_row_practice_loop","logfile","mouse_backend","opensesame_codename","opensesame_version","osf_always_upload_data","osf_always_upload_experiment","osf_datanode_id","osf_id","practice","pygame_doublebuf","repeat_cycle","response","response_block_activation","response_block_exit","response_block_info_QA","response_instructions_1","response_instructions_2","response_keyboard_response","response_time","response_time_block_activation","response_time_block_exit","response_time_block_info_QA","response_time_instructions_1","response_time_instructions_2","response_time_keyboard_response","round_decimals","sampler_backend","sound_buf_size","sound_channels","sound_freq","sound_sample_size","start","stimulus","subject_age","subject_education","subject_gender","subject_german_native","subject_handedness","subject_language_other","subject_nr","subject_other_native_lang","subject_parity","time_block_activation","time_block_exit","time_block_info_QA","time_cont_e_block_message","time_e_block_loop","time_e_block_sequence","time_end_of_experiment","time_experiment","time_experimental_loop","time_form_consent","time_info_forms","time_instructions_1","time_instructions_2","time_keyboard_response","time_listen_message","time_logger","time_p_block_loop","time_p_block_sequence","time_p_feedback","time_pause_feedback","time_personal_details_form_1","time_personal_details_form_2","time_post_loop_blank","time_practice_loop","time_pre_e_block_message","time_pre_p_block_message","time_reset_feedback","time_stimulus_image","time_stimulus_sound","time_timeout_message","time_timeout_sound","time_trial_sequence","title","total_correct","total_response_time","total_responses","uniform_coordinates","width"
"100","yes","100","1539","1539","white","no","xpyriment","Ich habe die obigen Informationen gelesen und verstanden.","legacy","legacy","0","uniform","1","0","NA","undefined","undefined","1","f","0","0","NA","NA","NA","NA","NA","0","0","0","0","0","0","0","0","0","0","0","NA","NA","0","0","0","0","NA","0","0","0","0","0","0","0","Wed Oct  4 18:22:25 2017","Forced-choice identification task with a practice and an experimental phase","yes","NAP_GER_AA_4blocks_noglides.osexp","/Users/aviadalbert/Documents/Academisch/UoC/Dissertation/Experiment/OpenSesame/NAP-FC/NAP_GER_AA_4blocks_noglides","yes","no","sans","no","20","no","black","no","Weiter","yes","768","legacy","0","0","0","/Users/aviadalbert/Documents/Academisch/UoC/Dissertation/Experiment/OpenSesame/NAP-FC/NAP_GER_AA_4blocks_noglides/subject-7.csv","xpyriment","Jazzy James","3.1.9","yes","yes","59a800d99ad5a1025d81bb03","59a801616c613b0251691de0","yes","no","0","f","f","NA","NA","h","h","f","1539","4900","NA","NA","39611","16453","1539","2","legacy","1024","1","44100","-16","experiment","flal","4","2","1","0","1","Englisch, Indonesisch, Franzoesisch","7","","odd","17185909","NA","NA","NA","NA","NA","NA","17014169","NA","17014170","17014169","17129545","17169161","17192514","17191006","17194054","17190810","17185905","NA","NA","17035704","17115221","NA","17185687","NA","17185908","NA","17192513","17192513","NA","NA","17191002","NAP perception","1","1539","1","yes","1024"
"100","yes","100","1475.5","1475.5","white","no","xpyriment","Ich habe die obigen Informationen gelesen und verstanden.","legacy","legacy","0","uniform","1","0","NA","undefined","undefined","1","j","0","0","NA","NA","NA","NA","NA","0","0","0","0","0","0","1","1","1","0","0","NA","NA","0","0","0","0","NA","0","0","1","1","1","1","1","Wed Oct  4 18:22:25 2017","Forced-choice identification task with a practice and an experimental phase","yes","NAP_GER_AA_4blocks_noglides.osexp","/Users/aviadalbert/Documents/Academisch/UoC/Dissertation/Experiment/OpenSesame/NAP-FC/NAP_GER_AA_4blocks_noglides","yes","no","sans","no","20","no","black","no","Weiter","yes","768","legacy","1","1","0","/Users/aviadalbert/Documents/Academisch/UoC/Dissertation/Experiment/OpenSesame/NAP-FC/NAP_GER_AA_4blocks_noglides/subject-7.csv","xpyriment","Jazzy James","3.1.9","yes","yes","59a800d99ad5a1025d81bb03","59a801616c613b0251691de0","yes","no","0","j","f","NA","NA","h","h","j","1412","4900","NA","NA","39611","16453","1412","2","legacy","1024","1","44100","-16","experiment","lepal","4","2","1","0","1","Englisch, Indonesisch, Franzoesisch","7","","odd","17185909","NA","NA","NA","NA","NA","NA","17014169","NA","17014170","17014169","17129545","17169161","17195833","17194326","17197246","17190810","17185905","NA","NA","17035704","17115221","NA","17185687","NA","17185908","NA","17195833","17195833","NA","NA","17194322","NAP perception","2","2951","2","yes","1024"
"100","yes","100","1374","1374","white","no","xpyriment","Ich habe die obigen Informationen gelesen und verstanden.","legacy","legacy","0","uniform","1","0","NA","undefined","undefined","1","j","0","0","NA","NA","NA","NA","NA","0","0","0","0","0","0","2","2","2","0","0","NA","NA","0","0","0","0","NA","0","0","2","2","2","2","2","Wed Oct  4 18:22:25 2017","Forced-choice identification task with a practice and an experimental phase","yes","NAP_GER_AA_4blocks_noglides.osexp","/Users/aviadalbert/Documents/Academisch/UoC/Dissertation/Experiment/OpenSesame/NAP-FC/NAP_GER_AA_4blocks_noglides","yes","no","sans","no","20","no","black","no","Weiter","yes","768","legacy","2","2","0","/Users/aviadalbert/Documents/Academisch/UoC/Dissertation/Experiment/OpenSesame/NAP-FC/NAP_GER_AA_4blocks_noglides/subject-7.csv","xpyriment","Jazzy James","3.1.9","yes","yes","59a800d99ad5a1025d81bb03","59a801616c613b0251691de0","yes","no","0","j","f","NA","NA","h","h","j","1171","4900","NA","NA","39611","16453","1171","2","legacy","1024","1","44100","-16","experiment","emtal","4","2","1","0","1","Englisch, Indonesisch, Franzoesisch","7","","odd","17185909","NA","NA","NA","NA","NA","NA","17014169","NA","17014170","17014169","17129545","17169161","17199026","17197522","17200198","17190810","17185905","NA","NA","17035704","17115221","NA","17185687","NA","17185908","NA","17199026","17199026","NA","NA","17197518","NAP perception","3","4122","3","yes","1024"
"100","yes","100","1408","1408","white","no","xpyriment","Ich habe die obigen Informationen gelesen und verstanden.","legacy","legacy","0","uniform","1","0","NA","undefined","undefined","1","f","0","0","NA","NA","NA","NA","NA","0","0","0","0","0","0","3","3","3","0","0","NA","NA","0","0","0","0","NA","0","0","3","3","3","3","3","Wed Oct  4 18:22:25 2017","Forced-choice identification task with a practice and an experimental phase","yes","NAP_GER_AA_4blocks_noglides.osexp","/Users/aviadalbert/Documents/Academisch/UoC/Dissertation/Experiment/OpenSesame/NAP-FC/NAP_GER_AA_4blocks_noglides","yes","no","sans","no","20","no","black","no","Weiter","yes","768","legacy","3","3","0","/Users/aviadalbert/Documents/Academisch/UoC/Dissertation/Experiment/OpenSesame/NAP-FC/NAP_GER_AA_4blocks_noglides/subject-7.csv","xpyriment","Jazzy James","3.1.9","yes","yes","59a800d99ad5a1025d81bb03","59a801616c613b0251691de0","yes","no","0","f","f","NA","NA","h","h","f","1510","4900","NA","NA","39611","16453","1510","2","legacy","1024","1","44100","-16","experiment","ʃpal","4","2","1","0","1","Englisch, Indonesisch, Franzoesisch","7","","odd","17185909","NA","NA","NA","NA","NA","NA","17014169","NA","17014170","17014169","17129545","17169161","17201974","17200470","17203485","17190810","17185905","NA","NA","17035704","17115221","NA","17185687","NA","17185908","NA","17201973","17201973","NA","NA","17200466","NAP perception","4","5632","4","yes","1024"
"100","yes","100","1429.6","1429.6","white","no","xpyriment","Ich habe die obigen Informationen gelesen und verstanden.","legacy","legacy","0","uniform","1","0","NA","undefined","undefined","1","j","0","0","NA","NA","NA","NA","NA","0","0","0","0","0","0","4","4","4","0","0","NA","NA","0","0","0","0","NA","0","0","4","4","4","4","4","Wed Oct  4 18:22:25 2017","Forced-choice identification task with a practice and an experimental phase","yes","NAP_GER_AA_4blocks_noglides.osexp","/Users/aviadalbert/Documents/Academisch/UoC/Dissertation/Experiment/OpenSesame/NAP-FC/NAP_GER_AA_4blocks_noglides","yes","no","sans","no","20","no","black","no","Weiter","yes","768","legacy","4","4","0","/Users/aviadalbert/Documents/Academisch/UoC/Dissertation/Experiment/OpenSesame/NAP-FC/NAP_GER_AA_4blocks_noglides/subject-7.csv","xpyriment","Jazzy James","3.1.9","yes","yes","59a800d99ad5a1025d81bb03","59a801616c613b0251691de0","yes","no","0","j","f","NA","NA","h","h","j","1516","4900","NA","NA","39611","16453","1516","2","legacy","1024","1","44100","-16","experiment","nefal","4","2","1","0","1","Englisch, Indonesisch, Franzoesisch","7","","odd","17185909","NA","NA","NA","NA","NA","NA","17014169","NA","17014170","17014169","17129545","17169161","17205262","17203757","17206779","17190810","17185905","NA","NA","17035704","17115221","NA","17185687","NA","17185908","NA","17205262","17205262","NA","NA","17203753","NAP perception","5","7148","5","yes","1024"
"100","yes","100","1430.33333333","1430.33333333","white","no","xpyriment","Ich habe die obigen Informationen gelesen und verstanden.","legacy","legacy","0","uniform","1","0","NA","undefined","undefined","1","f","0","0","NA","NA","NA","NA","NA","0","0","0","0","0","0","5","5","5","0","0","NA","NA","0","0","0","0","NA","0","0","5","5","5","5","5","Wed Oct  4 18:22:25 2017","Forced-choice identification task with a practice and an experimental phase","yes","NAP_GER_AA_4blocks_noglides.osexp","/Users/aviadalbert/Documents/Academisch/UoC/Dissertation/Experiment/OpenSesame/NAP-FC/NAP_GER_AA_4blocks_noglides","yes","no","sans","no","20","no","black","no","Weiter","yes","768","legacy","5","5","0","/Users/aviadalbert/Documents/Academisch/UoC/Dissertation/Experiment/OpenSesame/NAP-FC/NAP_GER_AA_4blocks_noglides/subject-7.csv","xpyriment","Jazzy James","3.1.9","yes","yes","59a800d99ad5a1025d81bb03","59a801616c613b0251691de0","yes","no","0","f","f","NA","NA","h","h","f","1434","4900","NA","NA","39611","16453","1434","2","legacy","1024","1","44100","-16","experiment","sfal","4","2","1","0","1","Englisch, Indonesisch, Franzoesisch","7","","odd","17185909","NA","NA","NA","NA","NA","NA","17014169","NA","17014170","17014169","17129545","17169161","17208566","17207060","17210000","17190810","17185905","NA","NA","17035704","17115221","NA","17185687","NA","17185908","NA","17208566","17208566","NA","NA","17207056","NAP perception","6","8582","6","yes","1024"
"85.7142857143","yes","85.7142857143","1449.28571429","1449.28571429","white","no","xpyriment","Ich habe die obigen Informationen gelesen und verstanden.","legacy","legacy","0","uniform","0","0","NA","undefined","undefined","0","f","0","0","NA","NA","NA","NA","NA","0","0","0","0","0","0","6","6","6","0","0","NA","NA","0","0","0","0","NA","0","0","6","6","6","6","6","Wed Oct  4 18:22:25 2017","Forced-choice identification task with a practice and an experimental phase","yes","NAP_GER_AA_4blocks_noglides.osexp","/Users/aviadalbert/Documents/Academisch/UoC/Dissertation/Experiment/OpenSesame/NAP-FC/NAP_GER_AA_4blocks_noglides","yes","no","sans","no","20","no","black","no","Weiter","yes","768","legacy","6","6","0","/Users/aviadalbert/Documents/Academisch/UoC/Dissertation/Experiment/OpenSesame/NAP-FC/NAP_GER_AA_4blocks_noglides/subject-7.csv","xpyriment","Jazzy James","3.1.9","yes","yes","59a800d99ad5a1025d81bb03","59a801616c613b0251691de0","yes","no","0","j","f","NA","NA","h","h","j","1563","4900","NA","NA","39611","16453","1563","2","legacy","1024","1","44100","-16","experiment","zmal","4","2","1","0","1","Englisch, Indonesisch, Franzoesisch","7","","odd","17185909","NA","NA","NA","NA","NA","NA","17014169","NA","17014170","17014169","17129545","17169161","17211791","17210286","17213355","17190810","17185905","NA","NA","17035704","17115221","NA","17185687","NA","17185908","NA","17211790","17211790","NA","NA","17210282","NAP perception","6","10145","7","yes","1024"
"87.5","yes","87.5","1487","1487","white","no","xpyriment","Ich habe die obigen Informationen gelesen und verstanden.","legacy","legacy","0","uniform","1","0","NA","undefined","undefined","1","j","0","0","NA","NA","NA","NA","NA","0","0","0","0","0","0","7","7","7","0","0","NA","NA","0","0","0","0","NA","0","0","7","7","7","7","7","Wed Oct  4 18:22:25 2017","Forced-choice identification task with a practice and an experimental phase","yes","NAP_GER_AA_4blocks_noglides.osexp","/Users/aviadalbert/Documents/Academisch/UoC/Dissertation/Experiment/OpenSesame/NAP-FC/NAP_GER_AA_4blocks_noglides","yes","no","sans","no","20","no","black","no","Weiter","yes","768","legacy","7","7","0","/Users/aviadalbert/Documents/Academisch/UoC/Dissertation/Experiment/OpenSesame/NAP-FC/NAP_GER_AA_4blocks_noglides/subject-7.csv","xpyriment","Jazzy James","3.1.9","yes","yes","59a800d99ad5a1025d81bb03","59a801616c613b0251691de0","yes","no","0","j","f","NA","NA","h","h","j","1751","4900","NA","NA","39611","16453","1751","2","legacy","1024","1","44100","-16","experiment","mesal","4","2","1","0","1","Englisch, Indonesisch, Franzoesisch","7","","odd","17185909","NA","NA","NA","NA","NA","NA","17014169","NA","17014170","17014169","17129545","17169161","17215133","17213629","17216885","17190810","17185905","NA","NA","17035704","17115221","NA","17185687","NA","17185908","NA","17215132","17215132","NA","NA","17213625","NAP perception","7","11896","8","yes","1024"
"88.8888888889","yes","88.8888888889","1452.77777778","1452.77777778","white","no","xpyriment","Ich habe die obigen Informationen gelesen und verstanden.","legacy","legacy","0","uniform","1","0","NA","undefined","undefined","1","j","0","0","NA","NA","NA","NA","NA","0","0","0","0","0","0","8","8","8","0","0","NA","NA","0","0","0","0","NA","0","0","8","8","8","8","8","Wed Oct  4 18:22:25 2017","Forced-choice identification task with a practice and an experimental phase","yes","NAP_GER_AA_4blocks_noglides.osexp","/Users/aviadalbert/Documents/Academisch/UoC/Dissertation/Experiment/OpenSesame/NAP-FC/NAP_GER_AA_4blocks_noglides","yes","no","sans","no","20","no","black","no","Weiter","yes","768","legacy","8","8","0","/Users/aviadalbert/Documents/Academisch/UoC/Dissertation/Experiment/OpenSesame/NAP-FC/NAP_GER_AA_4blocks_noglides/subject-7.csv","xpyriment","Jazzy James","3.1.9","yes","yes","59a800d99ad5a1025d81bb03","59a801616c613b0251691de0","yes","no","0","j","f","NA","NA","h","h","j","1179","4900","NA","NA","39611","16453","1179","2","legacy","1024","1","44100","-16","experiment","enval","4","2","1","0","1","Englisch, Indonesisch, Franzoesisch","7","","odd","17185909","NA","NA","NA","NA","NA","NA","17014169","NA","17014170","17014169","17129545","17169161","17218657","17217152","17219837","17190810","17185905","NA","NA","17035704","17115221","NA","17185687","NA","17185908","NA","17218657","17218657","NA","NA","17217148","NAP perception","8","13075","9","yes","1024"
"90","yes","90","1484.9","1484.9","white","no","xpyriment","Ich habe die obigen Informationen gelesen und verstanden.","legacy","legacy","0","uniform","1","0","NA","undefined","undefined","1","f","0","0","NA","NA","NA","NA","NA","0","0","0","0","0","0","9","9","9","0","0","NA","NA","0","0","0","0","NA","0","0","9","9","9","9","9","Wed Oct  4 18:22:25 2017","Forced-choice identification task with a practice and an experimental phase","yes","NAP_GER_AA_4blocks_noglides.osexp","/Users/aviadalbert/Documents/Academisch/UoC/Dissertation/Experiment/OpenSesame/NAP-FC/NAP_GER_AA_4blocks_noglides","yes","no","sans","no","20","no","black","no","Weiter","yes","768","legacy","9","9","0","/Users/aviadalbert/Documents/Academisch/UoC/Dissertation/Experiment/OpenSesame/NAP-FC/NAP_GER_AA_4blocks_noglides/subject-7.csv","xpyriment","Jazzy James","3.1.9","yes","yes","59a800d99ad5a1025d81bb03","59a801616c613b0251691de0","yes","no","0","f","f","NA","NA","h","h","f","1774","4900","NA","NA","39611","16453","1774","2","legacy","1024","1","44100","-16","experiment","vlal","4","2","1","0","1","Englisch, Indonesisch, Franzoesisch","7","","odd","17185909","NA","NA","NA","NA","NA","NA","17014169","NA","17014170","17014169","17129545","17169161","17221614","17220107","17223389","17190810","17185905","NA","NA","17035704","17115221","NA","17185687","NA","17185908","NA","17221614","17221614","NA","NA","17220103","NAP perception","9","14849","10","yes","1024"
"100","yes","100","1337","1337","white","no","xpyriment","Ich habe die obigen Informationen gelesen und verstanden.","legacy","legacy","0","uniform","1","0","0","undefined","undefined","1","j","2","1","NA","0","1","0","0","0","0","0","0","0","0","10","10","10","0","0","0","NA","0","0","2","0","0","0","2","10","10","10","10","10","Wed Oct  4 18:22:25 2017","Forced-choice identification task with a practice and an experimental phase","yes","NAP_GER_AA_4blocks_noglides.osexp","/Users/aviadalbert/Documents/Academisch/UoC/Dissertation/Experiment/OpenSesame/NAP-FC/NAP_GER_AA_4blocks_noglides","yes","no","sans","no","20","no","black","no","Weiter","yes","768","legacy","0","9","0","/Users/aviadalbert/Documents/Academisch/UoC/Dissertation/Experiment/OpenSesame/NAP-FC/NAP_GER_AA_4blocks_noglides/subject-7.csv","xpyriment","Jazzy James","3.1.9","yes","yes","59a800d99ad5a1025d81bb03","59a801616c613b0251691de0","no","no","0","j","j","space","NA","h","h","j","1337","2892","29049","NA","39611","16453","1337","2","legacy","1024","1","44100","-16","experiment","nefal","4","2","1","0","1","Englisch, Indonesisch, Franzoesisch","7","","odd","17254685","17225108","NA","NA","17257578","17254681","NA","17014169","17254216","17014170","17014169","17129545","17169161","17259288","17257785","17260626","17190810","17185905","17225108","NA","17035704","17115221","17223453","17185687","17254685","17185908","NA","17259288","17259288","NA","NA","17257781","NAP perception","1","1337","1","yes","1024"
"100","yes","100","1757.5","1757.5","white","no","xpyriment","Ich habe die obigen Informationen gelesen und verstanden.","legacy","legacy","0","uniform","1","0","0","undefined","undefined","1","f","2","1","NA","0","1","0","0","0","0","0","0","0","0","11","11","11","0","0","0","NA","0","0","2","0","0","0","2","11","11","11","11","11","Wed Oct  4 18:22:25 2017","Forced-choice identification task with a practice and an experimental phase","yes","NAP_GER_AA_4blocks_noglides.osexp","/Users/aviadalbert/Documents/Academisch/UoC/Dissertation/Experiment/OpenSesame/NAP-FC/NAP_GER_AA_4blocks_noglides","yes","no","sans","no","20","no","black","no","Weiter","yes","768","legacy","1","9","0","/Users/aviadalbert/Documents/Academisch/UoC/Dissertation/Experiment/OpenSesame/NAP-FC/NAP_GER_AA_4blocks_noglides/subject-7.csv","xpyriment","Jazzy James","3.1.9","yes","yes","59a800d99ad5a1025d81bb03","59a801616c613b0251691de0","no","no","0","f","j","space","NA","h","h","f","2178","2892","29049","NA","39611","16453","2178","2","legacy","1024","1","44100","-16","experiment","lmal","4","2","1","0","1","Englisch, Indonesisch, Franzoesisch","7","","odd","17254685","17225108","NA","NA","17257578","17254681","NA","17014169","17254216","17014170","17014169","17129545","17169161","17262394","17260891","17264573","17190810","17185905","17225108","NA","17035704","17115221","17223453","17185687","17254685","17185908","NA","17262394","17262394","NA","NA","17260887","NAP perception","2","3515","2","yes","1024"
"100","yes","100","1662.33333333","1662.33333333","white","no","xpyriment","Ich habe die obigen Informationen gelesen und verstanden.","legacy","legacy","0","uniform","1","0","0","undefined","undefined","1","f","2","1","NA","0","1","0","0","0","0","0","0","0","0","12","12","12","0","0","0","NA","0","0","2","0","0","0","2","12","12","12","12","12","Wed Oct  4 18:22:25 2017","Forced-choice identification task with a practice and an experimental phase","yes","NAP_GER_AA_4blocks_noglides.osexp","/Users/aviadalbert/Documents/Academisch/UoC/Dissertation/Experiment/OpenSesame/NAP-FC/NAP_GER_AA_4blocks_noglides","yes","no","sans","no","20","no","black","no","Weiter","yes","768","legacy","2","9","0","/Users/aviadalbert/Documents/Academisch/UoC/Dissertation/Experiment/OpenSesame/NAP-FC/NAP_GER_AA_4blocks_noglides/subject-7.csv","xpyriment","Jazzy James","3.1.9","yes","yes","59a800d99ad5a1025d81bb03","59a801616c613b0251691de0","no","no","0","f","j","space","NA","h","h","f","1472","2892","29049","NA","39611","16453","1472","2","legacy","1024","1","44100","-16","experiment","vlal","4","2","1","0","1","Englisch, Indonesisch, Franzoesisch","7","","odd","17254685","17225108","NA","NA","17257578","17254681","NA","17014169","17254216","17014170","17014169","17129545","17169161","17266353","17264849","17267826","17190810","17185905","17225108","NA","17035704","17115221","17223453","17185687","17254685","17185908","NA","17266352","17266352","NA","NA","17264845","NAP perception","3","4987","3","yes","1024"
"100","yes","100","1506.25","1506.25","white","no","xpyriment","Ich habe die obigen Informationen gelesen und verstanden.","legacy","legacy","0","uniform","1","0","0","undefined","undefined","1","j","2","1","NA","0","1","0","0","0","0","0","0","0","0","13","13","13","0","0","0","NA","0","0","2","0","0","0","2","13","13","13","13","13","Wed Oct  4 18:22:25 2017","Forced-choice identification task with a practice and an experimental phase","yes","NAP_GER_AA_4blocks_noglides.osexp","/Users/aviadalbert/Documents/Academisch/UoC/Dissertation/Experiment/OpenSesame/NAP-FC/NAP_GER_AA_4blocks_noglides","yes","no","sans","no","20","no","black","no","Weiter","yes","768","legacy","3","9","0","/Users/aviadalbert/Documents/Academisch/UoC/Dissertation/Experiment/OpenSesame/NAP-FC/NAP_GER_AA_4blocks_noglides/subject-7.csv","xpyriment","Jazzy James","3.1.9","yes","yes","59a800d99ad5a1025d81bb03","59a801616c613b0251691de0","no","no","0","j","j","space","NA","h","h","j","1038","2892","29049","NA","39611","16453","1038","2","legacy","1024","1","44100","-16","experiment","elmal","4","2","1","0","1","Englisch, Indonesisch, Franzoesisch","7","","odd","17254685","17225108","NA","NA","17257578","17254681","NA","17014169","17254216","17014170","17014169","17129545","17169161","17269599","17268096","17270638","17190810","17185905","17225108","NA","17035704","17115221","17223453","17185687","17254685","17185908","NA","17269599","17269599","NA","NA","17268092","NAP perception","4","6025","4","yes","1024"
"100","yes","100","1437.2","1437.2","white","no","xpyriment","Ich habe die obigen Informationen gelesen und verstanden.","legacy","legacy","0","uniform","1","0","0","undefined","undefined","1","j","2","1","NA","0","1","0","0","0","0","0","0","0","0","14","14","14","0","0","0","NA","0","0","2","0","0","0","2","14","14","14","14","14","Wed Oct  4 18:22:25 2017","Forced-choice identification task with a practice and an experimental phase","yes","NAP_GER_AA_4blocks_noglides.osexp","/Users/aviadalbert/Documents/Academisch/UoC/Dissertation/Experiment/OpenSesame/NAP-FC/NAP_GER_AA_4blocks_noglides","yes","no","sans","no","20","no","black","no","Weiter","yes","768","legacy","4","9","0","/Users/aviadalbert/Documents/Academisch/UoC/Dissertation/Experiment/OpenSesame/NAP-FC/NAP_GER_AA_4blocks_noglides/subject-7.csv","xpyriment","Jazzy James","3.1.9","yes","yes","59a800d99ad5a1025d81bb03","59a801616c613b0251691de0","no","no","0","j","j","space","NA","h","h","j","1161","2892","29049","NA","39611","16453","1161","2","legacy","1024","1","44100","-16","experiment","esmal","4","2","1","0","1","Englisch, Indonesisch, Franzoesisch","7","","odd","17254685","17225108","NA","NA","17257578","17254681","NA","17014169","17254216","17014170","17014169","17129545","17169161","17272412","17270909","17273574","17190810","17185905","17225108","NA","17035704","17115221","17223453","17185687","17254685","17185908","NA","17272412","17272412","NA","NA","17270905","NAP perception","5","7186","5","yes","1024"
"100","yes","100","1364.83333333","1364.83333333","white","no","xpyriment","Ich habe die obigen Informationen gelesen und verstanden.","legacy","legacy","0","uniform","1","0","0","undefined","undefined","1","j","2","1","NA","0","1","0","0","0","0","0","0","0","0","15","15","15","0","0","0","NA","0","0","2","0","0","0","2","15","15","15","15","15","Wed Oct  4 18:22:25 2017","Forced-choice identification task with a practice and an experimental phase","yes","NAP_GER_AA_4blocks_noglides.osexp","/Users/aviadalbert/Documents/Academisch/UoC/Dissertation/Experiment/OpenSesame/NAP-FC/NAP_GER_AA_4blocks_noglides","yes","no","sans","no","20","no","black","no","Weiter","yes","768","legacy","5","9","0","/Users/aviadalbert/Documents/Academisch/UoC/Dissertation/Experiment/OpenSesame/NAP-FC/NAP_GER_AA_4blocks_noglides/subject-7.csv","xpyriment","Jazzy James","3.1.9","yes","yes","59a800d99ad5a1025d81bb03","59a801616c613b0251691de0","no","no","0","j","j","space","NA","h","h","j","1003","2892","29049","NA","39611","16453","1003","2","legacy","1024","1","44100","-16","experiment","elval","4","2","1","0","1","Englisch, Indonesisch, Franzoesisch","7","","odd","17254685","17225108","NA","NA","17257578","17254681","NA","17014169","17254216","17014170","17014169","17129545","17169161","17275359","17273854","17276363","17190810","17185905","17225108","NA","17035704","17115221","17223453","17185687","17254685","17185908","NA","17275358","17275358","NA","NA","17273850","NAP perception","6","8189","6","yes","1024"
"100","yes","100","1352.28571429","1352.28571429","white","no","xpyriment","Ich habe die obigen Informationen gelesen und verstanden.","legacy","legacy","0","uniform","1","0","0","undefined","undefined","1","j","2","1","NA","0","1","0","0","0","0","0","0","0","0","16","16","16","0","0","0","NA","0","0","2","0","0","0","2","16","16","16","16","16","Wed Oct  4 18:22:25 2017","Forced-choice identification task with a practice and an experimental phase","yes","NAP_GER_AA_4blocks_noglides.osexp","/Users/aviadalbert/Documents/Academisch/UoC/Dissertation/Experiment/OpenSesame/NAP-FC/NAP_GER_AA_4blocks_noglides","yes","no","sans","no","20","no","black","no","Weiter","yes","768","legacy","6","9","0","/Users/aviadalbert/Documents/Academisch/UoC/Dissertation/Experiment/OpenSesame/NAP-FC/NAP_GER_AA_4blocks_noglides/subject-7.csv","xpyriment","Jazzy James","3.1.9","yes","yes","59a800d99ad5a1025d81bb03","59a801616c613b0251691de0","no","no","0","j","j","space","NA","h","h","j","1277","2892","29049","NA","39611","16453","1277","2","legacy","1024","1","44100","-16","experiment","evzal","4","2","1","0","1","Englisch, Indonesisch, Franzoesisch","7","","odd","17254685","17225108","NA","NA","17257578","17254681","NA","17014169","17254216","17014170","17014169","17129545","17169161","17278147","17276643","17279425","17190810","17185905","17225108","NA","17035704","17115221","17223453","17185687","17254685","17185908","NA","17278147","17278147","NA","NA","17276639","NAP perception","7","9466","7","yes","1024"
"87.5","yes","87.5","1489.625","1489.625","white","no","xpyriment","Ich habe die obigen Informationen gelesen und verstanden.","legacy","legacy","0","uniform","0","0","0","undefined","undefined","0","j","2","1","NA","0","1","0","0","0","0","0","0","0","0","17","17","17","0","0","0","NA","0","0","2","0","0","0","2","17","17","17","17","17","Wed Oct  4 18:22:25 2017","Forced-choice identification task with a practice and an experimental phase","yes","NAP_GER_AA_4blocks_noglides.osexp","/Users/aviadalbert/Documents/Academisch/UoC/Dissertation/Experiment/OpenSesame/NAP-FC/NAP_GER_AA_4blocks_noglides","yes","no","sans","no","20","no","black","no","Weiter","yes","768","legacy","7","9","0","/Users/aviadalbert/Documents/Academisch/UoC/Dissertation/Experiment/OpenSesame/NAP-FC/NAP_GER_AA_4blocks_noglides/subject-7.csv","xpyriment","Jazzy James","3.1.9","yes","yes","59a800d99ad5a1025d81bb03","59a801616c613b0251691de0","no","no","0","f","j","space","NA","h","h","f","2451","2892","29049","NA","39611","16453","2451","2","legacy","1024","1","44100","-16","experiment","fesal","4","2","1","0","1","Englisch, Indonesisch, Franzoesisch","7","","odd","17254685","17225108","NA","NA","17257578","17254681","NA","17014169","17254216","17014170","17014169","17129545","17169161","17281212","17279709","17283665","17190810","17185905","17225108","NA","17035704","17115221","17223453","17185687","17254685","17185908","NA","17281212","17281212","NA","NA","17279705","NAP perception","7","11917","8","yes","1024"
"88.8888888889","yes","88.8888888889","1550.66666667","1550.66666667","white","no","xpyriment","Ich habe die obigen Informationen gelesen und verstanden.","legacy","legacy","0","uniform","1","0","0","undefined","undefined","1","j","2","1","NA","0","1","0","0","0","0","0","0","0","0","18","18","18","0","0","0","NA","0","0","2","0","0","0","2","18","18","18","18","18","Wed Oct  4 18:22:25 2017","Forced-choice identification task with a practice and an experimental phase","yes","NAP_GER_AA_4blocks_noglides.osexp","/Users/aviadalbert/Documents/Academisch/UoC/Dissertation/Experiment/OpenSesame/NAP-FC/NAP_GER_AA_4blocks_noglides","yes","no","sans","no","20","no","black","no","Weiter","yes","768","legacy","8","9","0","/Users/aviadalbert/Documents/Academisch/UoC/Dissertation/Experiment/OpenSesame/NAP-FC/NAP_GER_AA_4blocks_noglides/subject-7.csv","xpyriment","Jazzy James","3.1.9","yes","yes","59a800d99ad5a1025d81bb03","59a801616c613b0251691de0","no","no","0","j","j","space","NA","h","h","j","2039","2892","29049","NA","39611","16453","2039","2","legacy","1024","1","44100","-16","experiment","efsal","4","2","1","0","1","Englisch, Indonesisch, Franzoesisch","7","","odd","17254685","17225108","NA","NA","17257578","17254681","NA","17014169","17254216","17014170","17014169","17129545","17169161","17285457","17283953","17287497","17190810","17185905","17225108","NA","17035704","17115221","17223453","17185687","17254685","17185908","NA","17285457","17285457","NA","NA","17283949","NAP perception","8","13956","9","yes","1024"
"90","yes","90","1577.8","1577.8","white","no","xpyriment","Ich habe die obigen Informationen gelesen und verstanden.","legacy","legacy","0","uniform","1","0","0","undefined","undefined","1","j","2","1","NA","0","1","0","0","0","0","0","0","0","0","19","19","19","0","0","0","NA","0","0","2","0","0","0","2","19","19","19","19","19","Wed Oct  4 18:22:25 2017","Forced-choice identification task with a practice and an experimental phase","yes","NAP_GER_AA_4blocks_noglides.osexp","/Users/aviadalbert/Documents/Academisch/UoC/Dissertation/Experiment/OpenSesame/NAP-FC/NAP_GER_AA_4blocks_noglides","yes","no","sans","no","20","no","black","no","Weiter","yes","768","legacy","9","9","0","/Users/aviadalbert/Documents/Academisch/UoC/Dissertation/Experiment/OpenSesame/NAP-FC/NAP_GER_AA_4blocks_noglides/subject-7.csv","xpyriment","Jazzy James","3.1.9","yes","yes","59a800d99ad5a1025d81bb03","59a801616c613b0251691de0","no","no","0","j","j","space","NA","h","h","j","1822","2892","29049","NA","39611","16453","1822","2","legacy","1024","1","44100","-16","experiment","semal","4","2","1","0","1","Englisch, Indonesisch, Franzoesisch","7","","odd","17254685","17225108","NA","NA","17257578","17254681","NA","17014169","17254216","17014170","17014169","17129545","17169161","17289269","17287765","17291093","17190810","17185905","17225108","NA","17035704","17115221","17223453","17185687","17254685","17185908","NA","17289269","17289269","NA","NA","17287761","NAP perception","9","15778","10","yes","1024"
"90.9090909091","yes","90.9090909091","1540.09090909","1540.09090909","white","no","xpyriment","Ich habe die obigen Informationen gelesen und verstanden.","legacy","legacy","0","uniform","1","0","0","undefined","undefined","1","j","2","1","NA","0","1","0","0","0","0","0","0","0","0","20","20","20","0","0","0","NA","0","0","2","0","0","0","2","20","20","20","20","20","Wed Oct  4 18:22:25 2017","Forced-choice identification task with a practice and an experimental phase","yes","NAP_GER_AA_4blocks_noglides.osexp","/Users/aviadalbert/Documents/Academisch/UoC/Dissertation/Experiment/OpenSesame/NAP-FC/NAP_GER_AA_4blocks_noglides","yes","no","sans","no","20","no","black","no","Weiter","yes","768","legacy","10","9","0","/Users/aviadalbert/Documents/Academisch/UoC/Dissertation/Experiment/OpenSesame/NAP-FC/NAP_GER_AA_4blocks_noglides/subject-7.csv","xpyriment","Jazzy James","3.1.9","yes","yes","59a800d99ad5a1025d81bb03","59a801616c613b0251691de0","no","no","0","j","j","space","NA","h","h","j","1163","2892","29049","NA","39611","16453","1163","2","legacy","1024","1","44100","-16","experiment","nemal","4","2","1","0","1","Englisch, Indonesisch, Franzoesisch","7","","odd","17254685","17225108","NA","NA","17257578","17254681","NA","17014169","17254216","17014170","17014169","17129545","17169161","17292879","17291374","17294044","17190810","17185905","17225108","NA","17035704","17115221","17223453","17185687","17254685","17185908","NA","17292878","17292878","NA","NA","17291370","NAP perception","10","16941","11","yes","1024"
"83.3333333333","yes","83.3333333333","1501.33333333","1501.33333333","white","no","xpyriment","Ich habe die obigen Informationen gelesen und verstanden.","legacy","legacy","0","uniform","0","0","0","undefined","undefined","0","f","2","1","NA","0","1","0","0","0","0","0","0","0","0","21","21","21","0","0","0","NA","0","0","2","0","0","0","2","21","21","21","21","21","Wed Oct  4 18:22:25 2017","Forced-choice identification task with a practice and an experimental phase","yes","NAP_GER_AA_4blocks_noglides.osexp","/Users/aviadalbert/Documents/Academisch/UoC/Dissertation/Experiment/OpenSesame/NAP-FC/NAP_GER_AA_4blocks_noglides","yes","no","sans","no","20","no","black","no","Weiter","yes","768","legacy","11","9","0","/Users/aviadalbert/Documents/Academisch/UoC/Dissertation/Experiment/OpenSesame/NAP-FC/NAP_GER_AA_4blocks_noglides/subject-7.csv","xpyriment","Jazzy James","3.1.9","yes","yes","59a800d99ad5a1025d81bb03","59a801616c613b0251691de0","no","no","0","j","j","space","NA","h","h","j","1075","2892","29049","NA","39611","16453","1075","2","legacy","1024","1","44100","-16","experiment","lpal","4","2","1","0","1","Englisch, Indonesisch, Franzoesisch","7","","odd","17254685","17225108","NA","NA","17257578","17254681","NA","17014169","17254216","17014170","17014169","17129545","17169161","17295829","17294326","17296906","17190810","17185905","17225108","NA","17035704","17115221","17223453","17185687","17254685","17185908","NA","17295829","17295829","NA","NA","17294322","NAP perception","10","18016","12","yes","1024"
"84.6153846154","yes","84.6153846154","1474.92307692","1474.92307692","white","no","xpyriment","Ich habe die obigen Informationen gelesen und verstanden.","legacy","legacy","0","uniform","1","0","0","undefined","undefined","1","j","2","1","NA","0","1","0","0","0","0","0","0","0","0","22","22","22","0","0","0","NA","0","0","2","0","0","0","2","22","22","22","22","22","Wed Oct  4 18:22:25 2017","Forced-choice identification task with a practice and an experimental phase","yes","NAP_GER_AA_4blocks_noglides.osexp","/Users/aviadalbert/Documents/Academisch/UoC/Dissertation/Experiment/OpenSesame/NAP-FC/NAP_GER_AA_4blocks_noglides","yes","no","sans","no","20","no","black","no","Weiter","yes","768","legacy","12","9","0","/Users/aviadalbert/Documents/Academisch/UoC/Dissertation/Experiment/OpenSesame/NAP-FC/NAP_GER_AA_4blocks_noglides/subject-7.csv","xpyriment","Jazzy James","3.1.9","yes","yes","59a800d99ad5a1025d81bb03","59a801616c613b0251691de0","no","no","0","j","j","space","NA","h","h","j","1158","2892","29049","NA","39611","16453","1158","2","legacy","1024","1","44100","-16","experiment","enfal","4","2","1","0","1","Englisch, Indonesisch, Franzoesisch","7","","odd","17254685","17225108","NA","NA","17257578","17254681","NA","17014169","17254216","17014170","17014169","17129545","17169161","17298693","17297190","17299852","17190810","17185905","17225108","NA","17035704","17115221","17223453","17185687","17254685","17185908","NA","17298693","17298693","NA","NA","17297186","NAP perception","11","19174","13","yes","1024"
"85.7142857143","yes","85.7142857143","1457.21428571","1457.21428571","white","no","xpyriment","Ich habe die obigen Informationen gelesen und verstanden.","legacy","legacy","0","uniform","1","0","0","undefined","undefined","1","j","2","1","NA","0","1","0","0","0","0","0","0","0","0","23","23","23","0","0","0","NA","0","0","2","0","0","0","2","23","23","23","23","23","Wed Oct  4 18:22:25 2017","Forced-choice identification task with a practice and an experimental phase","yes","NAP_GER_AA_4blocks_noglides.osexp","/Users/aviadalbert/Documents/Academisch/UoC/Dissertation/Experiment/OpenSesame/NAP-FC/NAP_GER_AA_4blocks_noglides","yes","no","sans","no","20","no","black","no","Weiter","yes","768","legacy","13","9","0","/Users/aviadalbert/Documents/Academisch/UoC/Dissertation/Experiment/OpenSesame/NAP-FC/NAP_GER_AA_4blocks_noglides/subject-7.csv","xpyriment","Jazzy James","3.1.9","yes","yes","59a800d99ad5a1025d81bb03","59a801616c613b0251691de0","no","no","0","j","j","space","NA","h","h","j","1227","2892","29049","NA","39611","16453","1227","2","legacy","1024","1","44100","-16","experiment","lepal","4","2","1","0","1","Englisch, Indonesisch, Franzoesisch","7","","odd","17254685","17225108","NA","NA","17257578","17254681","NA","17014169","17254216","17014170","17014169","17129545","17169161","17301643","17300139","17302871","17190810","17185905","17225108","NA","17035704","17115221","17223453","17185687","17254685","17185908","NA","17301643","17301643","NA","NA","17300135","NAP perception","12","20401","14","yes","1024"
"86.6666666667","yes","86.6666666667","1436.26666667","1436.26666667","white","no","xpyriment","Ich habe die obigen Informationen gelesen und verstanden.","legacy","legacy","0","uniform","1","0","0","undefined","undefined","1","j","2","1","NA","0","1","0","0","0","0","0","0","0","0","24","24","24","0","0","0","NA","0","0","2","0","0","0","2","24","24","24","24","24","Wed Oct  4 18:22:25 2017","Forced-choice identification task with a practice and an experimental phase","yes","NAP_GER_AA_4blocks_noglides.osexp","/Users/aviadalbert/Documents/Academisch/UoC/Dissertation/Experiment/OpenSesame/NAP-FC/NAP_GER_AA_4blocks_noglides","yes","no","sans","no","20","no","black","no","Weiter","yes","768","legacy","14","9","0","/Users/aviadalbert/Documents/Academisch/UoC/Dissertation/Experiment/OpenSesame/NAP-FC/NAP_GER_AA_4blocks_noglides/subject-7.csv","xpyriment","Jazzy James","3.1.9","yes","yes","59a800d99ad5a1025d81bb03","59a801616c613b0251691de0","no","no","0","j","j","space","NA","h","h","j","1143","2892","29049","NA","39611","16453","1143","2","legacy","1024","1","44100","-16","experiment","evnal","4","2","1","0","1","Englisch, Indonesisch, Franzoesisch","7","","odd","17254685","17225108","NA","NA","17257578","17254681","NA","17014169","17254216","17014170","17014169","17129545","17169161","17304645","17303137","17305790","17190810","17185905","17225108","NA","17035704","17115221","17223453","17185687","17254685","17185908","NA","17304644","17304645","NA","NA","17303133","NAP perception","13","21544","15","yes","1024"
"87.5","yes","87.5","1420.125","1420.125","white","no","xpyriment","Ich habe die obigen Informationen gelesen und verstanden.","legacy","legacy","0","uniform","1","0","0","undefined","undefined","1","f","2","1","NA","0","1","0","0","0","0","0","0","0","0","25","25","25","0","0","0","NA","0","0","2","0","0","0","2","25","25","25","25","25","Wed Oct  4 18:22:25 2017","Forced-choice identification task with a practice and an experimental phase","yes","NAP_GER_AA_4blocks_noglides.osexp","/Users/aviadalbert/Documents/Academisch/UoC/Dissertation/Experiment/OpenSesame/NAP-FC/NAP_GER_AA_4blocks_noglides","yes","no","sans","no","20","no","black","no","Weiter","yes","768","legacy","15","9","0","/Users/aviadalbert/Documents/Academisch/UoC/Dissertation/Experiment/OpenSesame/NAP-FC/NAP_GER_AA_4blocks_noglides/subject-7.csv","xpyriment","Jazzy James","3.1.9","yes","yes","59a800d99ad5a1025d81bb03","59a801616c613b0251691de0","no","no","0","f","j","space","NA","h","h","f","1178","2892","29049","NA","39611","16453","1178","2","legacy","1024","1","44100","-16","experiment","ʃpal","4","2","1","0","1","Englisch, Indonesisch, Franzoesisch","7","","odd","17254685","17225108","NA","NA","17257578","17254681","NA","17014169","17254216","17014170","17014169","17129545","17169161","17307576","17306072","17308755","17190810","17185905","17225108","NA","17035704","17115221","17223453","17185687","17254685","17185908","NA","17307576","17307576","NA","NA","17306068","NAP perception","14","22722","16","yes","1024"
"88.2352941176","yes","88.2352941176","1392.23529412","1392.23529412","white","no","xpyriment","Ich habe die obigen Informationen gelesen und verstanden.","legacy","legacy","0","uniform","1","0","0","undefined","undefined","1","j","2","1","NA","0","1","0","0","0","0","0","0","0","0","26","26","26","0","0","0","NA","0","0","2","0","0","0","2","26","26","26","26","26","Wed Oct  4 18:22:25 2017","Forced-choice identification task with a practice and an experimental phase","yes","NAP_GER_AA_4blocks_noglides.osexp","/Users/aviadalbert/Documents/Academisch/UoC/Dissertation/Experiment/OpenSesame/NAP-FC/NAP_GER_AA_4blocks_noglides","yes","no","sans","no","20","no","black","no","Weiter","yes","768","legacy","16","9","0","/Users/aviadalbert/Documents/Academisch/UoC/Dissertation/Experiment/OpenSesame/NAP-FC/NAP_GER_AA_4blocks_noglides/subject-7.csv","xpyriment","Jazzy James","3.1.9","yes","yes","59a800d99ad5a1025d81bb03","59a801616c613b0251691de0","no","no","0","j","j","space","NA","h","h","j","946","2892","29049","NA","39611","16453","946","2","legacy","1024","1","44100","-16","experiment","ezval","4","2","1","0","1","Englisch, Indonesisch, Franzoesisch","7","","odd","17254685","17225108","NA","NA","17257578","17254681","NA","17014169","17254216","17014170","17014169","17129545","17169161","17310550","17309046","17311497","17190810","17185905","17225108","NA","17035704","17115221","17223453","17185687","17254685","17185908","NA","17310550","17310550","NA","NA","17309042","NAP perception","15","23668","17","yes","1024"
"88.8888888889","yes","88.8888888889","1432.33333333","1432.33333333","white","no","xpyriment","Ich habe die obigen Informationen gelesen und verstanden.","legacy","legacy","0","uniform","1","0","0","undefined","undefined","1","f","2","1","NA","0","1","0","0","0","0","0","0","0","0","27","27","27","0","0","0","NA","0","0","2","0","0","0","2","27","27","27","27","27","Wed Oct  4 18:22:25 2017","Forced-choice identification task with a practice and an experimental phase","yes","NAP_GER_AA_4blocks_noglides.osexp","/Users/aviadalbert/Documents/Academisch/UoC/Dissertation/Experiment/OpenSesame/NAP-FC/NAP_GER_AA_4blocks_noglides","yes","no","sans","no","20","no","black","no","Weiter","yes","768","legacy","17","9","0","/Users/aviadalbert/Documents/Academisch/UoC/Dissertation/Experiment/OpenSesame/NAP-FC/NAP_GER_AA_4blocks_noglides/subject-7.csv","xpyriment","Jazzy James","3.1.9","yes","yes","59a800d99ad5a1025d81bb03","59a801616c613b0251691de0","no","no","0","f","j","space","NA","h","h","f","2114","2892","29049","NA","39611","16453","2114","2","legacy","1024","1","44100","-16","experiment","msal","4","2","1","0","1","Englisch, Indonesisch, Franzoesisch","7","","odd","17254685","17225108","NA","NA","17257578","17254681","NA","17014169","17254216","17014170","17014169","17129545","17169161","17313276","17311769","17315391","17190810","17185905","17225108","NA","17035704","17115221","17223453","17185687","17254685","17185908","NA","17313276","17313276","NA","NA","17311765","NAP perception","16","25782","18","yes","1024"
"89.4736842105","yes","89.4736842105","1437.47368421","1437.47368421","white","no","xpyriment","Ich habe die obigen Informationen gelesen und verstanden.","legacy","legacy","0","uniform","1","0","0","undefined","undefined","1","f","2","1","NA","0","1","0","0","0","0","0","0","0","0","28","28","28","0","0","0","NA","0","0","2","0","0","0","2","28","28","28","28","28","Wed Oct  4 18:22:25 2017","Forced-choice identification task with a practice and an experimental phase","yes","NAP_GER_AA_4blocks_noglides.osexp","/Users/aviadalbert/Documents/Academisch/UoC/Dissertation/Experiment/OpenSesame/NAP-FC/NAP_GER_AA_4blocks_noglides","yes","no","sans","no","20","no","black","no","Weiter","yes","768","legacy","18","9","0","/Users/aviadalbert/Documents/Academisch/UoC/Dissertation/Experiment/OpenSesame/NAP-FC/NAP_GER_AA_4blocks_noglides/subject-7.csv","xpyriment","Jazzy James","3.1.9","yes","yes","59a800d99ad5a1025d81bb03","59a801616c613b0251691de0","no","no","0","f","j","space","NA","h","h","f","1530","2892","29049","NA","39611","16453","1530","2","legacy","1024","1","44100","-16","experiment","mzal","4","2","1","0","1","Englisch, Indonesisch, Franzoesisch","7","","odd","17254685","17225108","NA","NA","17257578","17254681","NA","17014169","17254216","17014170","17014169","17129545","17169161","17317171","17315668","17318702","17190810","17185905","17225108","NA","17035704","17115221","17223453","17185687","17254685","17185908","NA","17317171","17317171","NA","NA","17315664","NAP perception","17","27312","19","yes","1024"
"90","yes","90","1424.35","1424.35","white","no","xpyriment","Ich habe die obigen Informationen gelesen und verstanden.","legacy","legacy","0","uniform","1","0","0","undefined","undefined","1","f","2","1","NA","0","1","0","0","0","0","0","0","0","0","29","29","29","0","0","0","NA","0","0","2","0","0","0","2","29","29","29","29","29","Wed Oct  4 18:22:25 2017","Forced-choice identification task with a practice and an experimental phase","yes","NAP_GER_AA_4blocks_noglides.osexp","/Users/aviadalbert/Documents/Academisch/UoC/Dissertation/Experiment/OpenSesame/NAP-FC/NAP_GER_AA_4blocks_noglides","yes","no","sans","no","20","no","black","no","Weiter","yes","768","legacy","19","9","0","/Users/aviadalbert/Documents/Academisch/UoC/Dissertation/Experiment/OpenSesame/NAP-FC/NAP_GER_AA_4blocks_noglides/subject-7.csv","xpyriment","Jazzy James","3.1.9","yes","yes","59a800d99ad5a1025d81bb03","59a801616c613b0251691de0","no","no","0","f","j","space","NA","h","h","f","1175","2892","29049","NA","39611","16453","1175","2","legacy","1024","1","44100","-16","experiment","flal","4","2","1","0","1","Englisch, Indonesisch, Franzoesisch","7","","odd","17254685","17225108","NA","NA","17257578","17254681","NA","17014169","17254216","17014170","17014169","17129545","17169161","17320488","17318983","17321665","17190810","17185905","17225108","NA","17035704","17115221","17223453","17185687","17254685","17185908","NA","17320488","17320488","NA","NA","17318979","NAP perception","18","28487","20","yes","1024"
"90.4761904762","yes","90.4761904762","1418","1418","white","no","xpyriment","Ich habe die obigen Informationen gelesen und verstanden.","legacy","legacy","0","uniform","1","0","0","undefined","undefined","1","j","2","1","NA","0","1","0","0","0","0","0","0","0","0","30","30","30","0","0","0","NA","0","0","2","0","0","0","2","30","30","30","30","30","Wed Oct  4 18:22:25 2017","Forced-choice identification task with a practice and an experimental phase","yes","NAP_GER_AA_4blocks_noglides.osexp","/Users/aviadalbert/Documents/Academisch/UoC/Dissertation/Experiment/OpenSesame/NAP-FC/NAP_GER_AA_4blocks_noglides","yes","no","sans","no","20","no","black","no","Weiter","yes","768","legacy","20","9","0","/Users/aviadalbert/Documents/Academisch/UoC/Dissertation/Experiment/OpenSesame/NAP-FC/NAP_GER_AA_4blocks_noglides/subject-7.csv","xpyriment","Jazzy James","3.1.9","yes","yes","59a800d99ad5a1025d81bb03","59a801616c613b0251691de0","no","no","0","j","j","space","NA","h","h","j","1291","2892","29049","NA","39611","16453","1291","2","legacy","1024","1","44100","-16","experiment","lekal","4","2","1","0","1","Englisch, Indonesisch, Franzoesisch","7","","odd","17254685","17225108","NA","NA","17257578","17254681","NA","17014169","17254216","17014170","17014169","17129545","17169161","17323438","17321935","17324731","17190810","17185905","17225108","NA","17035704","17115221","17223453","17185687","17254685","17185908","NA","17323438","17323438","NA","NA","17321931","NAP perception","19","29778","21","yes","1024"
"86.3636363636","yes","86.3636363636","1432.59090909","1432.59090909","white","no","xpyriment","Ich habe die obigen Informationen gelesen und verstanden.","legacy","legacy","0","uniform","0","0","0","undefined","undefined","0","f","2","1","NA","0","1","0","0","0","0","0","0","0","0","31","31","31","0","0","0","NA","0","0","2","0","0","0","2","31","31","31","31","31","Wed Oct  4 18:22:25 2017","Forced-choice identification task with a practice and an experimental phase","yes","NAP_GER_AA_4blocks_noglides.osexp","/Users/aviadalbert/Documents/Academisch/UoC/Dissertation/Experiment/OpenSesame/NAP-FC/NAP_GER_AA_4blocks_noglides","yes","no","sans","no","20","no","black","no","Weiter","yes","768","legacy","21","9","0","/Users/aviadalbert/Documents/Academisch/UoC/Dissertation/Experiment/OpenSesame/NAP-FC/NAP_GER_AA_4blocks_noglides/subject-7.csv","xpyriment","Jazzy James","3.1.9","yes","yes","59a800d99ad5a1025d81bb03","59a801616c613b0251691de0","no","no","0","j","j","space","NA","h","h","j","1739","2892","29049","NA","39611","16453","1739","2","legacy","1024","1","44100","-16","experiment","nfal","4","2","1","0","1","Englisch, Indonesisch, Franzoesisch","7","","odd","17254685","17225108","NA","NA","17257578","17254681","NA","17014169","17254216","17014170","17014169","17129545","17169161","17326523","17325019","17328264","17190810","17185905","17225108","NA","17035704","17115221","17223453","17185687","17254685","17185908","NA","17326523","17326523","NA","NA","17325015","NAP perception","19","31517","22","yes","1024"
"86.9565217391","yes","86.9565217391","1417.56521739","1417.56521739","white","no","xpyriment","Ich habe die obigen Informationen gelesen und verstanden.","legacy","legacy","0","uniform","1","0","0","undefined","undefined","1","j","2","1","NA","0","1","0","0","0","0","0","0","0","0","32","32","32","0","0","0","NA","0","0","2","0","0","0","2","32","32","32","32","32","Wed Oct  4 18:22:25 2017","Forced-choice identification task with a practice and an experimental phase","yes","NAP_GER_AA_4blocks_noglides.osexp","/Users/aviadalbert/Documents/Academisch/UoC/Dissertation/Experiment/OpenSesame/NAP-FC/NAP_GER_AA_4blocks_noglides","yes","no","sans","no","20","no","black","no","Weiter","yes","768","legacy","22","9","0","/Users/aviadalbert/Documents/Academisch/UoC/Dissertation/Experiment/OpenSesame/NAP-FC/NAP_GER_AA_4blocks_noglides/subject-7.csv","xpyriment","Jazzy James","3.1.9","yes","yes","59a800d99ad5a1025d81bb03","59a801616c613b0251691de0","no","no","0","j","j","space","NA","h","h","j","1087","2892","29049","NA","39611","16453","1087","2","legacy","1024","1","44100","-16","experiment","emzal","4","2","1","0","1","Englisch, Indonesisch, Franzoesisch","7","","odd","17254685","17225108","NA","NA","17257578","17254681","NA","17014169","17254216","17014170","17014169","17129545","17169161","17330045","17328542","17331133","17190810","17185905","17225108","NA","17035704","17115221","17223453","17185687","17254685","17185908","NA","17330045","17330045","NA","NA","17328537","NAP perception","20","32604","23","yes","1024"
"87.5","yes","87.5","1412.83333333","1412.83333333","white","no","xpyriment","Ich habe die obigen Informationen gelesen und verstanden.","legacy","legacy","0","uniform","1","0","0","undefined","undefined","1","j","2","1","NA","0","1","0","0","0","0","0","0","0","0","33","33","33","0","0","0","NA","0","0","2","0","0","0","2","33","33","33","33","33","Wed Oct  4 18:22:25 2017","Forced-choice identification task with a practice and an experimental phase","yes","NAP_GER_AA_4blocks_noglides.osexp","/Users/aviadalbert/Documents/Academisch/UoC/Dissertation/Experiment/OpenSesame/NAP-FC/NAP_GER_AA_4blocks_noglides","yes","no","sans","no","20","no","black","no","Weiter","yes","768","legacy","23","9","0","/Users/aviadalbert/Documents/Academisch/UoC/Dissertation/Experiment/OpenSesame/NAP-FC/NAP_GER_AA_4blocks_noglides/subject-7.csv","xpyriment","Jazzy James","3.1.9","yes","yes","59a800d99ad5a1025d81bb03","59a801616c613b0251691de0","no","no","0","j","j","space","NA","h","h","j","1304","2892","29049","NA","39611","16453","1304","2","legacy","1024","1","44100","-16","experiment","fetal","4","2","1","0","1","Englisch, Indonesisch, Franzoesisch","7","","odd","17254685","17225108","NA","NA","17257578","17254681","NA","17014169","17254216","17014170","17014169","17129545","17169161","17332914","17331410","17334220","17190810","17185905","17225108","NA","17035704","17115221","17223453","17185687","17254685","17185908","NA","17332914","17332914","NA","NA","17331406","NAP perception","21","33908","24","yes","1024"
"88","yes","88","1398.4","1398.4","white","no","xpyriment","Ich habe die obigen Informationen gelesen und verstanden.","legacy","legacy","0","uniform","1","0","0","undefined","undefined","1","f","2","1","NA","0","1","0","0","0","0","0","0","0","0","34","34","34","0","0","0","NA","0","0","2","0","0","0","2","34","34","34","34","34","Wed Oct  4 18:22:25 2017","Forced-choice identification task with a practice and an experimental phase","yes","NAP_GER_AA_4blocks_noglides.osexp","/Users/aviadalbert/Documents/Academisch/UoC/Dissertation/Experiment/OpenSesame/NAP-FC/NAP_GER_AA_4blocks_noglides","yes","no","sans","no","20","no","black","no","Weiter","yes","768","legacy","24","9","0","/Users/aviadalbert/Documents/Academisch/UoC/Dissertation/Experiment/OpenSesame/NAP-FC/NAP_GER_AA_4blocks_noglides/subject-7.csv","xpyriment","Jazzy James","3.1.9","yes","yes","59a800d99ad5a1025d81bb03","59a801616c613b0251691de0","no","no","0","f","j","space","NA","h","h","f","1052","2892","29049","NA","39611","16453","1052","2","legacy","1024","1","44100","-16","experiment","sfal","4","2","1","0","1","Englisch, Indonesisch, Franzoesisch","7","","odd","17254685","17225108","NA","NA","17257578","17254681","NA","17014169","17254216","17014170","17014169","17129545","17169161","17336012","17334509","17337065","17190810","17185905","17225108","NA","17035704","17115221","17223453","17185687","17254685","17185908","NA","17336012","17336012","NA","NA","17334505","NAP perception","22","34960","25","yes","1024"
"88.4615384615","yes","88.4615384615","1410.92307692","1410.92307692","white","no","xpyriment","Ich habe die obigen Informationen gelesen und verstanden.","legacy","legacy","0","uniform","1","0","0","undefined","undefined","1","f","2","1","NA","0","1","0","0","0","0","0","0","0","0","35","35","35","0","0","0","NA","0","0","2","0","0","0","2","35","35","35","35","35","Wed Oct  4 18:22:25 2017","Forced-choice identification task with a practice and an experimental phase","yes","NAP_GER_AA_4blocks_noglides.osexp","/Users/aviadalbert/Documents/Academisch/UoC/Dissertation/Experiment/OpenSesame/NAP-FC/NAP_GER_AA_4blocks_noglides","yes","no","sans","no","20","no","black","no","Weiter","yes","768","legacy","25","9","0","/Users/aviadalbert/Documents/Academisch/UoC/Dissertation/Experiment/OpenSesame/NAP-FC/NAP_GER_AA_4blocks_noglides/subject-7.csv","xpyriment","Jazzy James","3.1.9","yes","yes","59a800d99ad5a1025d81bb03","59a801616c613b0251691de0","no","no","0","f","j","space","NA","h","h","f","1724","2892","29049","NA","39611","16453","1724","2","legacy","1024","1","44100","-16","experiment","smal","4","2","1","0","1","Englisch, Indonesisch, Franzoesisch","7","","odd","17254685","17225108","NA","NA","17257578","17254681","NA","17014169","17254216","17014170","17014169","17129545","17169161","17338847","17337344","17340573","17190810","17185905","17225108","NA","17035704","17115221","17223453","17185687","17254685","17185908","NA","17338847","17338847","NA","NA","17337340","NAP perception","23","36684","26","yes","1024"
"88.8888888889","yes","88.8888888889","1411.77777778","1411.77777778","white","no","xpyriment","Ich habe die obigen Informationen gelesen und verstanden.","legacy","legacy","0","uniform","1","0","0","undefined","undefined","1","j","2","1","NA","0","1","0","0","0","0","0","0","0","0","36","36","36","0","0","0","NA","0","0","2","0","0","0","2","36","36","36","36","36","Wed Oct  4 18:22:25 2017","Forced-choice identification task with a practice and an experimental phase","yes","NAP_GER_AA_4blocks_noglides.osexp","/Users/aviadalbert/Documents/Academisch/UoC/Dissertation/Experiment/OpenSesame/NAP-FC/NAP_GER_AA_4blocks_noglides","yes","no","sans","no","20","no","black","no","Weiter","yes","768","legacy","26","9","0","/Users/aviadalbert/Documents/Academisch/UoC/Dissertation/Experiment/OpenSesame/NAP-FC/NAP_GER_AA_4blocks_noglides/subject-7.csv","xpyriment","Jazzy James","3.1.9","yes","yes","59a800d99ad5a1025d81bb03","59a801616c613b0251691de0","no","no","0","j","j","space","NA","h","h","j","1434","2892","29049","NA","39611","16453","1434","2","legacy","1024","1","44100","-16","experiment","leval","4","2","1","0","1","Englisch, Indonesisch, Franzoesisch","7","","odd","17254685","17225108","NA","NA","17257578","17254681","NA","17014169","17254216","17014170","17014169","17129545","17169161","17342353","17340850","17343788","17190810","17185905","17225108","NA","17035704","17115221","17223453","17185687","17254685","17185908","NA","17342353","17342353","NA","NA","17340846","NAP perception","24","38118","27","yes","1024"
"89.2857142857","yes","89.2857142857","1398.60714286","1398.60714286","white","no","xpyriment","Ich habe die obigen Informationen gelesen und verstanden.","legacy","legacy","0","uniform","1","0","0","undefined","undefined","1","j","2","1","NA","0","1","0","0","0","0","0","0","0","0","37","37","37","0","0","0","NA","0","0","2","0","0","0","2","37","37","37","37","37","Wed Oct  4 18:22:25 2017","Forced-choice identification task with a practice and an experimental phase","yes","NAP_GER_AA_4blocks_noglides.osexp","/Users/aviadalbert/Documents/Academisch/UoC/Dissertation/Experiment/OpenSesame/NAP-FC/NAP_GER_AA_4blocks_noglides","yes","no","sans","no","20","no","black","no","Weiter","yes","768","legacy","27","9","0","/Users/aviadalbert/Documents/Academisch/UoC/Dissertation/Experiment/OpenSesame/NAP-FC/NAP_GER_AA_4blocks_noglides/subject-7.csv","xpyriment","Jazzy James","3.1.9","yes","yes","59a800d99ad5a1025d81bb03","59a801616c613b0251691de0","no","no","0","j","j","space","NA","h","h","j","1043","2892","29049","NA","39611","16453","1043","2","legacy","1024","1","44100","-16","experiment","lemal","4","2","1","0","1","Englisch, Indonesisch, Franzoesisch","7","","odd","17254685","17225108","NA","NA","17257578","17254681","NA","17014169","17254216","17014170","17014169","17129545","17169161","17345567","17344060","17346611","17190810","17185905","17225108","NA","17035704","17115221","17223453","17185687","17254685","17185908","NA","17345567","17345567","NA","NA","17344055","NAP perception","25","39161","28","yes","1024"
"89.6551724138","yes","89.6551724138","1402.31034483","1402.31034483","white","no","xpyriment","Ich habe die obigen Informationen gelesen und verstanden.","legacy","legacy","0","uniform","1","0","0","undefined","undefined","1","j","2","1","NA","0","1","0","0","0","0","0","0","0","0","38","38","38","0","0","0","NA","0","0","2","0","0","0","2","38","38","38","38","38","Wed Oct  4 18:22:25 2017","Forced-choice identification task with a practice and an experimental phase","yes","NAP_GER_AA_4blocks_noglides.osexp","/Users/aviadalbert/Documents/Academisch/UoC/Dissertation/Experiment/OpenSesame/NAP-FC/NAP_GER_AA_4blocks_noglides","yes","no","sans","no","20","no","black","no","Weiter","yes","768","legacy","28","9","0","/Users/aviadalbert/Documents/Academisch/UoC/Dissertation/Experiment/OpenSesame/NAP-FC/NAP_GER_AA_4blocks_noglides/subject-7.csv","xpyriment","Jazzy James","3.1.9","yes","yes","59a800d99ad5a1025d81bb03","59a801616c613b0251691de0","no","no","0","j","j","space","NA","h","h","j","1506","2892","29049","NA","39611","16453","1506","2","legacy","1024","1","44100","-16","experiment","eflal","4","2","1","0","1","Englisch, Indonesisch, Franzoesisch","7","","odd","17254685","17225108","NA","NA","17257578","17254681","NA","17014169","17254216","17014170","17014169","17129545","17169161","17348386","17346882","17349893","17190810","17185905","17225108","NA","17035704","17115221","17223453","17185687","17254685","17185908","NA","17348386","17348386","NA","NA","17346878","NAP perception","26","40667","29","yes","1024"
"90","yes","90","1410","1410","white","no","xpyriment","Ich habe die obigen Informationen gelesen und verstanden.","legacy","legacy","0","uniform","1","0","0","undefined","undefined","1","f","2","1","NA","0","1","0","0","0","0","0","0","0","0","39","39","39","0","0","0","NA","0","0","2","0","0","0","2","39","39","39","39","39","Wed Oct  4 18:22:25 2017","Forced-choice identification task with a practice and an experimental phase","yes","NAP_GER_AA_4blocks_noglides.osexp","/Users/aviadalbert/Documents/Academisch/UoC/Dissertation/Experiment/OpenSesame/NAP-FC/NAP_GER_AA_4blocks_noglides","yes","no","sans","no","20","no","black","no","Weiter","yes","768","legacy","29","9","0","/Users/aviadalbert/Documents/Academisch/UoC/Dissertation/Experiment/OpenSesame/NAP-FC/NAP_GER_AA_4blocks_noglides/subject-7.csv","xpyriment","Jazzy James","3.1.9","yes","yes","59a800d99ad5a1025d81bb03","59a801616c613b0251691de0","no","no","0","f","j","space","NA","h","h","f","1633","2892","29049","NA","39611","16453","1633","2","legacy","1024","1","44100","-16","experiment","ʃmal","4","2","1","0","1","Englisch, Indonesisch, Franzoesisch","7","","odd","17254685","17225108","NA","NA","17257578","17254681","NA","17014169","17254216","17014170","17014169","17129545","17169161","17351691","17350186","17353326","17190810","17185905","17225108","NA","17035704","17115221","17223453","17185687","17254685","17185908","NA","17351691","17351691","NA","NA","17350182","NAP perception","27","42300","30","yes","1024"
"90.3225806452","yes","90.3225806452","1413.48387097","1413.48387097","white","no","xpyriment","Ich habe die obigen Informationen gelesen und verstanden.","legacy","legacy","0","uniform","1","0","0","undefined","undefined","1","j","2","1","NA","0","1","0","0","0","0","0","0","0","0","40","40","40","0","0","0","NA","0","0","2","0","0","0","2","40","40","40","40","40","Wed Oct  4 18:22:25 2017","Forced-choice identification task with a practice and an experimental phase","yes","NAP_GER_AA_4blocks_noglides.osexp","/Users/aviadalbert/Documents/Academisch/UoC/Dissertation/Experiment/OpenSesame/NAP-FC/NAP_GER_AA_4blocks_noglides","yes","no","sans","no","20","no","black","no","Weiter","yes","768","legacy","30","9","0","/Users/aviadalbert/Documents/Academisch/UoC/Dissertation/Experiment/OpenSesame/NAP-FC/NAP_GER_AA_4blocks_noglides/subject-7.csv","xpyriment","Jazzy James","3.1.9","yes","yes","59a800d99ad5a1025d81bb03","59a801616c613b0251691de0","no","no","0","j","j","space","NA","h","h","j","1518","2892","29049","NA","39611","16453","1518","2","legacy","1024","1","44100","-16","experiment","espal","4","2","1","0","1","Englisch, Indonesisch, Franzoesisch","7","","odd","17254685","17225108","NA","NA","17257578","17254681","NA","17014169","17254216","17014170","17014169","17129545","17169161","17355107","17353602","17356627","17190810","17185905","17225108","NA","17035704","17115221","17223453","17185687","17254685","17185908","NA","17355107","17355107","NA","NA","17353598","NAP perception","28","43818","31","yes","1024"
"90.625","yes","90.625","1406.40625","1406.40625","white","no","xpyriment","Ich habe die obigen Informationen gelesen und verstanden.","legacy","legacy","0","uniform","1","0","0","undefined","undefined","1","j","2","1","NA","0","1","0","0","0","0","0","0","0","0","41","41","41","0","0","0","NA","0","0","2","0","0","0","2","41","41","41","41","41","Wed Oct  4 18:22:25 2017","Forced-choice identification task with a practice and an experimental phase","yes","NAP_GER_AA_4blocks_noglides.osexp","/Users/aviadalbert/Documents/Academisch/UoC/Dissertation/Experiment/OpenSesame/NAP-FC/NAP_GER_AA_4blocks_noglides","yes","no","sans","no","20","no","black","no","Weiter","yes","768","legacy","31","9","0","/Users/aviadalbert/Documents/Academisch/UoC/Dissertation/Experiment/OpenSesame/NAP-FC/NAP_GER_AA_4blocks_noglides/subject-7.csv","xpyriment","Jazzy James","3.1.9","yes","yes","59a800d99ad5a1025d81bb03","59a801616c613b0251691de0","no","no","0","j","j","space","NA","h","h","j","1187","2892","29049","NA","39611","16453","1187","2","legacy","1024","1","44100","-16","experiment","emnal","4","2","1","0","1","Englisch, Indonesisch, Franzoesisch","7","","odd","17254685","17225108","NA","NA","17257578","17254681","NA","17014169","17254216","17014170","17014169","17129545","17169161","17358419","17356915","17359608","17190810","17185905","17225108","NA","17035704","17115221","17223453","17185687","17254685","17185908","NA","17358419","17358419","NA","NA","17356911","NAP perception","29","45005","32","yes","1024"
"90.9090909091","yes","90.9090909091","1398.84848485","1398.84848485","white","no","xpyriment","Ich habe die obigen Informationen gelesen und verstanden.","legacy","legacy","0","uniform","1","0","0","undefined","undefined","1","j","2","1","NA","0","1","0","0","0","0","0","0","0","0","42","42","42","0","0","0","NA","0","0","2","0","0","0","2","42","42","42","42","42","Wed Oct  4 18:22:25 2017","Forced-choice identification task with a practice and an experimental phase","yes","NAP_GER_AA_4blocks_noglides.osexp","/Users/aviadalbert/Documents/Academisch/UoC/Dissertation/Experiment/OpenSesame/NAP-FC/NAP_GER_AA_4blocks_noglides","yes","no","sans","no","20","no","black","no","Weiter","yes","768","legacy","32","9","0","/Users/aviadalbert/Documents/Academisch/UoC/Dissertation/Experiment/OpenSesame/NAP-FC/NAP_GER_AA_4blocks_noglides/subject-7.csv","xpyriment","Jazzy James","3.1.9","yes","yes","59a800d99ad5a1025d81bb03","59a801616c613b0251691de0","no","no","0","j","j","space","NA","h","h","j","1157","2892","29049","NA","39611","16453","1157","2","legacy","1024","1","44100","-16","experiment","emtal","4","2","1","0","1","Englisch, Indonesisch, Franzoesisch","7","","odd","17254685","17225108","NA","NA","17257578","17254681","NA","17014169","17254216","17014170","17014169","17129545","17169161","17361392","17359889","17362550","17190810","17185905","17225108","NA","17035704","17115221","17223453","17185687","17254685","17185908","NA","17361392","17361392","NA","NA","17359885","NAP perception","30","46162","33","yes","1024"
"88.2352941176","yes","88.2352941176","1400.23529412","1400.23529412","white","no","xpyriment","Ich habe die obigen Informationen gelesen und verstanden.","legacy","legacy","0","uniform","0","0","0","undefined","undefined","0","f","2","1","NA","0","1","0","0","0","0","0","0","0","0","43","43","43","0","0","0","NA","0","0","2","0","0","0","2","43","43","43","43","43","Wed Oct  4 18:22:25 2017","Forced-choice identification task with a practice and an experimental phase","yes","NAP_GER_AA_4blocks_noglides.osexp","/Users/aviadalbert/Documents/Academisch/UoC/Dissertation/Experiment/OpenSesame/NAP-FC/NAP_GER_AA_4blocks_noglides","yes","no","sans","no","20","no","black","no","Weiter","yes","768","legacy","33","9","0","/Users/aviadalbert/Documents/Academisch/UoC/Dissertation/Experiment/OpenSesame/NAP-FC/NAP_GER_AA_4blocks_noglides/subject-7.csv","xpyriment","Jazzy James","3.1.9","yes","yes","59a800d99ad5a1025d81bb03","59a801616c613b0251691de0","no","no","0","j","j","space","NA","h","h","j","1446","2892","29049","NA","39611","16453","1446","2","legacy","1024","1","44100","-16","experiment","lval","4","2","1","0","1","Englisch, Indonesisch, Franzoesisch","7","","odd","17254685","17225108","NA","NA","17257578","17254681","NA","17014169","17254216","17014170","17014169","17129545","17169161","17364316","17362812","17365763","17190810","17185905","17225108","NA","17035704","17115221","17223453","17185687","17254685","17185908","NA","17364316","17364316","NA","NA","17362809","NAP perception","30","47608","34","yes","1024"
"85.7142857143","yes","85.7142857143","1390.25714286","1390.25714286","white","no","xpyriment","Ich habe die obigen Informationen gelesen und verstanden.","legacy","legacy","0","uniform","0","0","0","undefined","undefined","0","f","2","1","NA","0","1","0","0","0","0","0","0","0","0","44","44","44","0","0","0","NA","0","0","2","0","0","0","2","44","44","44","44","44","Wed Oct  4 18:22:25 2017","Forced-choice identification task with a practice and an experimental phase","yes","NAP_GER_AA_4blocks_noglides.osexp","/Users/aviadalbert/Documents/Academisch/UoC/Dissertation/Experiment/OpenSesame/NAP-FC/NAP_GER_AA_4blocks_noglides","yes","no","sans","no","20","no","black","no","Weiter","yes","768","legacy","34","9","0","/Users/aviadalbert/Documents/Academisch/UoC/Dissertation/Experiment/OpenSesame/NAP-FC/NAP_GER_AA_4blocks_noglides/subject-7.csv","xpyriment","Jazzy James","3.1.9","yes","yes","59a800d99ad5a1025d81bb03","59a801616c613b0251691de0","no","no","0","j","j","space","NA","h","h","j","1051","2892","29049","NA","39611","16453","1051","2","legacy","1024","1","44100","-16","experiment","nfal","4","2","1","0","1","Englisch, Indonesisch, Franzoesisch","7","","odd","17254685","17225108","NA","NA","17257578","17254681","NA","17014169","17254216","17014170","17014169","17129545","17169161","17367555","17366047","17368608","17190810","17185905","17225108","NA","17035704","17115221","17223453","17185687","17254685","17185908","NA","17367555","17367555","NA","NA","17366043","NAP perception","30","48659","35","yes","1024"
"86.1111111111","yes","86.1111111111","1396.47222222","1396.47222222","white","no","xpyriment","Ich habe die obigen Informationen gelesen und verstanden.","legacy","legacy","0","uniform","1","0","0","undefined","undefined","1","f","2","1","NA","0","1","0","0","0","0","0","0","0","0","45","45","45","0","0","0","NA","0","0","2","0","0","0","2","45","45","45","45","45","Wed Oct  4 18:22:25 2017","Forced-choice identification task with a practice and an experimental phase","yes","NAP_GER_AA_4blocks_noglides.osexp","/Users/aviadalbert/Documents/Academisch/UoC/Dissertation/Experiment/OpenSesame/NAP-FC/NAP_GER_AA_4blocks_noglides","yes","no","sans","no","20","no","black","no","Weiter","yes","768","legacy","35","9","0","/Users/aviadalbert/Documents/Academisch/UoC/Dissertation/Experiment/OpenSesame/NAP-FC/NAP_GER_AA_4blocks_noglides/subject-7.csv","xpyriment","Jazzy James","3.1.9","yes","yes","59a800d99ad5a1025d81bb03","59a801616c613b0251691de0","no","no","0","f","j","space","NA","h","h","f","1614","2892","29049","NA","39611","16453","1614","2","legacy","1024","1","44100","-16","experiment","vnal","4","2","1","0","1","Englisch, Indonesisch, Franzoesisch","7","","odd","17254685","17225108","NA","NA","17257578","17254681","NA","17014169","17254216","17014170","17014169","17129545","17169161","17370391","17368886","17372006","17190810","17185905","17225108","NA","17035704","17115221","17223453","17185687","17254685","17185908","NA","17370390","17370390","NA","NA","17368882","NAP perception","31","50273","36","yes","1024"
"86.4864864865","yes","86.4864864865","1386.51351351","1386.51351351","white","no","xpyriment","Ich habe die obigen Informationen gelesen und verstanden.","legacy","legacy","0","uniform","1","0","0","undefined","undefined","1","j","2","1","NA","0","1","0","0","0","0","0","0","0","0","46","46","46","0","0","0","NA","0","0","2","0","0","0","2","46","46","46","46","46","Wed Oct  4 18:22:25 2017","Forced-choice identification task with a practice and an experimental phase","yes","NAP_GER_AA_4blocks_noglides.osexp","/Users/aviadalbert/Documents/Academisch/UoC/Dissertation/Experiment/OpenSesame/NAP-FC/NAP_GER_AA_4blocks_noglides","yes","no","sans","no","20","no","black","no","Weiter","yes","768","legacy","36","9","0","/Users/aviadalbert/Documents/Academisch/UoC/Dissertation/Experiment/OpenSesame/NAP-FC/NAP_GER_AA_4blocks_noglides/subject-7.csv","xpyriment","Jazzy James","3.1.9","yes","yes","59a800d99ad5a1025d81bb03","59a801616c613b0251691de0","no","no","0","j","j","space","NA","h","h","j","1028","2892","29049","NA","39611","16453","1028","2","legacy","1024","1","44100","-16","experiment","eftal","4","2","1","0","1","Englisch, Indonesisch, Franzoesisch","7","","odd","17254685","17225108","NA","NA","17257578","17254681","NA","17014169","17254216","17014170","17014169","17129545","17169161","17373790","17372287","17374819","17190810","17185905","17225108","NA","17035704","17115221","17223453","17185687","17254685","17185908","NA","17373790","17373790","NA","NA","17372283","NAP perception","32","51301","37","yes","1024"
"86.8421052632","yes","86.8421052632","1391.44736842","1391.44736842","white","no","xpyriment","Ich habe die obigen Informationen gelesen und verstanden.","legacy","legacy","0","uniform","1","0","0","undefined","undefined","1","f","2","1","NA","0","1","0","0","0","0","0","0","0","0","47","47","47","0","0","0","NA","0","0","2","0","0","0","2","47","47","47","47","47","Wed Oct  4 18:22:25 2017","Forced-choice identification task with a practice and an experimental phase","yes","NAP_GER_AA_4blocks_noglides.osexp","/Users/aviadalbert/Documents/Academisch/UoC/Dissertation/Experiment/OpenSesame/NAP-FC/NAP_GER_AA_4blocks_noglides","yes","no","sans","no","20","no","black","no","Weiter","yes","768","legacy","37","9","0","/Users/aviadalbert/Documents/Academisch/UoC/Dissertation/Experiment/OpenSesame/NAP-FC/NAP_GER_AA_4blocks_noglides/subject-7.csv","xpyriment","Jazzy James","3.1.9","yes","yes","59a800d99ad5a1025d81bb03","59a801616c613b0251691de0","no","no","0","f","j","space","NA","h","h","f","1574","2892","29049","NA","39611","16453","1574","2","legacy","1024","1","44100","-16","experiment","smal","4","2","1","0","1","Englisch, Indonesisch, Franzoesisch","7","","odd","17254685","17225108","NA","NA","17257578","17254681","NA","17014169","17254216","17014170","17014169","17129545","17169161","17376594","17375088","17378169","17190810","17185905","17225108","NA","17035704","17115221","17223453","17185687","17254685","17185908","NA","17376593","17376594","NA","NA","17375084","NAP perception","33","52875","38","yes","1024"
"87.1794871795","yes","87.1794871795","1384.07692308","1384.07692308","white","no","xpyriment","Ich habe die obigen Informationen gelesen und verstanden.","legacy","legacy","0","uniform","1","0","0","undefined","undefined","1","j","2","1","NA","0","1","0","0","0","0","0","0","0","0","48","48","48","0","0","0","NA","0","0","2","0","0","0","2","48","48","48","48","48","Wed Oct  4 18:22:25 2017","Forced-choice identification task with a practice and an experimental phase","yes","NAP_GER_AA_4blocks_noglides.osexp","/Users/aviadalbert/Documents/Academisch/UoC/Dissertation/Experiment/OpenSesame/NAP-FC/NAP_GER_AA_4blocks_noglides","yes","no","sans","no","20","no","black","no","Weiter","yes","768","legacy","38","9","0","/Users/aviadalbert/Documents/Academisch/UoC/Dissertation/Experiment/OpenSesame/NAP-FC/NAP_GER_AA_4blocks_noglides/subject-7.csv","xpyriment","Jazzy James","3.1.9","yes","yes","59a800d99ad5a1025d81bb03","59a801616c613b0251691de0","no","no","0","j","j","space","NA","h","h","j","1104","2892","29049","NA","39611","16453","1104","2","legacy","1024","1","44100","-16","experiment","enval","4","2","1","0","1","Englisch, Indonesisch, Franzoesisch","7","","odd","17254685","17225108","NA","NA","17257578","17254681","NA","17014169","17254216","17014170","17014169","17129545","17169161","17379955","17378448","17381060","17190810","17185905","17225108","NA","17035704","17115221","17223453","17185687","17254685","17185908","NA","17379954","17379954","NA","NA","17378444","NAP perception","34","53979","39","yes","1024"
"87.5","yes","87.5","1374.625","1374.625","white","no","xpyriment","Ich habe die obigen Informationen gelesen und verstanden.","legacy","legacy","0","uniform","1","0","0","undefined","undefined","1","j","2","1","NA","0","1","0","0","0","0","0","0","0","0","49","49","49","0","0","0","NA","0","0","2","0","0","0","2","49","49","49","49","49","Wed Oct  4 18:22:25 2017","Forced-choice identification task with a practice and an experimental phase","yes","NAP_GER_AA_4blocks_noglides.osexp","/Users/aviadalbert/Documents/Academisch/UoC/Dissertation/Experiment/OpenSesame/NAP-FC/NAP_GER_AA_4blocks_noglides","yes","no","sans","no","20","no","black","no","Weiter","yes","768","legacy","39","9","0","/Users/aviadalbert/Documents/Academisch/UoC/Dissertation/Experiment/OpenSesame/NAP-FC/NAP_GER_AA_4blocks_noglides/subject-7.csv","xpyriment","Jazzy James","3.1.9","yes","yes","59a800d99ad5a1025d81bb03","59a801616c613b0251691de0","no","no","0","j","j","space","NA","h","h","j","1006","2892","29049","NA","39611","16453","1006","2","legacy","1024","1","44100","-16","experiment","fenal","4","2","1","0","1","Englisch, Indonesisch, Franzoesisch","7","","odd","17254685","17225108","NA","NA","17257578","17254681","NA","17014169","17254216","17014170","17014169","17129545","17169161","17382846","17381343","17383854","17190810","17185905","17225108","NA","17035704","17115221","17223453","17185687","17254685","17185908","NA","17382846","17382846","NA","NA","17381339","NAP perception","35","54985","40","yes","1024"
"87.8048780488","yes","87.8048780488","1363.70731707","1363.70731707","white","no","xpyriment","Ich habe die obigen Informationen gelesen und verstanden.","legacy","legacy","0","uniform","1","0","0","undefined","undefined","1","j","2","1","NA","0","1","0","0","0","0","0","0","0","0","50","50","50","0","0","0","NA","0","0","2","0","0","0","2","50","50","50","50","50","Wed Oct  4 18:22:25 2017","Forced-choice identification task with a practice and an experimental phase","yes","NAP_GER_AA_4blocks_noglides.osexp","/Users/aviadalbert/Documents/Academisch/UoC/Dissertation/Experiment/OpenSesame/NAP-FC/NAP_GER_AA_4blocks_noglides","yes","no","sans","no","20","no","black","no","Weiter","yes","768","legacy","40","9","0","/Users/aviadalbert/Documents/Academisch/UoC/Dissertation/Experiment/OpenSesame/NAP-FC/NAP_GER_AA_4blocks_noglides/subject-7.csv","xpyriment","Jazzy James","3.1.9","yes","yes","59a800d99ad5a1025d81bb03","59a801616c613b0251691de0","no","no","0","j","j","space","NA","h","h","j","927","2892","29049","NA","39611","16453","927","2","legacy","1024","1","44100","-16","experiment","emsal","4","2","1","0","1","Englisch, Indonesisch, Franzoesisch","7","","odd","17254685","17225108","NA","NA","17257578","17254681","NA","17014169","17254216","17014170","17014169","17129545","17169161","17385636","17384132","17386565","17190810","17185905","17225108","NA","17035704","17115221","17223453","17185687","17254685","17185908","NA","17385636","17385636","NA","NA","17384128","NAP perception","36","55912","41","yes","1024"
"88.0952380952","yes","88.0952380952","1364.97619048","1364.97619048","white","no","xpyriment","Ich habe die obigen Informationen gelesen und verstanden.","legacy","legacy","0","uniform","1","0","0","undefined","undefined","1","j","2","1","NA","0","1","0","0","0","0","0","0","0","0","51","51","51","0","0","0","NA","0","0","2","0","0","0","2","51","51","51","51","51","Wed Oct  4 18:22:25 2017","Forced-choice identification task with a practice and an experimental phase","yes","NAP_GER_AA_4blocks_noglides.osexp","/Users/aviadalbert/Documents/Academisch/UoC/Dissertation/Experiment/OpenSesame/NAP-FC/NAP_GER_AA_4blocks_noglides","yes","no","sans","no","20","no","black","no","Weiter","yes","768","legacy","41","9","0","/Users/aviadalbert/Documents/Academisch/UoC/Dissertation/Experiment/OpenSesame/NAP-FC/NAP_GER_AA_4blocks_noglides/subject-7.csv","xpyriment","Jazzy James","3.1.9","yes","yes","59a800d99ad5a1025d81bb03","59a801616c613b0251691de0","no","no","0","j","j","space","NA","h","h","j","1417","2892","29049","NA","39611","16453","1417","2","legacy","1024","1","44100","-16","experiment","ʃemal","4","2","1","0","1","Englisch, Indonesisch, Franzoesisch","7","","odd","17254685","17225108","NA","NA","17257578","17254681","NA","17014169","17254216","17014170","17014169","17129545","17169161","17388350","17386847","17389768","17190810","17185905","17225108","NA","17035704","17115221","17223453","17185687","17254685","17185908","NA","17388350","17388350","NA","NA","17386843","NAP perception","37","57329","42","yes","1024"
"88.3720930233","yes","88.3720930233","1358.86046512","1358.86046512","white","no","xpyriment","Ich habe die obigen Informationen gelesen und verstanden.","legacy","legacy","0","uniform","1","0","0","undefined","undefined","1","f","2","1","NA","0","1","0","0","0","0","0","0","0","0","52","52","52","0","0","0","NA","0","0","2","0","0","0","2","52","52","52","52","52","Wed Oct  4 18:22:25 2017","Forced-choice identification task with a practice and an experimental phase","yes","NAP_GER_AA_4blocks_noglides.osexp","/Users/aviadalbert/Documents/Academisch/UoC/Dissertation/Experiment/OpenSesame/NAP-FC/NAP_GER_AA_4blocks_noglides","yes","no","sans","no","20","no","black","no","Weiter","yes","768","legacy","42","9","0","/Users/aviadalbert/Documents/Academisch/UoC/Dissertation/Experiment/OpenSesame/NAP-FC/NAP_GER_AA_4blocks_noglides/subject-7.csv","xpyriment","Jazzy James","3.1.9","yes","yes","59a800d99ad5a1025d81bb03","59a801616c613b0251691de0","no","no","0","f","j","space","NA","h","h","f","1102","2892","29049","NA","39611","16453","1102","2","legacy","1024","1","44100","-16","experiment","ftal","4","2","1","0","1","Englisch, Indonesisch, Franzoesisch","7","","odd","17254685","17225108","NA","NA","17257578","17254681","NA","17014169","17254216","17014170","17014169","17129545","17169161","17391543","17390036","17392647","17190810","17185905","17225108","NA","17035704","17115221","17223453","17185687","17254685","17185908","NA","17391543","17391543","NA","NA","17390032","NAP perception","38","58431","43","yes","1024"
"88.6363636364","yes","88.6363636364","1359.70454545","1359.70454545","white","no","xpyriment","Ich habe die obigen Informationen gelesen und verstanden.","legacy","legacy","0","uniform","1","0","0","undefined","undefined","1","f","2","1","NA","0","1","0","0","0","0","0","0","0","0","53","53","53","0","0","0","NA","0","0","2","0","0","0","2","53","53","53","53","53","Wed Oct  4 18:22:25 2017","Forced-choice identification task with a practice and an experimental phase","yes","NAP_GER_AA_4blocks_noglides.osexp","/Users/aviadalbert/Documents/Academisch/UoC/Dissertation/Experiment/OpenSesame/NAP-FC/NAP_GER_AA_4blocks_noglides","yes","no","sans","no","20","no","black","no","Weiter","yes","768","legacy","43","9","0","/Users/aviadalbert/Documents/Academisch/UoC/Dissertation/Experiment/OpenSesame/NAP-FC/NAP_GER_AA_4blocks_noglides/subject-7.csv","xpyriment","Jazzy James","3.1.9","yes","yes","59a800d99ad5a1025d81bb03","59a801616c613b0251691de0","no","no","0","f","j","space","NA","h","h","f","1396","2892","29049","NA","39611","16453","1396","2","legacy","1024","1","44100","-16","experiment","ʃfal","4","2","1","0","1","Englisch, Indonesisch, Franzoesisch","7","","odd","17254685","17225108","NA","NA","17257578","17254681","NA","17014169","17254216","17014170","17014169","17129545","17169161","17394427","17392924","17395826","17190810","17185905","17225108","NA","17035704","17115221","17223453","17185687","17254685","17185908","NA","17394427","17394427","NA","NA","17392920","NAP perception","39","59827","44","yes","1024"
"88.8888888889","yes","88.8888888889","1357.62222222","1357.62222222","white","no","xpyriment","Ich habe die obigen Informationen gelesen und verstanden.","legacy","legacy","0","uniform","1","0","0","undefined","undefined","1","j","2","1","NA","0","1","0","0","0","0","0","0","0","0","54","54","54","0","0","0","NA","0","0","2","0","0","0","2","54","54","54","54","54","Wed Oct  4 18:22:25 2017","Forced-choice identification task with a practice and an experimental phase","yes","NAP_GER_AA_4blocks_noglides.osexp","/Users/aviadalbert/Documents/Academisch/UoC/Dissertation/Experiment/OpenSesame/NAP-FC/NAP_GER_AA_4blocks_noglides","yes","no","sans","no","20","no","black","no","Weiter","yes","768","legacy","44","9","0","/Users/aviadalbert/Documents/Academisch/UoC/Dissertation/Experiment/OpenSesame/NAP-FC/NAP_GER_AA_4blocks_noglides/subject-7.csv","xpyriment","Jazzy James","3.1.9","yes","yes","59a800d99ad5a1025d81bb03","59a801616c613b0251691de0","no","no","0","j","j","space","NA","h","h","j","1266","2892","29049","NA","39611","16453","1266","2","legacy","1024","1","44100","-16","experiment","enmal","4","2","1","0","1","Englisch, Indonesisch, Franzoesisch","7","","odd","17254685","17225108","NA","NA","17257578","17254681","NA","17014169","17254216","17014170","17014169","17129545","17169161","17397614","17396110","17398882","17190810","17185905","17225108","NA","17035704","17115221","17223453","17185687","17254685","17185908","NA","17397614","17397614","NA","NA","17396106","NAP perception","40","61093","45","yes","1024"
"86.9565217391","yes","86.9565217391","1365.39130435","1365.39130435","white","no","xpyriment","Ich habe die obigen Informationen gelesen und verstanden.","legacy","legacy","0","uniform","0","0","0","undefined","undefined","0","f","2","1","NA","0","1","0","0","0","0","0","0","0","0","55","55","55","0","0","0","NA","0","0","2","0","0","0","2","55","55","55","55","55","Wed Oct  4 18:22:25 2017","Forced-choice identification task with a practice and an experimental phase","yes","NAP_GER_AA_4blocks_noglides.osexp","/Users/aviadalbert/Documents/Academisch/UoC/Dissertation/Experiment/OpenSesame/NAP-FC/NAP_GER_AA_4blocks_noglides","yes","no","sans","no","20","no","black","no","Weiter","yes","768","legacy","45","9","0","/Users/aviadalbert/Documents/Academisch/UoC/Dissertation/Experiment/OpenSesame/NAP-FC/NAP_GER_AA_4blocks_noglides/subject-7.csv","xpyriment","Jazzy James","3.1.9","yes","yes","59a800d99ad5a1025d81bb03","59a801616c613b0251691de0","no","no","0","j","j","space","NA","h","h","j","1715","2892","29049","NA","39611","16453","1715","2","legacy","1024","1","44100","-16","experiment","npal","4","2","1","0","1","Englisch, Indonesisch, Franzoesisch","7","","odd","17254685","17225108","NA","NA","17257578","17254681","NA","17014169","17254216","17014170","17014169","17129545","17169161","17400648","17399144","17402365","17190810","17185905","17225108","NA","17035704","17115221","17223453","17185687","17254685","17185908","NA","17400648","17400648","NA","NA","17399140","NAP perception","40","62808","46","yes","1024"
"85.1063829787","yes","85.1063829787","1384.61702128","1384.61702128","white","no","xpyriment","Ich habe die obigen Informationen gelesen und verstanden.","legacy","legacy","0","uniform","0","0","0","undefined","undefined","0","f","2","1","NA","0","1","0","0","0","0","0","0","0","0","56","56","56","0","0","0","NA","0","0","2","0","0","0","2","56","56","56","56","56","Wed Oct  4 18:22:25 2017","Forced-choice identification task with a practice and an experimental phase","yes","NAP_GER_AA_4blocks_noglides.osexp","/Users/aviadalbert/Documents/Academisch/UoC/Dissertation/Experiment/OpenSesame/NAP-FC/NAP_GER_AA_4blocks_noglides","yes","no","sans","no","20","no","black","no","Weiter","yes","768","legacy","46","9","0","/Users/aviadalbert/Documents/Academisch/UoC/Dissertation/Experiment/OpenSesame/NAP-FC/NAP_GER_AA_4blocks_noglides/subject-7.csv","xpyriment","Jazzy James","3.1.9","yes","yes","59a800d99ad5a1025d81bb03","59a801616c613b0251691de0","no","no","0","j","j","space","NA","h","h","j","2269","2892","29049","NA","39611","16453","2269","2","legacy","1024","1","44100","-16","experiment","lfal","4","2","1","0","1","Englisch, Indonesisch, Franzoesisch","7","","odd","17254685","17225108","NA","NA","17257578","17254681","NA","17014169","17254216","17014170","17014169","17129545","17169161","17404137","17402634","17406407","17190810","17185905","17225108","NA","17035704","17115221","17223453","17185687","17254685","17185908","NA","17404137","17404137","NA","NA","17402630","NAP perception","40","65077","47","yes","1024"
"85.4166666667","yes","85.4166666667","1377.54166667","1377.54166667","white","no","xpyriment","Ich habe die obigen Informationen gelesen und verstanden.","legacy","legacy","0","uniform","1","0","0","undefined","undefined","1","j","2","1","NA","0","1","0","0","0","0","0","0","0","0","57","57","57","0","0","0","NA","0","0","2","0","0","0","2","57","57","57","57","57","Wed Oct  4 18:22:25 2017","Forced-choice identification task with a practice and an experimental phase","yes","NAP_GER_AA_4blocks_noglides.osexp","/Users/aviadalbert/Documents/Academisch/UoC/Dissertation/Experiment/OpenSesame/NAP-FC/NAP_GER_AA_4blocks_noglides","yes","no","sans","no","20","no","black","no","Weiter","yes","768","legacy","47","9","0","/Users/aviadalbert/Documents/Academisch/UoC/Dissertation/Experiment/OpenSesame/NAP-FC/NAP_GER_AA_4blocks_noglides/subject-7.csv","xpyriment","Jazzy James","3.1.9","yes","yes","59a800d99ad5a1025d81bb03","59a801616c613b0251691de0","no","no","0","j","j","space","NA","h","h","j","1045","2892","29049","NA","39611","16453","1045","2","legacy","1024","1","44100","-16","experiment","elkal","4","2","1","0","1","Englisch, Indonesisch, Franzoesisch","7","","odd","17254685","17225108","NA","NA","17257578","17254681","NA","17014169","17254216","17014170","17014169","17129545","17169161","17408191","17406688","17409237","17190810","17185905","17225108","NA","17035704","17115221","17223453","17185687","17254685","17185908","NA","17408191","17408191","NA","NA","17406684","NAP perception","41","66122","48","yes","1024"
"83.6734693878","yes","83.6734693878","1379.08163265","1379.08163265","white","no","xpyriment","Ich habe die obigen Informationen gelesen und verstanden.","legacy","legacy","0","uniform","0","0","0","undefined","undefined","0","f","2","1","NA","0","1","0","0","0","0","0","0","0","0","58","58","58","0","0","0","NA","0","0","2","0","0","0","2","58","58","58","58","58","Wed Oct  4 18:22:25 2017","Forced-choice identification task with a practice and an experimental phase","yes","NAP_GER_AA_4blocks_noglides.osexp","/Users/aviadalbert/Documents/Academisch/UoC/Dissertation/Experiment/OpenSesame/NAP-FC/NAP_GER_AA_4blocks_noglides","yes","no","sans","no","20","no","black","no","Weiter","yes","768","legacy","48","9","0","/Users/aviadalbert/Documents/Academisch/UoC/Dissertation/Experiment/OpenSesame/NAP-FC/NAP_GER_AA_4blocks_noglides/subject-7.csv","xpyriment","Jazzy James","3.1.9","yes","yes","59a800d99ad5a1025d81bb03","59a801616c613b0251691de0","no","no","0","j","j","space","NA","h","h","j","1453","2892","29049","NA","39611","16453","1453","2","legacy","1024","1","44100","-16","experiment","nval","4","2","1","0","1","Englisch, Indonesisch, Franzoesisch","7","","odd","17254685","17225108","NA","NA","17257578","17254681","NA","17014169","17254216","17014170","17014169","17129545","17169161","17411026","17409523","17412480","17190810","17185905","17225108","NA","17035704","17115221","17223453","17185687","17254685","17185908","NA","17411026","17411026","NA","NA","17409519","NAP perception","41","67575","49","yes","1024"
"84","yes","84","1378.94","1378.94","white","no","xpyriment","Ich habe die obigen Informationen gelesen und verstanden.","legacy","legacy","0","uniform","1","0","0","undefined","undefined","1","j","2","1","NA","0","1","0","0","0","0","0","0","0","0","59","59","59","0","0","0","NA","0","0","2","0","0","0","2","59","59","59","59","59","Wed Oct  4 18:22:25 2017","Forced-choice identification task with a practice and an experimental phase","yes","NAP_GER_AA_4blocks_noglides.osexp","/Users/aviadalbert/Documents/Academisch/UoC/Dissertation/Experiment/OpenSesame/NAP-FC/NAP_GER_AA_4blocks_noglides","yes","no","sans","no","20","no","black","no","Weiter","yes","768","legacy","49","9","0","/Users/aviadalbert/Documents/Academisch/UoC/Dissertation/Experiment/OpenSesame/NAP-FC/NAP_GER_AA_4blocks_noglides/subject-7.csv","xpyriment","Jazzy James","3.1.9","yes","yes","59a800d99ad5a1025d81bb03","59a801616c613b0251691de0","no","no","0","j","j","space","NA","h","h","j","1372","2892","29049","NA","39611","16453","1372","2","legacy","1024","1","44100","-16","experiment","sepal","4","2","1","0","1","Englisch, Indonesisch, Franzoesisch","7","","odd","17254685","17225108","NA","NA","17257578","17254681","NA","17014169","17254216","17014170","17014169","17129545","17169161","17414263","17412757","17415636","17190810","17185905","17225108","NA","17035704","17115221","17223453","17185687","17254685","17185908","NA","17414263","17414263","NA","NA","17412753","NAP perception","42","68947","50","yes","1024"
"82.3529411765","yes","82.3529411765","1399.31372549","1399.31372549","white","no","xpyriment","Ich habe die obigen Informationen gelesen und verstanden.","legacy","legacy","0","uniform","0","0","0","undefined","undefined","0","f","2","1","NA","0","1","0","0","0","0","0","0","0","0","60","60","60","0","0","0","NA","0","0","2","0","0","0","2","60","60","60","60","60","Wed Oct  4 18:22:25 2017","Forced-choice identification task with a practice and an experimental phase","yes","NAP_GER_AA_4blocks_noglides.osexp","/Users/aviadalbert/Documents/Academisch/UoC/Dissertation/Experiment/OpenSesame/NAP-FC/NAP_GER_AA_4blocks_noglides","yes","no","sans","no","20","no","black","no","Weiter","yes","768","legacy","50","9","0","/Users/aviadalbert/Documents/Academisch/UoC/Dissertation/Experiment/OpenSesame/NAP-FC/NAP_GER_AA_4blocks_noglides/subject-7.csv","xpyriment","Jazzy James","3.1.9","yes","yes","59a800d99ad5a1025d81bb03","59a801616c613b0251691de0","no","no","0","j","j","space","NA","h","h","j","2418","2892","29049","NA","39611","16453","2418","2","legacy","1024","1","44100","-16","experiment","nmal","4","2","1","0","1","Englisch, Indonesisch, Franzoesisch","7","","odd","17254685","17225108","NA","NA","17257578","17254681","NA","17014169","17254216","17014170","17014169","17129545","17169161","17417409","17415903","17419829","17190810","17185905","17225108","NA","17035704","17115221","17223453","17185687","17254685","17185908","NA","17417409","17417409","NA","NA","17415899","NAP perception","42","71365","51","yes","1024"
"82.6923076923","yes","82.6923076923","1396.78846154","1396.78846154","white","no","xpyriment","Ich habe die obigen Informationen gelesen und verstanden.","legacy","legacy","0","uniform","1","0","0","undefined","undefined","1","j","2","1","NA","0","1","0","0","0","0","0","0","0","0","61","61","61","0","0","0","NA","0","0","2","0","0","0","2","61","61","61","61","61","Wed Oct  4 18:22:25 2017","Forced-choice identification task with a practice and an experimental phase","yes","NAP_GER_AA_4blocks_noglides.osexp","/Users/aviadalbert/Documents/Academisch/UoC/Dissertation/Experiment/OpenSesame/NAP-FC/NAP_GER_AA_4blocks_noglides","yes","no","sans","no","20","no","black","no","Weiter","yes","768","legacy","51","9","0","/Users/aviadalbert/Documents/Academisch/UoC/Dissertation/Experiment/OpenSesame/NAP-FC/NAP_GER_AA_4blocks_noglides/subject-7.csv","xpyriment","Jazzy James","3.1.9","yes","yes","59a800d99ad5a1025d81bb03","59a801616c613b0251691de0","no","no","0","j","j","space","NA","h","h","j","1268","2892","29049","NA","39611","16453","1268","2","legacy","1024","1","44100","-16","experiment","neval","4","2","1","0","1","Englisch, Indonesisch, Franzoesisch","7","","odd","17254685","17225108","NA","NA","17257578","17254681","NA","17014169","17254216","17014170","17014169","17129545","17169161","17421601","17420097","17422870","17190810","17185905","17225108","NA","17035704","17115221","17223453","17185687","17254685","17185908","NA","17421600","17421601","NA","NA","17420093","NAP perception","43","72633","52","yes","1024"
"83.0188679245","yes","83.0188679245","1405.18867925","1405.18867925","white","no","xpyriment","Ich habe die obigen Informationen gelesen und verstanden.","legacy","legacy","0","uniform","1","0","0","undefined","undefined","1","f","2","1","NA","0","1","0","0","0","0","0","0","0","0","62","62","62","0","0","0","NA","0","0","2","0","0","0","2","62","62","62","62","62","Wed Oct  4 18:22:25 2017","Forced-choice identification task with a practice and an experimental phase","yes","NAP_GER_AA_4blocks_noglides.osexp","/Users/aviadalbert/Documents/Academisch/UoC/Dissertation/Experiment/OpenSesame/NAP-FC/NAP_GER_AA_4blocks_noglides","yes","no","sans","no","20","no","black","no","Weiter","yes","768","legacy","52","9","0","/Users/aviadalbert/Documents/Academisch/UoC/Dissertation/Experiment/OpenSesame/NAP-FC/NAP_GER_AA_4blocks_noglides/subject-7.csv","xpyriment","Jazzy James","3.1.9","yes","yes","59a800d99ad5a1025d81bb03","59a801616c613b0251691de0","no","no","0","f","j","space","NA","h","h","f","1842","2892","29049","NA","39611","16453","1842","2","legacy","1024","1","44100","-16","experiment","nval","4","2","1","0","1","Englisch, Indonesisch, Franzoesisch","7","","odd","17254685","17225108","NA","NA","17257578","17254681","NA","17014169","17254216","17014170","17014169","17129545","17169161","17424655","17423151","17426499","17190810","17185905","17225108","NA","17035704","17115221","17223453","17185687","17254685","17185908","NA","17424655","17424655","NA","NA","17423147","NAP perception","44","74475","53","yes","1024"
