"acc","accept_status","accuracy","average_response_time","avg_rt","background","bidi","canvas_backend","checkbox_status","clock_backend","color_backend","compensation","coordinates","correct","correct_block_activation","correct_block_exit","correct_instructions_1","correct_instructions_2","correct_keyboard_response","correct_response","count_block_activation","count_block_exit","count_block_info_QA","count_cont_e_block_message","count_e_block_loop","count_e_block_sequence","count_end_of_experiment","count_experiment","count_experimental_loop","count_form_consent","count_info_forms","count_instructions_1","count_instructions_2","count_keyboard_response","count_listen_message","count_logger","count_p_block_loop","count_p_block_sequence","count_p_feedback","count_pause_feedback","count_personal_details_form_1","count_personal_details_form_2","count_post_loop_blank","count_practice_loop","count_pre_e_block_message","count_pre_p_block_message","count_reset_feedback","count_stimulus_image","count_stimulus_sound","count_timeout_message","count_timeout_sound","count_trial_sequence","datetime","description","disable_garbage_collection","experiment_file","experiment_path","expyriment_opengl","font_bold","font_family","font_italic","font_size","font_underline","foreground","form_clicks","form_response","fullscreen","height","keyboard_backend","live_row","live_row_p_block_loop","live_row_practice_loop","logfile","mouse_backend","opensesame_codename","opensesame_version","osf_always_upload_data","osf_always_upload_experiment","osf_datanode_id","osf_id","practice","pygame_doublebuf","repeat_cycle","response","response_block_activation","response_block_exit","response_block_info_QA","response_instructions_1","response_instructions_2","response_keyboard_response","response_time","response_time_block_activation","response_time_block_exit","response_time_block_info_QA","response_time_instructions_1","response_time_instructions_2","response_time_keyboard_response","round_decimals","sampler_backend","sound_buf_size","sound_channels","sound_freq","sound_sample_size","start","stimulus","subject_age","subject_education","subject_gender","subject_german_native","subject_handedness","subject_language_other","subject_nr","subject_other_native_lang","subject_parity","time_block_activation","time_block_exit","time_block_info_QA","time_cont_e_block_message","time_e_block_loop","time_e_block_sequence","time_end_of_experiment","time_experiment","time_experimental_loop","time_form_consent","time_info_forms","time_instructions_1","time_instructions_2","time_keyboard_response","time_listen_message","time_logger","time_p_block_loop","time_p_block_sequence","time_p_feedback","time_pause_feedback","time_personal_details_form_1","time_personal_details_form_2","time_post_loop_blank","time_practice_loop","time_pre_e_block_message","time_pre_p_block_message","time_reset_feedback","time_stimulus_image","time_stimulus_sound","time_timeout_message","time_timeout_sound","time_trial_sequence","title","total_correct","total_response_time","total_responses","uniform_coordinates","width"
"100","yes","100","1498","1498","white","no","xpyriment","Ich habe die obigen Informationen gelesen und verstanden.","legacy","legacy","0","uniform","1","0","NA","undefined","undefined","1","f","0","0","NA","NA","NA","NA","NA","0","0","0","0","0","0","0","0","0","0","0","NA","NA","0","0","0","0","NA","0","0","0","0","0","0","0","Fri Oct 27 10:10:32 2017","Forced-choice identification task with a practice and an experimental phase","yes","NAP_GER_AA_4blocks_noglides.osexp","/Users/aviadalbert/Documents/Academisch/UoC/Dissertation/Experiment/OpenSesame/NAP-FC/NAP_GER_AA_4blocks_noglides","yes","no","sans","no","20","no","black","no","Weiter","yes","768","legacy","0","0","0","/Users/aviadalbert/Documents/Academisch/UoC/Dissertation/Experiment/OpenSesame/NAP-FC/NAP_GER_AA_4blocks_noglides/subject-29.csv","xpyriment","Jazzy James","3.1.9","yes","yes","59a800d99ad5a1025d81bb03","59a801616c613b0251691de0","yes","no","0","f","f","NA","NA","space","space","f","1498","3805","NA","NA","31095","20523","1498","2","legacy","1024","1","44100","-16","experiment","flal","2","0","1","0","1","Eng French ","29","","odd","2976786","NA","NA","NA","NA","NA","NA","1116144","NA","1116144","1116144","2924859","2955959","2982302","2980799","2983801","2980592","2976783","NA","NA","2866787","2907178","NA","2976551","NA","2976786","NA","2982302","2982302","NA","NA","2980795","NAP perception","1","1498","1","yes","1024"
"100","yes","100","1194.5","1194.5","white","no","xpyriment","Ich habe die obigen Informationen gelesen und verstanden.","legacy","legacy","0","uniform","1","0","NA","undefined","undefined","1","j","0","0","NA","NA","NA","NA","NA","0","0","0","0","0","0","1","1","1","0","0","NA","NA","0","0","0","0","NA","0","0","1","1","1","1","1","Fri Oct 27 10:10:32 2017","Forced-choice identification task with a practice and an experimental phase","yes","NAP_GER_AA_4blocks_noglides.osexp","/Users/aviadalbert/Documents/Academisch/UoC/Dissertation/Experiment/OpenSesame/NAP-FC/NAP_GER_AA_4blocks_noglides","yes","no","sans","no","20","no","black","no","Weiter","yes","768","legacy","1","1","0","/Users/aviadalbert/Documents/Academisch/UoC/Dissertation/Experiment/OpenSesame/NAP-FC/NAP_GER_AA_4blocks_noglides/subject-29.csv","xpyriment","Jazzy James","3.1.9","yes","yes","59a800d99ad5a1025d81bb03","59a801616c613b0251691de0","yes","no","0","j","f","NA","NA","space","space","j","891","3805","NA","NA","31095","20523","891","2","legacy","1024","1","44100","-16","experiment","lepal","2","0","1","0","1","Eng French ","29","","odd","2976786","NA","NA","NA","NA","NA","NA","1116144","NA","1116144","1116144","2924859","2955959","2985578","2984071","2986470","2980592","2976783","NA","NA","2866787","2907178","NA","2976551","NA","2976786","NA","2985577","2985578","NA","NA","2984067","NAP perception","2","2389","2","yes","1024"
"100","yes","100","1102.33333333","1102.33333333","white","no","xpyriment","Ich habe die obigen Informationen gelesen und verstanden.","legacy","legacy","0","uniform","1","0","NA","undefined","undefined","1","j","0","0","NA","NA","NA","NA","NA","0","0","0","0","0","0","2","2","2","0","0","NA","NA","0","0","0","0","NA","0","0","2","2","2","2","2","Fri Oct 27 10:10:32 2017","Forced-choice identification task with a practice and an experimental phase","yes","NAP_GER_AA_4blocks_noglides.osexp","/Users/aviadalbert/Documents/Academisch/UoC/Dissertation/Experiment/OpenSesame/NAP-FC/NAP_GER_AA_4blocks_noglides","yes","no","sans","no","20","no","black","no","Weiter","yes","768","legacy","2","2","0","/Users/aviadalbert/Documents/Academisch/UoC/Dissertation/Experiment/OpenSesame/NAP-FC/NAP_GER_AA_4blocks_noglides/subject-29.csv","xpyriment","Jazzy James","3.1.9","yes","yes","59a800d99ad5a1025d81bb03","59a801616c613b0251691de0","yes","no","0","j","f","NA","NA","space","space","j","918","3805","NA","NA","31095","20523","918","2","legacy","1024","1","44100","-16","experiment","emtal","2","0","1","0","1","Eng French ","29","","odd","2976786","NA","NA","NA","NA","NA","NA","1116144","NA","1116144","1116144","2924859","2955959","2988245","2986739","2989164","2980592","2976783","NA","NA","2866787","2907178","NA","2976551","NA","2976786","NA","2988244","2988245","NA","NA","2986735","NAP perception","3","3307","3","yes","1024"
"100","yes","100","1042.25","1042.25","white","no","xpyriment","Ich habe die obigen Informationen gelesen und verstanden.","legacy","legacy","0","uniform","1","0","NA","undefined","undefined","1","f","0","0","NA","NA","NA","NA","NA","0","0","0","0","0","0","3","3","3","0","0","NA","NA","0","0","0","0","NA","0","0","3","3","3","3","3","Fri Oct 27 10:10:32 2017","Forced-choice identification task with a practice and an experimental phase","yes","NAP_GER_AA_4blocks_noglides.osexp","/Users/aviadalbert/Documents/Academisch/UoC/Dissertation/Experiment/OpenSesame/NAP-FC/NAP_GER_AA_4blocks_noglides","yes","no","sans","no","20","no","black","no","Weiter","yes","768","legacy","3","3","0","/Users/aviadalbert/Documents/Academisch/UoC/Dissertation/Experiment/OpenSesame/NAP-FC/NAP_GER_AA_4blocks_noglides/subject-29.csv","xpyriment","Jazzy James","3.1.9","yes","yes","59a800d99ad5a1025d81bb03","59a801616c613b0251691de0","yes","no","0","f","f","NA","NA","space","space","f","862","3805","NA","NA","31095","20523","862","2","legacy","1024","1","44100","-16","experiment","ʃpal","2","0","1","0","1","Eng French ","29","","odd","2976786","NA","NA","NA","NA","NA","NA","1116144","NA","1116144","1116144","2924859","2955959","2990939","2989434","2991802","2980592","2976783","NA","NA","2866787","2907178","NA","2976551","NA","2976786","NA","2990938","2990938","NA","NA","2989430","NAP perception","4","4169","4","yes","1024"
"100","yes","100","1066.4","1066.4","white","no","xpyriment","Ich habe die obigen Informationen gelesen und verstanden.","legacy","legacy","0","uniform","1","0","NA","undefined","undefined","1","j","0","0","NA","NA","NA","NA","NA","0","0","0","0","0","0","4","4","4","0","0","NA","NA","0","0","0","0","NA","0","0","4","4","4","4","4","Fri Oct 27 10:10:32 2017","Forced-choice identification task with a practice and an experimental phase","yes","NAP_GER_AA_4blocks_noglides.osexp","/Users/aviadalbert/Documents/Academisch/UoC/Dissertation/Experiment/OpenSesame/NAP-FC/NAP_GER_AA_4blocks_noglides","yes","no","sans","no","20","no","black","no","Weiter","yes","768","legacy","4","4","0","/Users/aviadalbert/Documents/Academisch/UoC/Dissertation/Experiment/OpenSesame/NAP-FC/NAP_GER_AA_4blocks_noglides/subject-29.csv","xpyriment","Jazzy James","3.1.9","yes","yes","59a800d99ad5a1025d81bb03","59a801616c613b0251691de0","yes","no","0","j","f","NA","NA","space","space","j","1163","3805","NA","NA","31095","20523","1163","2","legacy","1024","1","44100","-16","experiment","nefal","2","0","1","0","1","Eng French ","29","","odd","2976786","NA","NA","NA","NA","NA","NA","1116144","NA","1116144","1116144","2924859","2955959","2993594","2992088","2994758","2980592","2976783","NA","NA","2866787","2907178","NA","2976551","NA","2976786","NA","2993594","2993594","NA","NA","2992084","NAP perception","5","5332","5","yes","1024"
"100","yes","100","1031.66666667","1031.66666667","white","no","xpyriment","Ich habe die obigen Informationen gelesen und verstanden.","legacy","legacy","0","uniform","1","0","NA","undefined","undefined","1","f","0","0","NA","NA","NA","NA","NA","0","0","0","0","0","0","5","5","5","0","0","NA","NA","0","0","0","0","NA","0","0","5","5","5","5","5","Fri Oct 27 10:10:32 2017","Forced-choice identification task with a practice and an experimental phase","yes","NAP_GER_AA_4blocks_noglides.osexp","/Users/aviadalbert/Documents/Academisch/UoC/Dissertation/Experiment/OpenSesame/NAP-FC/NAP_GER_AA_4blocks_noglides","yes","no","sans","no","20","no","black","no","Weiter","yes","768","legacy","5","5","0","/Users/aviadalbert/Documents/Academisch/UoC/Dissertation/Experiment/OpenSesame/NAP-FC/NAP_GER_AA_4blocks_noglides/subject-29.csv","xpyriment","Jazzy James","3.1.9","yes","yes","59a800d99ad5a1025d81bb03","59a801616c613b0251691de0","yes","no","0","f","f","NA","NA","space","space","f","858","3805","NA","NA","31095","20523","858","2","legacy","1024","1","44100","-16","experiment","sfal","2","0","1","0","1","Eng French ","29","","odd","2976786","NA","NA","NA","NA","NA","NA","1116144","NA","1116144","1116144","2924859","2955959","2996531","2995026","2997390","2980592","2976783","NA","NA","2866787","2907178","NA","2976551","NA","2976786","NA","2996530","2996531","NA","NA","2995022","NAP perception","6","6190","6","yes","1024"
"85.7142857143","yes","85.7142857143","1027.85714286","1027.85714286","white","no","xpyriment","Ich habe die obigen Informationen gelesen und verstanden.","legacy","legacy","0","uniform","0","0","NA","undefined","undefined","0","f","0","0","NA","NA","NA","NA","NA","0","0","0","0","0","0","6","6","6","0","0","NA","NA","0","0","0","0","NA","0","0","6","6","6","6","6","Fri Oct 27 10:10:32 2017","Forced-choice identification task with a practice and an experimental phase","yes","NAP_GER_AA_4blocks_noglides.osexp","/Users/aviadalbert/Documents/Academisch/UoC/Dissertation/Experiment/OpenSesame/NAP-FC/NAP_GER_AA_4blocks_noglides","yes","no","sans","no","20","no","black","no","Weiter","yes","768","legacy","6","6","0","/Users/aviadalbert/Documents/Academisch/UoC/Dissertation/Experiment/OpenSesame/NAP-FC/NAP_GER_AA_4blocks_noglides/subject-29.csv","xpyriment","Jazzy James","3.1.9","yes","yes","59a800d99ad5a1025d81bb03","59a801616c613b0251691de0","yes","no","0","j","f","NA","NA","space","space","j","1005","3805","NA","NA","31095","20523","1005","2","legacy","1024","1","44100","-16","experiment","zmal","2","0","1","0","1","Eng French ","29","","odd","2976786","NA","NA","NA","NA","NA","NA","1116144","NA","1116144","1116144","2924859","2955959","2999172","2997665","3000178","2980592","2976783","NA","NA","2866787","2907178","NA","2976551","NA","2976786","NA","2999171","2999172","NA","NA","2997661","NAP perception","6","7195","7","yes","1024"
"87.5","yes","87.5","1006","1006","white","no","xpyriment","Ich habe die obigen Informationen gelesen und verstanden.","legacy","legacy","0","uniform","1","0","NA","undefined","undefined","1","j","0","0","NA","NA","NA","NA","NA","0","0","0","0","0","0","7","7","7","0","0","NA","NA","0","0","0","0","NA","0","0","7","7","7","7","7","Fri Oct 27 10:10:32 2017","Forced-choice identification task with a practice and an experimental phase","yes","NAP_GER_AA_4blocks_noglides.osexp","/Users/aviadalbert/Documents/Academisch/UoC/Dissertation/Experiment/OpenSesame/NAP-FC/NAP_GER_AA_4blocks_noglides","yes","no","sans","no","20","no","black","no","Weiter","yes","768","legacy","7","7","0","/Users/aviadalbert/Documents/Academisch/UoC/Dissertation/Experiment/OpenSesame/NAP-FC/NAP_GER_AA_4blocks_noglides/subject-29.csv","xpyriment","Jazzy James","3.1.9","yes","yes","59a800d99ad5a1025d81bb03","59a801616c613b0251691de0","yes","no","0","j","f","NA","NA","space","space","j","853","3805","NA","NA","31095","20523","853","2","legacy","1024","1","44100","-16","experiment","mesal","2","0","1","0","1","Eng French ","29","","odd","2976786","NA","NA","NA","NA","NA","NA","1116144","NA","1116144","1116144","2924859","2955959","3001957","3000453","3002811","2980592","2976783","NA","NA","2866787","2907178","NA","2976551","NA","2976786","NA","3001956","3001957","NA","NA","3000449","NAP perception","7","8048","8","yes","1024"
"88.8888888889","yes","88.8888888889","1007.77777778","1007.77777778","white","no","xpyriment","Ich habe die obigen Informationen gelesen und verstanden.","legacy","legacy","0","uniform","1","0","NA","undefined","undefined","1","j","0","0","NA","NA","NA","NA","NA","0","0","0","0","0","0","8","8","8","0","0","NA","NA","0","0","0","0","NA","0","0","8","8","8","8","8","Fri Oct 27 10:10:32 2017","Forced-choice identification task with a practice and an experimental phase","yes","NAP_GER_AA_4blocks_noglides.osexp","/Users/aviadalbert/Documents/Academisch/UoC/Dissertation/Experiment/OpenSesame/NAP-FC/NAP_GER_AA_4blocks_noglides","yes","no","sans","no","20","no","black","no","Weiter","yes","768","legacy","8","8","0","/Users/aviadalbert/Documents/Academisch/UoC/Dissertation/Experiment/OpenSesame/NAP-FC/NAP_GER_AA_4blocks_noglides/subject-29.csv","xpyriment","Jazzy James","3.1.9","yes","yes","59a800d99ad5a1025d81bb03","59a801616c613b0251691de0","yes","no","0","j","f","NA","NA","space","space","j","1022","3805","NA","NA","31095","20523","1022","2","legacy","1024","1","44100","-16","experiment","enval","2","0","1","0","1","Eng French ","29","","odd","2976786","NA","NA","NA","NA","NA","NA","1116144","NA","1116144","1116144","2924859","2955959","3004600","3003096","3005623","2980592","2976783","NA","NA","2866787","2907178","NA","2976551","NA","2976786","NA","3004600","3004600","NA","NA","3003092","NAP perception","8","9070","9","yes","1024"
"90","yes","90","1033.3","1033.3","white","no","xpyriment","Ich habe die obigen Informationen gelesen und verstanden.","legacy","legacy","0","uniform","1","0","NA","undefined","undefined","1","f","0","0","NA","NA","NA","NA","NA","0","0","0","0","0","0","9","9","9","0","0","NA","NA","0","0","0","0","NA","0","0","9","9","9","9","9","Fri Oct 27 10:10:32 2017","Forced-choice identification task with a practice and an experimental phase","yes","NAP_GER_AA_4blocks_noglides.osexp","/Users/aviadalbert/Documents/Academisch/UoC/Dissertation/Experiment/OpenSesame/NAP-FC/NAP_GER_AA_4blocks_noglides","yes","no","sans","no","20","no","black","no","Weiter","yes","768","legacy","9","9","0","/Users/aviadalbert/Documents/Academisch/UoC/Dissertation/Experiment/OpenSesame/NAP-FC/NAP_GER_AA_4blocks_noglides/subject-29.csv","xpyriment","Jazzy James","3.1.9","yes","yes","59a800d99ad5a1025d81bb03","59a801616c613b0251691de0","yes","no","0","f","f","NA","NA","space","space","f","1263","3805","NA","NA","31095","20523","1263","2","legacy","1024","1","44100","-16","experiment","vlal","2","0","1","0","1","Eng French ","29","","odd","2976786","NA","NA","NA","NA","NA","NA","1116144","NA","1116144","1116144","2924859","2955959","3007413","3005907","3008677","2980592","2976783","NA","NA","2866787","2907178","NA","2976551","NA","2976786","NA","3007413","3007413","NA","NA","3005903","NAP perception","9","10333","10","yes","1024"
"0","yes","0","1549","1549","white","no","xpyriment","Ich habe die obigen Informationen gelesen und verstanden.","legacy","legacy","0","uniform","0","0","0","undefined","undefined","0","f","2","1","NA","0","1","0","0","0","0","0","0","0","0","10","10","10","0","0","0","NA","0","0","2","0","0","0","2","10","10","10","10","10","Fri Oct 27 10:10:32 2017","Forced-choice identification task with a practice and an experimental phase","yes","NAP_GER_AA_4blocks_noglides.osexp","/Users/aviadalbert/Documents/Academisch/UoC/Dissertation/Experiment/OpenSesame/NAP-FC/NAP_GER_AA_4blocks_noglides","yes","no","sans","no","20","no","black","no","Weiter","yes","768","legacy","0","9","0","/Users/aviadalbert/Documents/Academisch/UoC/Dissertation/Experiment/OpenSesame/NAP-FC/NAP_GER_AA_4blocks_noglides/subject-29.csv","xpyriment","Jazzy James","3.1.9","yes","yes","59a800d99ad5a1025d81bb03","59a801616c613b0251691de0","no","no","0","j","f","space","NA","space","space","j","1549","2308","23315","NA","31095","20523","1549","2","legacy","1024","1","44100","-16","experiment","zval","2","0","1","0","1","Eng French ","29","","odd","3034265","3010398","NA","NA","3036574","3034261","NA","1116144","3033770","1116144","1116144","2924859","2955959","3038293","3036785","3039843","2980592","2976783","3010398","NA","2866787","2907178","3008741","2976551","3034264","2976786","NA","3038292","3038293","NA","NA","3036782","NAP perception","0","1549","1","yes","1024"
"50","yes","50","1360","1360","white","no","xpyriment","Ich habe die obigen Informationen gelesen und verstanden.","legacy","legacy","0","uniform","1","0","0","undefined","undefined","1","j","2","1","NA","0","1","0","0","0","0","0","0","0","0","11","11","11","0","0","0","NA","0","0","2","0","0","0","2","11","11","11","11","11","Fri Oct 27 10:10:32 2017","Forced-choice identification task with a practice and an experimental phase","yes","NAP_GER_AA_4blocks_noglides.osexp","/Users/aviadalbert/Documents/Academisch/UoC/Dissertation/Experiment/OpenSesame/NAP-FC/NAP_GER_AA_4blocks_noglides","yes","no","sans","no","20","no","black","no","Weiter","yes","768","legacy","1","9","0","/Users/aviadalbert/Documents/Academisch/UoC/Dissertation/Experiment/OpenSesame/NAP-FC/NAP_GER_AA_4blocks_noglides/subject-29.csv","xpyriment","Jazzy James","3.1.9","yes","yes","59a800d99ad5a1025d81bb03","59a801616c613b0251691de0","no","no","0","j","f","space","NA","space","space","j","1171","2308","23315","NA","31095","20523","1171","2","legacy","1024","1","44100","-16","experiment","emnal","2","0","1","0","1","Eng French ","29","","odd","3034265","3010398","NA","NA","3036574","3034261","NA","1116144","3033770","1116144","1116144","2924859","2955959","3041624","3040118","3042796","2980592","2976783","3010398","NA","2866787","2907178","3008741","2976551","3034264","2976786","NA","3041624","3041624","NA","NA","3040114","NAP perception","1","2720","2","yes","1024"
"33.3333333333","yes","33.3333333333","1473","1473","white","no","xpyriment","Ich habe die obigen Informationen gelesen und verstanden.","legacy","legacy","0","uniform","0","0","0","undefined","undefined","0","f","2","1","NA","0","1","0","0","0","0","0","0","0","0","12","12","12","0","0","0","NA","0","0","2","0","0","0","2","12","12","12","12","12","Fri Oct 27 10:10:32 2017","Forced-choice identification task with a practice and an experimental phase","yes","NAP_GER_AA_4blocks_noglides.osexp","/Users/aviadalbert/Documents/Academisch/UoC/Dissertation/Experiment/OpenSesame/NAP-FC/NAP_GER_AA_4blocks_noglides","yes","no","sans","no","20","no","black","no","Weiter","yes","768","legacy","2","9","0","/Users/aviadalbert/Documents/Academisch/UoC/Dissertation/Experiment/OpenSesame/NAP-FC/NAP_GER_AA_4blocks_noglides/subject-29.csv","xpyriment","Jazzy James","3.1.9","yes","yes","59a800d99ad5a1025d81bb03","59a801616c613b0251691de0","no","no","0","j","f","space","NA","space","space","j","1699","2308","23315","NA","31095","20523","1699","2","legacy","1024","1","44100","-16","experiment","lpal","2","0","1","0","1","Eng French ","29","","odd","3034265","3010398","NA","NA","3036574","3034261","NA","1116144","3033770","1116144","1116144","2924859","2955959","3044573","3043067","3046273","2980592","2976783","3010398","NA","2866787","2907178","3008741","2976551","3034264","2976786","NA","3044573","3044573","NA","NA","3043063","NAP perception","1","4419","3","yes","1024"
"25","yes","25","1568","1568","white","no","xpyriment","Ich habe die obigen Informationen gelesen und verstanden.","legacy","legacy","0","uniform","0","0","0","undefined","undefined","0","f","2","1","NA","0","1","0","0","0","0","0","0","0","0","13","13","13","0","0","0","NA","0","0","2","0","0","0","2","13","13","13","13","13","Fri Oct 27 10:10:32 2017","Forced-choice identification task with a practice and an experimental phase","yes","NAP_GER_AA_4blocks_noglides.osexp","/Users/aviadalbert/Documents/Academisch/UoC/Dissertation/Experiment/OpenSesame/NAP-FC/NAP_GER_AA_4blocks_noglides","yes","no","sans","no","20","no","black","no","Weiter","yes","768","legacy","3","9","0","/Users/aviadalbert/Documents/Academisch/UoC/Dissertation/Experiment/OpenSesame/NAP-FC/NAP_GER_AA_4blocks_noglides/subject-29.csv","xpyriment","Jazzy James","3.1.9","yes","yes","59a800d99ad5a1025d81bb03","59a801616c613b0251691de0","no","no","0","j","f","space","NA","space","space","j","1853","2308","23315","NA","31095","20523","1853","2","legacy","1024","1","44100","-16","experiment","mlal","2","0","1","0","1","Eng French ","29","","odd","3034265","3010398","NA","NA","3036574","3034261","NA","1116144","3033770","1116144","1116144","2924859","2955959","3048060","3046557","3049914","2980592","2976783","3010398","NA","2866787","2907178","3008741","2976551","3034264","2976786","NA","3048060","3048060","NA","NA","3046553","NAP perception","1","6272","4","yes","1024"
"40","yes","40","1441.8","1441.8","white","no","xpyriment","Ich habe die obigen Informationen gelesen und verstanden.","legacy","legacy","0","uniform","1","0","0","undefined","undefined","1","j","2","1","NA","0","1","0","0","0","0","0","0","0","0","14","14","14","0","0","0","NA","0","0","2","0","0","0","2","14","14","14","14","14","Fri Oct 27 10:10:32 2017","Forced-choice identification task with a practice and an experimental phase","yes","NAP_GER_AA_4blocks_noglides.osexp","/Users/aviadalbert/Documents/Academisch/UoC/Dissertation/Experiment/OpenSesame/NAP-FC/NAP_GER_AA_4blocks_noglides","yes","no","sans","no","20","no","black","no","Weiter","yes","768","legacy","4","9","0","/Users/aviadalbert/Documents/Academisch/UoC/Dissertation/Experiment/OpenSesame/NAP-FC/NAP_GER_AA_4blocks_noglides/subject-29.csv","xpyriment","Jazzy James","3.1.9","yes","yes","59a800d99ad5a1025d81bb03","59a801616c613b0251691de0","no","no","0","j","f","space","NA","space","space","j","937","2308","23315","NA","31095","20523","937","2","legacy","1024","1","44100","-16","experiment","lefal","2","0","1","0","1","Eng French ","29","","odd","3034265","3010398","NA","NA","3036574","3034261","NA","1116144","3033770","1116144","1116144","2924859","2955959","3051686","3050179","3052624","2980592","2976783","3010398","NA","2866787","2907178","3008741","2976551","3034264","2976786","NA","3051686","3051686","NA","NA","3050175","NAP perception","2","7209","5","yes","1024"
"50","yes","50","1369.83333333","1369.83333333","white","no","xpyriment","Ich habe die obigen Informationen gelesen und verstanden.","legacy","legacy","0","uniform","1","0","0","undefined","undefined","1","f","2","1","NA","0","1","0","0","0","0","0","0","0","0","15","15","15","0","0","0","NA","0","0","2","0","0","0","2","15","15","15","15","15","Fri Oct 27 10:10:32 2017","Forced-choice identification task with a practice and an experimental phase","yes","NAP_GER_AA_4blocks_noglides.osexp","/Users/aviadalbert/Documents/Academisch/UoC/Dissertation/Experiment/OpenSesame/NAP-FC/NAP_GER_AA_4blocks_noglides","yes","no","sans","no","20","no","black","no","Weiter","yes","768","legacy","5","9","0","/Users/aviadalbert/Documents/Academisch/UoC/Dissertation/Experiment/OpenSesame/NAP-FC/NAP_GER_AA_4blocks_noglides/subject-29.csv","xpyriment","Jazzy James","3.1.9","yes","yes","59a800d99ad5a1025d81bb03","59a801616c613b0251691de0","no","no","0","f","f","space","NA","space","space","f","1010","2308","23315","NA","31095","20523","1010","2","legacy","1024","1","44100","-16","experiment","ʃmal","2","0","1","0","1","Eng French ","29","","odd","3034265","3010398","NA","NA","3036574","3034261","NA","1116144","3033770","1116144","1116144","2924859","2955959","3054407","3052901","3055418","2980592","2976783","3010398","NA","2866787","2907178","3008741","2976551","3034264","2976786","NA","3054407","3054407","NA","NA","3052896","NAP perception","3","8219","6","yes","1024"
"42.8571428571","yes","42.8571428571","1380.14285714","1380.14285714","white","no","xpyriment","Ich habe die obigen Informationen gelesen und verstanden.","legacy","legacy","0","uniform","0","0","0","undefined","undefined","0","f","2","1","NA","0","1","0","0","0","0","0","0","0","0","16","16","16","0","0","0","NA","0","0","2","0","0","0","2","16","16","16","16","16","Fri Oct 27 10:10:32 2017","Forced-choice identification task with a practice and an experimental phase","yes","NAP_GER_AA_4blocks_noglides.osexp","/Users/aviadalbert/Documents/Academisch/UoC/Dissertation/Experiment/OpenSesame/NAP-FC/NAP_GER_AA_4blocks_noglides","yes","no","sans","no","20","no","black","no","Weiter","yes","768","legacy","6","9","0","/Users/aviadalbert/Documents/Academisch/UoC/Dissertation/Experiment/OpenSesame/NAP-FC/NAP_GER_AA_4blocks_noglides/subject-29.csv","xpyriment","Jazzy James","3.1.9","yes","yes","59a800d99ad5a1025d81bb03","59a801616c613b0251691de0","no","no","0","j","f","space","NA","space","space","j","1442","2308","23315","NA","31095","20523","1442","2","legacy","1024","1","44100","-16","experiment","vzal","2","0","1","0","1","Eng French ","29","","odd","3034265","3010398","NA","NA","3036574","3034261","NA","1116144","3033770","1116144","1116144","2924859","2955959","3057195","3055690","3058639","2980592","2976783","3010398","NA","2866787","2907178","3008741","2976551","3034264","2976786","NA","3057195","3057195","NA","NA","3055686","NAP perception","3","9661","7","yes","1024"
"37.5","yes","37.5","1428.625","1428.625","white","no","xpyriment","Ich habe die obigen Informationen gelesen und verstanden.","legacy","legacy","0","uniform","0","0","0","undefined","undefined","0","f","2","1","NA","0","1","0","0","0","0","0","0","0","0","17","17","17","0","0","0","NA","0","0","2","0","0","0","2","17","17","17","17","17","Fri Oct 27 10:10:32 2017","Forced-choice identification task with a practice and an experimental phase","yes","NAP_GER_AA_4blocks_noglides.osexp","/Users/aviadalbert/Documents/Academisch/UoC/Dissertation/Experiment/OpenSesame/NAP-FC/NAP_GER_AA_4blocks_noglides","yes","no","sans","no","20","no","black","no","Weiter","yes","768","legacy","7","9","0","/Users/aviadalbert/Documents/Academisch/UoC/Dissertation/Experiment/OpenSesame/NAP-FC/NAP_GER_AA_4blocks_noglides/subject-29.csv","xpyriment","Jazzy James","3.1.9","yes","yes","59a800d99ad5a1025d81bb03","59a801616c613b0251691de0","no","no","0","j","f","space","NA","space","space","j","1768","2308","23315","NA","31095","20523","1768","2","legacy","1024","1","44100","-16","experiment","lval","2","0","1","0","1","Eng French ","29","","odd","3034265","3010398","NA","NA","3036574","3034261","NA","1116144","3033770","1116144","1116144","2924859","2955959","3060422","3058915","3062192","2980592","2976783","3010398","NA","2866787","2907178","3008741","2976551","3034264","2976786","NA","3060422","3060422","NA","NA","3058911","NAP perception","3","11429","8","yes","1024"
"44.4444444444","yes","44.4444444444","1545.55555556","1545.55555556","white","no","xpyriment","Ich habe die obigen Informationen gelesen und verstanden.","legacy","legacy","0","uniform","1","0","0","undefined","undefined","1","f","2","1","NA","0","1","0","0","0","0","0","0","0","0","18","18","18","0","0","0","NA","0","0","2","0","0","0","2","18","18","18","18","18","Fri Oct 27 10:10:32 2017","Forced-choice identification task with a practice and an experimental phase","yes","NAP_GER_AA_4blocks_noglides.osexp","/Users/aviadalbert/Documents/Academisch/UoC/Dissertation/Experiment/OpenSesame/NAP-FC/NAP_GER_AA_4blocks_noglides","yes","no","sans","no","20","no","black","no","Weiter","yes","768","legacy","8","9","0","/Users/aviadalbert/Documents/Academisch/UoC/Dissertation/Experiment/OpenSesame/NAP-FC/NAP_GER_AA_4blocks_noglides/subject-29.csv","xpyriment","Jazzy James","3.1.9","yes","yes","59a800d99ad5a1025d81bb03","59a801616c613b0251691de0","no","no","0","f","f","space","NA","space","space","f","2481","2308","23315","NA","31095","20523","2481","2","legacy","1024","1","44100","-16","experiment","ftal","2","0","1","0","1","Eng French ","29","","odd","3034265","3010398","NA","NA","3036574","3034261","NA","1116144","3033770","1116144","1116144","2924859","2955959","3063969","3062465","3066451","2980592","2976783","3010398","NA","2866787","2907178","3008741","2976551","3034264","2976786","NA","3063969","3063969","NA","NA","3062462","NAP perception","4","13910","9","yes","1024"
"50","yes","50","1602.1","1602.1","white","no","xpyriment","Ich habe die obigen Informationen gelesen und verstanden.","legacy","legacy","0","uniform","1","0","0","undefined","undefined","1","f","2","1","NA","0","1","0","0","0","0","0","0","0","0","19","19","19","0","0","0","NA","0","0","2","0","0","0","2","19","19","19","19","19","Fri Oct 27 10:10:32 2017","Forced-choice identification task with a practice and an experimental phase","yes","NAP_GER_AA_4blocks_noglides.osexp","/Users/aviadalbert/Documents/Academisch/UoC/Dissertation/Experiment/OpenSesame/NAP-FC/NAP_GER_AA_4blocks_noglides","yes","no","sans","no","20","no","black","no","Weiter","yes","768","legacy","9","9","0","/Users/aviadalbert/Documents/Academisch/UoC/Dissertation/Experiment/OpenSesame/NAP-FC/NAP_GER_AA_4blocks_noglides/subject-29.csv","xpyriment","Jazzy James","3.1.9","yes","yes","59a800d99ad5a1025d81bb03","59a801616c613b0251691de0","no","no","0","f","f","space","NA","space","space","f","2111","2308","23315","NA","31095","20523","2111","2","legacy","1024","1","44100","-16","experiment","mlal","2","0","1","0","1","Eng French ","29","","odd","3034265","3010398","NA","NA","3036574","3034261","NA","1116144","3033770","1116144","1116144","2924859","2955959","3068225","3066722","3070337","2980592","2976783","3010398","NA","2866787","2907178","3008741","2976551","3034264","2976786","NA","3068225","3068225","NA","NA","3066718","NAP perception","5","16021","10","yes","1024"
"54.5454545455","yes","54.5454545455","1550.63636364","1550.63636364","white","no","xpyriment","Ich habe die obigen Informationen gelesen und verstanden.","legacy","legacy","0","uniform","1","0","0","undefined","undefined","1","j","2","1","NA","0","1","0","0","0","0","0","0","0","0","20","20","20","0","0","0","NA","0","0","2","0","0","0","2","20","20","20","20","20","Fri Oct 27 10:10:32 2017","Forced-choice identification task with a practice and an experimental phase","yes","NAP_GER_AA_4blocks_noglides.osexp","/Users/aviadalbert/Documents/Academisch/UoC/Dissertation/Experiment/OpenSesame/NAP-FC/NAP_GER_AA_4blocks_noglides","yes","no","sans","no","20","no","black","no","Weiter","yes","768","legacy","10","9","0","/Users/aviadalbert/Documents/Academisch/UoC/Dissertation/Experiment/OpenSesame/NAP-FC/NAP_GER_AA_4blocks_noglides/subject-29.csv","xpyriment","Jazzy James","3.1.9","yes","yes","59a800d99ad5a1025d81bb03","59a801616c613b0251691de0","no","no","0","j","f","space","NA","space","space","j","1036","2308","23315","NA","31095","20523","1036","2","legacy","1024","1","44100","-16","experiment","elmal","2","0","1","0","1","Eng French ","29","","odd","3034265","3010398","NA","NA","3036574","3034261","NA","1116144","3033770","1116144","1116144","2924859","2955959","3072114","3070608","3073151","2980592","2976783","3010398","NA","2866787","2907178","3008741","2976551","3034264","2976786","NA","3072114","3072114","NA","NA","3070603","NAP perception","6","17057","11","yes","1024"
"50","yes","50","1594.5","1594.5","white","no","xpyriment","Ich habe die obigen Informationen gelesen und verstanden.","legacy","legacy","0","uniform","0","0","0","undefined","undefined","0","j","2","1","NA","0","1","0","0","0","0","0","0","0","0","21","21","21","0","0","0","NA","0","0","2","0","0","0","2","21","21","21","21","21","Fri Oct 27 10:10:32 2017","Forced-choice identification task with a practice and an experimental phase","yes","NAP_GER_AA_4blocks_noglides.osexp","/Users/aviadalbert/Documents/Academisch/UoC/Dissertation/Experiment/OpenSesame/NAP-FC/NAP_GER_AA_4blocks_noglides","yes","no","sans","no","20","no","black","no","Weiter","yes","768","legacy","11","9","0","/Users/aviadalbert/Documents/Academisch/UoC/Dissertation/Experiment/OpenSesame/NAP-FC/NAP_GER_AA_4blocks_noglides/subject-29.csv","xpyriment","Jazzy James","3.1.9","yes","yes","59a800d99ad5a1025d81bb03","59a801616c613b0251691de0","no","no","0","f","f","space","NA","space","space","f","2077","2308","23315","NA","31095","20523","2077","2","legacy","1024","1","44100","-16","experiment","metal","2","0","1","0","1","Eng French ","29","","odd","3034265","3010398","NA","NA","3036574","3034261","NA","1116144","3033770","1116144","1116144","2924859","2955959","3074927","3073423","3077005","2980592","2976783","3010398","NA","2866787","2907178","3008741","2976551","3034264","2976786","NA","3074927","3074927","NA","NA","3073419","NAP perception","6","19134","12","yes","1024"
"53.8461538462","yes","53.8461538462","1570.92307692","1570.92307692","white","no","xpyriment","Ich habe die obigen Informationen gelesen und verstanden.","legacy","legacy","0","uniform","1","0","0","undefined","undefined","1","j","2","1","NA","0","1","0","0","0","0","0","0","0","0","22","22","22","0","0","0","NA","0","0","2","0","0","0","2","22","22","22","22","22","Fri Oct 27 10:10:32 2017","Forced-choice identification task with a practice and an experimental phase","yes","NAP_GER_AA_4blocks_noglides.osexp","/Users/aviadalbert/Documents/Academisch/UoC/Dissertation/Experiment/OpenSesame/NAP-FC/NAP_GER_AA_4blocks_noglides","yes","no","sans","no","20","no","black","no","Weiter","yes","768","legacy","12","9","0","/Users/aviadalbert/Documents/Academisch/UoC/Dissertation/Experiment/OpenSesame/NAP-FC/NAP_GER_AA_4blocks_noglides/subject-29.csv","xpyriment","Jazzy James","3.1.9","yes","yes","59a800d99ad5a1025d81bb03","59a801616c613b0251691de0","no","no","0","j","f","space","NA","space","space","j","1288","2308","23315","NA","31095","20523","1288","2","legacy","1024","1","44100","-16","experiment","eftal","2","0","1","0","1","Eng French ","29","","odd","3034265","3010398","NA","NA","3036574","3034261","NA","1116144","3033770","1116144","1116144","2924859","2955959","3078778","3077275","3080067","2980592","2976783","3010398","NA","2866787","2907178","3008741","2976551","3034264","2976786","NA","3078778","3078778","NA","NA","3077271","NAP perception","7","20422","13","yes","1024"
"50","yes","50","1579.42857143","1579.42857143","white","no","xpyriment","Ich habe die obigen Informationen gelesen und verstanden.","legacy","legacy","0","uniform","0","0","0","undefined","undefined","0","f","2","1","NA","0","1","0","0","0","0","0","0","0","0","23","23","23","0","0","0","NA","0","0","2","0","0","0","2","23","23","23","23","23","Fri Oct 27 10:10:32 2017","Forced-choice identification task with a practice and an experimental phase","yes","NAP_GER_AA_4blocks_noglides.osexp","/Users/aviadalbert/Documents/Academisch/UoC/Dissertation/Experiment/OpenSesame/NAP-FC/NAP_GER_AA_4blocks_noglides","yes","no","sans","no","20","no","black","no","Weiter","yes","768","legacy","13","9","0","/Users/aviadalbert/Documents/Academisch/UoC/Dissertation/Experiment/OpenSesame/NAP-FC/NAP_GER_AA_4blocks_noglides/subject-29.csv","xpyriment","Jazzy James","3.1.9","yes","yes","59a800d99ad5a1025d81bb03","59a801616c613b0251691de0","no","no","0","j","f","space","NA","space","space","j","1690","2308","23315","NA","31095","20523","1690","2","legacy","1024","1","44100","-16","experiment","lfal","2","0","1","0","1","Eng French ","29","","odd","3034265","3010398","NA","NA","3036574","3034261","NA","1116144","3033770","1116144","1116144","2924859","2955959","3081838","3080334","3083529","2980592","2976783","3010398","NA","2866787","2907178","3008741","2976551","3034264","2976786","NA","3081837","3081838","NA","NA","3080330","NAP perception","7","22112","14","yes","1024"
"46.6666666667","yes","46.6666666667","1662.8","1662.8","white","no","xpyriment","Ich habe die obigen Informationen gelesen und verstanden.","legacy","legacy","0","uniform","0","0","0","undefined","undefined","0","f","2","1","NA","0","1","0","0","0","0","0","0","0","0","24","24","24","0","0","0","NA","0","0","2","0","0","0","2","24","24","24","24","24","Fri Oct 27 10:10:32 2017","Forced-choice identification task with a practice and an experimental phase","yes","NAP_GER_AA_4blocks_noglides.osexp","/Users/aviadalbert/Documents/Academisch/UoC/Dissertation/Experiment/OpenSesame/NAP-FC/NAP_GER_AA_4blocks_noglides","yes","no","sans","no","20","no","black","no","Weiter","yes","768","legacy","14","9","0","/Users/aviadalbert/Documents/Academisch/UoC/Dissertation/Experiment/OpenSesame/NAP-FC/NAP_GER_AA_4blocks_noglides/subject-29.csv","xpyriment","Jazzy James","3.1.9","yes","yes","59a800d99ad5a1025d81bb03","59a801616c613b0251691de0","no","no","0","j","f","space","NA","space","space","j","2830","2308","23315","NA","31095","20523","2830","2","legacy","1024","1","44100","-16","experiment","mzal","2","0","1","0","1","Eng French ","29","","odd","3034265","3010398","NA","NA","3036574","3034261","NA","1116144","3033770","1116144","1116144","2924859","2955959","3085303","3083799","3088135","2980592","2976783","3010398","NA","2866787","2907178","3008741","2976551","3034264","2976786","NA","3085303","3085303","NA","NA","3083795","NAP perception","7","24942","15","yes","1024"
"50","yes","50","1622.8125","1622.8125","white","no","xpyriment","Ich habe die obigen Informationen gelesen und verstanden.","legacy","legacy","0","uniform","1","0","0","undefined","undefined","1","j","2","1","NA","0","1","0","0","0","0","0","0","0","0","25","25","25","0","0","0","NA","0","0","2","0","0","0","2","25","25","25","25","25","Fri Oct 27 10:10:32 2017","Forced-choice identification task with a practice and an experimental phase","yes","NAP_GER_AA_4blocks_noglides.osexp","/Users/aviadalbert/Documents/Academisch/UoC/Dissertation/Experiment/OpenSesame/NAP-FC/NAP_GER_AA_4blocks_noglides","yes","no","sans","no","20","no","black","no","Weiter","yes","768","legacy","15","9","0","/Users/aviadalbert/Documents/Academisch/UoC/Dissertation/Experiment/OpenSesame/NAP-FC/NAP_GER_AA_4blocks_noglides/subject-29.csv","xpyriment","Jazzy James","3.1.9","yes","yes","59a800d99ad5a1025d81bb03","59a801616c613b0251691de0","no","no","0","j","f","space","NA","space","space","j","1023","2308","23315","NA","31095","20523","1023","2","legacy","1024","1","44100","-16","experiment","fetal","2","0","1","0","1","Eng French ","29","","odd","3034265","3010398","NA","NA","3036574","3034261","NA","1116144","3033770","1116144","1116144","2924859","2955959","3089913","3088408","3090937","2980592","2976783","3010398","NA","2866787","2907178","3008741","2976551","3034264","2976786","NA","3089913","3089913","NA","NA","3088404","NAP perception","8","25965","16","yes","1024"
"47.0588235294","yes","47.0588235294","1640.52941176","1640.52941176","white","no","xpyriment","Ich habe die obigen Informationen gelesen und verstanden.","legacy","legacy","0","uniform","0","0","0","undefined","undefined","0","f","2","1","NA","0","1","0","0","0","0","0","0","0","0","26","26","26","0","0","0","NA","0","0","2","0","0","0","2","26","26","26","26","26","Fri Oct 27 10:10:32 2017","Forced-choice identification task with a practice and an experimental phase","yes","NAP_GER_AA_4blocks_noglides.osexp","/Users/aviadalbert/Documents/Academisch/UoC/Dissertation/Experiment/OpenSesame/NAP-FC/NAP_GER_AA_4blocks_noglides","yes","no","sans","no","20","no","black","no","Weiter","yes","768","legacy","16","9","0","/Users/aviadalbert/Documents/Academisch/UoC/Dissertation/Experiment/OpenSesame/NAP-FC/NAP_GER_AA_4blocks_noglides/subject-29.csv","xpyriment","Jazzy James","3.1.9","yes","yes","59a800d99ad5a1025d81bb03","59a801616c613b0251691de0","no","no","0","j","f","space","NA","space","space","j","1924","2308","23315","NA","31095","20523","1924","2","legacy","1024","1","44100","-16","experiment","nfal","2","0","1","0","1","Eng French ","29","","odd","3034265","3010398","NA","NA","3036574","3034261","NA","1116144","3033770","1116144","1116144","2924859","2955959","3092725","3091221","3094650","2980592","2976783","3010398","NA","2866787","2907178","3008741","2976551","3034264","2976786","NA","3092724","3092724","NA","NA","3091217","NAP perception","8","27889","17","yes","1024"
"50","yes","50","1614.55555556","1614.55555556","white","no","xpyriment","Ich habe die obigen Informationen gelesen und verstanden.","legacy","legacy","0","uniform","1","0","0","undefined","undefined","1","f","2","1","NA","0","1","0","0","0","0","0","0","0","0","27","27","27","0","0","0","NA","0","0","2","0","0","0","2","27","27","27","27","27","Fri Oct 27 10:10:32 2017","Forced-choice identification task with a practice and an experimental phase","yes","NAP_GER_AA_4blocks_noglides.osexp","/Users/aviadalbert/Documents/Academisch/UoC/Dissertation/Experiment/OpenSesame/NAP-FC/NAP_GER_AA_4blocks_noglides","yes","no","sans","no","20","no","black","no","Weiter","yes","768","legacy","17","9","0","/Users/aviadalbert/Documents/Academisch/UoC/Dissertation/Experiment/OpenSesame/NAP-FC/NAP_GER_AA_4blocks_noglides/subject-29.csv","xpyriment","Jazzy James","3.1.9","yes","yes","59a800d99ad5a1025d81bb03","59a801616c613b0251691de0","no","no","0","f","f","space","NA","space","space","f","1173","2308","23315","NA","31095","20523","1173","2","legacy","1024","1","44100","-16","experiment","spal","2","0","1","0","1","Eng French ","29","","odd","3034265","3010398","NA","NA","3036574","3034261","NA","1116144","3033770","1116144","1116144","2924859","2955959","3096430","3094927","3097604","2980592","2976783","3010398","NA","2866787","2907178","3008741","2976551","3034264","2976786","NA","3096430","3096430","NA","NA","3094923","NAP perception","9","29062","18","yes","1024"
"52.6315789474","yes","52.6315789474","1619.26315789","1619.26315789","white","no","xpyriment","Ich habe die obigen Informationen gelesen und verstanden.","legacy","legacy","0","uniform","1","0","0","undefined","undefined","1","j","2","1","NA","0","1","0","0","0","0","0","0","0","0","28","28","28","0","0","0","NA","0","0","2","0","0","0","2","28","28","28","28","28","Fri Oct 27 10:10:32 2017","Forced-choice identification task with a practice and an experimental phase","yes","NAP_GER_AA_4blocks_noglides.osexp","/Users/aviadalbert/Documents/Academisch/UoC/Dissertation/Experiment/OpenSesame/NAP-FC/NAP_GER_AA_4blocks_noglides","yes","no","sans","no","20","no","black","no","Weiter","yes","768","legacy","18","9","0","/Users/aviadalbert/Documents/Academisch/UoC/Dissertation/Experiment/OpenSesame/NAP-FC/NAP_GER_AA_4blocks_noglides/subject-29.csv","xpyriment","Jazzy James","3.1.9","yes","yes","59a800d99ad5a1025d81bb03","59a801616c613b0251691de0","no","no","0","j","f","space","NA","space","space","j","1704","2308","23315","NA","31095","20523","1704","2","legacy","1024","1","44100","-16","experiment","emzal","2","0","1","0","1","Eng French ","29","","odd","3034265","3010398","NA","NA","3036574","3034261","NA","1116144","3033770","1116144","1116144","2924859","2955959","3099391","3097886","3101096","2980592","2976783","3010398","NA","2866787","2907178","3008741","2976551","3034264","2976786","NA","3099391","3099391","NA","NA","3097882","NAP perception","10","30766","19","yes","1024"
"55","yes","55","1664.9","1664.9","white","no","xpyriment","Ich habe die obigen Informationen gelesen und verstanden.","legacy","legacy","0","uniform","1","0","0","undefined","undefined","1","j","2","1","NA","0","1","0","0","0","0","0","0","0","0","29","29","29","0","0","0","NA","0","0","2","0","0","0","2","29","29","29","29","29","Fri Oct 27 10:10:32 2017","Forced-choice identification task with a practice and an experimental phase","yes","NAP_GER_AA_4blocks_noglides.osexp","/Users/aviadalbert/Documents/Academisch/UoC/Dissertation/Experiment/OpenSesame/NAP-FC/NAP_GER_AA_4blocks_noglides","yes","no","sans","no","20","no","black","no","Weiter","yes","768","legacy","19","9","0","/Users/aviadalbert/Documents/Academisch/UoC/Dissertation/Experiment/OpenSesame/NAP-FC/NAP_GER_AA_4blocks_noglides/subject-29.csv","xpyriment","Jazzy James","3.1.9","yes","yes","59a800d99ad5a1025d81bb03","59a801616c613b0251691de0","no","no","0","j","f","space","NA","space","space","j","2532","2308","23315","NA","31095","20523","2532","2","legacy","1024","1","44100","-16","experiment","zeval","2","0","1","0","1","Eng French ","29","","odd","3034265","3010398","NA","NA","3036574","3034261","NA","1116144","3033770","1116144","1116144","2924859","2955959","3102870","3101366","3105404","2980592","2976783","3010398","NA","2866787","2907178","3008741","2976551","3034264","2976786","NA","3102870","3102870","NA","NA","3101363","NAP perception","11","33298","20","yes","1024"
"57.1428571429","yes","57.1428571429","1632.52380952","1632.52380952","white","no","xpyriment","Ich habe die obigen Informationen gelesen und verstanden.","legacy","legacy","0","uniform","1","0","0","undefined","undefined","1","f","2","1","NA","0","1","0","0","0","0","0","0","0","0","30","30","30","0","0","0","NA","0","0","2","0","0","0","2","30","30","30","30","30","Fri Oct 27 10:10:32 2017","Forced-choice identification task with a practice and an experimental phase","yes","NAP_GER_AA_4blocks_noglides.osexp","/Users/aviadalbert/Documents/Academisch/UoC/Dissertation/Experiment/OpenSesame/NAP-FC/NAP_GER_AA_4blocks_noglides","yes","no","sans","no","20","no","black","no","Weiter","yes","768","legacy","20","9","0","/Users/aviadalbert/Documents/Academisch/UoC/Dissertation/Experiment/OpenSesame/NAP-FC/NAP_GER_AA_4blocks_noglides/subject-29.csv","xpyriment","Jazzy James","3.1.9","yes","yes","59a800d99ad5a1025d81bb03","59a801616c613b0251691de0","no","no","0","f","f","space","NA","space","space","f","985","2308","23315","NA","31095","20523","985","2","legacy","1024","1","44100","-16","experiment","smal","2","0","1","0","1","Eng French ","29","","odd","3034265","3010398","NA","NA","3036574","3034261","NA","1116144","3033770","1116144","1116144","2924859","2955959","3107192","3105689","3108179","2980592","2976783","3010398","NA","2866787","2907178","3008741","2976551","3034264","2976786","NA","3107192","3107192","NA","NA","3105685","NAP perception","12","34283","21","yes","1024"
"54.5454545455","yes","54.5454545455","1652.27272727","1652.27272727","white","no","xpyriment","Ich habe die obigen Informationen gelesen und verstanden.","legacy","legacy","0","uniform","0","0","0","undefined","undefined","0","f","2","1","NA","0","1","0","0","0","0","0","0","0","0","31","31","31","0","0","0","NA","0","0","2","0","0","0","2","31","31","31","31","31","Fri Oct 27 10:10:32 2017","Forced-choice identification task with a practice and an experimental phase","yes","NAP_GER_AA_4blocks_noglides.osexp","/Users/aviadalbert/Documents/Academisch/UoC/Dissertation/Experiment/OpenSesame/NAP-FC/NAP_GER_AA_4blocks_noglides","yes","no","sans","no","20","no","black","no","Weiter","yes","768","legacy","21","9","0","/Users/aviadalbert/Documents/Academisch/UoC/Dissertation/Experiment/OpenSesame/NAP-FC/NAP_GER_AA_4blocks_noglides/subject-29.csv","xpyriment","Jazzy James","3.1.9","yes","yes","59a800d99ad5a1025d81bb03","59a801616c613b0251691de0","no","no","0","j","f","space","NA","space","space","j","2067","2308","23315","NA","31095","20523","2067","2","legacy","1024","1","44100","-16","experiment","nmal","2","0","1","0","1","Eng French ","29","","odd","3034265","3010398","NA","NA","3036574","3034261","NA","1116144","3033770","1116144","1116144","2924859","2955959","3109952","3108449","3112021","2980592","2976783","3010398","NA","2866787","2907178","3008741","2976551","3034264","2976786","NA","3109952","3109952","NA","NA","3108445","NAP perception","12","36350","22","yes","1024"
"52.1739130435","yes","52.1739130435","1646.52173913","1646.52173913","white","no","xpyriment","Ich habe die obigen Informationen gelesen und verstanden.","legacy","legacy","0","uniform","0","0","0","undefined","undefined","0","f","2","1","NA","0","1","0","0","0","0","0","0","0","0","32","32","32","0","0","0","NA","0","0","2","0","0","0","2","32","32","32","32","32","Fri Oct 27 10:10:32 2017","Forced-choice identification task with a practice and an experimental phase","yes","NAP_GER_AA_4blocks_noglides.osexp","/Users/aviadalbert/Documents/Academisch/UoC/Dissertation/Experiment/OpenSesame/NAP-FC/NAP_GER_AA_4blocks_noglides","yes","no","sans","no","20","no","black","no","Weiter","yes","768","legacy","22","9","0","/Users/aviadalbert/Documents/Academisch/UoC/Dissertation/Experiment/OpenSesame/NAP-FC/NAP_GER_AA_4blocks_noglides/subject-29.csv","xpyriment","Jazzy James","3.1.9","yes","yes","59a800d99ad5a1025d81bb03","59a801616c613b0251691de0","no","no","0","j","f","space","NA","space","space","j","1520","2308","23315","NA","31095","20523","1520","2","legacy","1024","1","44100","-16","experiment","nmal","2","0","1","0","1","Eng French ","29","","odd","3034265","3010398","NA","NA","3036574","3034261","NA","1116144","3033770","1116144","1116144","2924859","2955959","3113806","3112301","3115328","2980592","2976783","3010398","NA","2866787","2907178","3008741","2976551","3034264","2976786","NA","3113806","3113806","NA","NA","3112297","NAP perception","12","37870","23","yes","1024"
"50","yes","50","1655.16666667","1655.16666667","white","no","xpyriment","Ich habe die obigen Informationen gelesen und verstanden.","legacy","legacy","0","uniform","0","0","0","undefined","undefined","0","f","2","1","NA","0","1","0","0","0","0","0","0","0","0","33","33","33","0","0","0","NA","0","0","2","0","0","0","2","33","33","33","33","33","Fri Oct 27 10:10:32 2017","Forced-choice identification task with a practice and an experimental phase","yes","NAP_GER_AA_4blocks_noglides.osexp","/Users/aviadalbert/Documents/Academisch/UoC/Dissertation/Experiment/OpenSesame/NAP-FC/NAP_GER_AA_4blocks_noglides","yes","no","sans","no","20","no","black","no","Weiter","yes","768","legacy","23","9","0","/Users/aviadalbert/Documents/Academisch/UoC/Dissertation/Experiment/OpenSesame/NAP-FC/NAP_GER_AA_4blocks_noglides/subject-29.csv","xpyriment","Jazzy James","3.1.9","yes","yes","59a800d99ad5a1025d81bb03","59a801616c613b0251691de0","no","no","0","j","f","space","NA","space","space","j","1854","2308","23315","NA","31095","20523","1854","2","legacy","1024","1","44100","-16","experiment","nval","2","0","1","0","1","Eng French ","29","","odd","3034265","3010398","NA","NA","3036574","3034261","NA","1116144","3033770","1116144","1116144","2924859","2955959","3117092","3115588","3118947","2980592","2976783","3010398","NA","2866787","2907178","3008741","2976551","3034264","2976786","NA","3117092","3117092","NA","NA","3115584","NAP perception","12","39724","24","yes","1024"
"52","yes","52","1636.4","1636.4","white","no","xpyriment","Ich habe die obigen Informationen gelesen und verstanden.","legacy","legacy","0","uniform","1","0","0","undefined","undefined","1","j","2","1","NA","0","1","0","0","0","0","0","0","0","0","34","34","34","0","0","0","NA","0","0","2","0","0","0","2","34","34","34","34","34","Fri Oct 27 10:10:32 2017","Forced-choice identification task with a practice and an experimental phase","yes","NAP_GER_AA_4blocks_noglides.osexp","/Users/aviadalbert/Documents/Academisch/UoC/Dissertation/Experiment/OpenSesame/NAP-FC/NAP_GER_AA_4blocks_noglides","yes","no","sans","no","20","no","black","no","Weiter","yes","768","legacy","24","9","0","/Users/aviadalbert/Documents/Academisch/UoC/Dissertation/Experiment/OpenSesame/NAP-FC/NAP_GER_AA_4blocks_noglides/subject-29.csv","xpyriment","Jazzy James","3.1.9","yes","yes","59a800d99ad5a1025d81bb03","59a801616c613b0251691de0","no","no","0","j","f","space","NA","space","space","j","1186","2308","23315","NA","31095","20523","1186","2","legacy","1024","1","44100","-16","experiment","enpal","2","0","1","0","1","Eng French ","29","","odd","3034265","3010398","NA","NA","3036574","3034261","NA","1116144","3033770","1116144","1116144","2924859","2955959","3120718","3119215","3121905","2980592","2976783","3010398","NA","2866787","2907178","3008741","2976551","3034264","2976786","NA","3120718","3120718","NA","NA","3119211","NAP perception","13","40910","25","yes","1024"
"53.8461538462","yes","53.8461538462","1644.65384615","1644.65384615","white","no","xpyriment","Ich habe die obigen Informationen gelesen und verstanden.","legacy","legacy","0","uniform","1","0","0","undefined","undefined","1","j","2","1","NA","0","1","0","0","0","0","0","0","0","0","35","35","35","0","0","0","NA","0","0","2","0","0","0","2","35","35","35","35","35","Fri Oct 27 10:10:32 2017","Forced-choice identification task with a practice and an experimental phase","yes","NAP_GER_AA_4blocks_noglides.osexp","/Users/aviadalbert/Documents/Academisch/UoC/Dissertation/Experiment/OpenSesame/NAP-FC/NAP_GER_AA_4blocks_noglides","yes","no","sans","no","20","no","black","no","Weiter","yes","768","legacy","25","9","0","/Users/aviadalbert/Documents/Academisch/UoC/Dissertation/Experiment/OpenSesame/NAP-FC/NAP_GER_AA_4blocks_noglides/subject-29.csv","xpyriment","Jazzy James","3.1.9","yes","yes","59a800d99ad5a1025d81bb03","59a801616c613b0251691de0","no","no","0","j","f","space","NA","space","space","j","1851","2308","23315","NA","31095","20523","1851","2","legacy","1024","1","44100","-16","experiment","fenal","2","0","1","0","1","Eng French ","29","","odd","3034265","3010398","NA","NA","3036574","3034261","NA","1116144","3033770","1116144","1116144","2924859","2955959","3123691","3122188","3125543","2980592","2976783","3010398","NA","2866787","2907178","3008741","2976551","3034264","2976786","NA","3123691","3123691","NA","NA","3122184","NAP perception","14","42761","26","yes","1024"
"51.8518518519","yes","51.8518518519","1671.51851852","1671.51851852","white","no","xpyriment","Ich habe die obigen Informationen gelesen und verstanden.","legacy","legacy","0","uniform","0","0","0","undefined","undefined","0","j","2","1","NA","0","1","0","0","0","0","0","0","0","0","36","36","36","0","0","0","NA","0","0","2","0","0","0","2","36","36","36","36","36","Fri Oct 27 10:10:32 2017","Forced-choice identification task with a practice and an experimental phase","yes","NAP_GER_AA_4blocks_noglides.osexp","/Users/aviadalbert/Documents/Academisch/UoC/Dissertation/Experiment/OpenSesame/NAP-FC/NAP_GER_AA_4blocks_noglides","yes","no","sans","no","20","no","black","no","Weiter","yes","768","legacy","26","9","0","/Users/aviadalbert/Documents/Academisch/UoC/Dissertation/Experiment/OpenSesame/NAP-FC/NAP_GER_AA_4blocks_noglides/subject-29.csv","xpyriment","Jazzy James","3.1.9","yes","yes","59a800d99ad5a1025d81bb03","59a801616c613b0251691de0","no","no","0","f","f","space","NA","space","space","f","2370","2308","23315","NA","31095","20523","2370","2","legacy","1024","1","44100","-16","experiment","eʃpal","2","0","1","0","1","Eng French ","29","","odd","3034265","3010398","NA","NA","3036574","3034261","NA","1116144","3033770","1116144","1116144","2924859","2955959","3127326","3125823","3129698","2980592","2976783","3010398","NA","2866787","2907178","3008741","2976551","3034264","2976786","NA","3127326","3127326","NA","NA","3125819","NAP perception","14","45131","27","yes","1024"
"53.5714285714","yes","53.5714285714","1658.92857143","1658.92857143","white","no","xpyriment","Ich habe die obigen Informationen gelesen und verstanden.","legacy","legacy","0","uniform","1","0","0","undefined","undefined","1","j","2","1","NA","0","1","0","0","0","0","0","0","0","0","37","37","37","0","0","0","NA","0","0","2","0","0","0","2","37","37","37","37","37","Fri Oct 27 10:10:32 2017","Forced-choice identification task with a practice and an experimental phase","yes","NAP_GER_AA_4blocks_noglides.osexp","/Users/aviadalbert/Documents/Academisch/UoC/Dissertation/Experiment/OpenSesame/NAP-FC/NAP_GER_AA_4blocks_noglides","yes","no","sans","no","20","no","black","no","Weiter","yes","768","legacy","27","9","0","/Users/aviadalbert/Documents/Academisch/UoC/Dissertation/Experiment/OpenSesame/NAP-FC/NAP_GER_AA_4blocks_noglides/subject-29.csv","xpyriment","Jazzy James","3.1.9","yes","yes","59a800d99ad5a1025d81bb03","59a801616c613b0251691de0","no","no","0","j","f","space","NA","space","space","j","1319","2308","23315","NA","31095","20523","1319","2","legacy","1024","1","44100","-16","experiment","elval","2","0","1","0","1","Eng French ","29","","odd","3034265","3010398","NA","NA","3036574","3034261","NA","1116144","3033770","1116144","1116144","2924859","2955959","3131477","3129973","3132798","2980592","2976783","3010398","NA","2866787","2907178","3008741","2976551","3034264","2976786","NA","3131477","3131477","NA","NA","3129969","NAP perception","15","46450","28","yes","1024"
"55.1724137931","yes","55.1724137931","1664.82758621","1664.82758621","white","no","xpyriment","Ich habe die obigen Informationen gelesen und verstanden.","legacy","legacy","0","uniform","1","0","0","undefined","undefined","1","f","2","1","NA","0","1","0","0","0","0","0","0","0","0","38","38","38","0","0","0","NA","0","0","2","0","0","0","2","38","38","38","38","38","Fri Oct 27 10:10:32 2017","Forced-choice identification task with a practice and an experimental phase","yes","NAP_GER_AA_4blocks_noglides.osexp","/Users/aviadalbert/Documents/Academisch/UoC/Dissertation/Experiment/OpenSesame/NAP-FC/NAP_GER_AA_4blocks_noglides","yes","no","sans","no","20","no","black","no","Weiter","yes","768","legacy","28","9","0","/Users/aviadalbert/Documents/Academisch/UoC/Dissertation/Experiment/OpenSesame/NAP-FC/NAP_GER_AA_4blocks_noglides/subject-29.csv","xpyriment","Jazzy James","3.1.9","yes","yes","59a800d99ad5a1025d81bb03","59a801616c613b0251691de0","no","no","0","f","f","space","NA","space","space","f","1830","2308","23315","NA","31095","20523","1830","2","legacy","1024","1","44100","-16","experiment","ftal","2","0","1","0","1","Eng French ","29","","odd","3034265","3010398","NA","NA","3036574","3034261","NA","1116144","3033770","1116144","1116144","2924859","2955959","3134595","3133088","3136426","2980592","2976783","3010398","NA","2866787","2907178","3008741","2976551","3034264","2976786","NA","3134595","3134595","NA","NA","3133084","NAP perception","16","48280","29","yes","1024"
"53.3333333333","yes","53.3333333333","1689.66666667","1689.66666667","white","no","xpyriment","Ich habe die obigen Informationen gelesen und verstanden.","legacy","legacy","0","uniform","0","0","0","undefined","undefined","0","j","2","1","NA","0","1","0","0","0","0","0","0","0","0","39","39","39","0","0","0","NA","0","0","2","0","0","0","2","39","39","39","39","39","Fri Oct 27 10:10:32 2017","Forced-choice identification task with a practice and an experimental phase","yes","NAP_GER_AA_4blocks_noglides.osexp","/Users/aviadalbert/Documents/Academisch/UoC/Dissertation/Experiment/OpenSesame/NAP-FC/NAP_GER_AA_4blocks_noglides","yes","no","sans","no","20","no","black","no","Weiter","yes","768","legacy","29","9","0","/Users/aviadalbert/Documents/Academisch/UoC/Dissertation/Experiment/OpenSesame/NAP-FC/NAP_GER_AA_4blocks_noglides/subject-29.csv","xpyriment","Jazzy James","3.1.9","yes","yes","59a800d99ad5a1025d81bb03","59a801616c613b0251691de0","no","no","0","f","f","space","NA","space","space","f","2410","2308","23315","NA","31095","20523","2410","2","legacy","1024","1","44100","-16","experiment","semal","2","0","1","0","1","Eng French ","29","","odd","3034265","3010398","NA","NA","3036574","3034261","NA","1116144","3033770","1116144","1116144","2924859","2955959","3138203","3136700","3140614","2980592","2976783","3010398","NA","2866787","2907178","3008741","2976551","3034264","2976786","NA","3138203","3138203","NA","NA","3136696","NAP perception","16","50690","30","yes","1024"
"54.8387096774","yes","54.8387096774","1680.09677419","1680.09677419","white","no","xpyriment","Ich habe die obigen Informationen gelesen und verstanden.","legacy","legacy","0","uniform","1","0","0","undefined","undefined","1","f","2","1","NA","0","1","0","0","0","0","0","0","0","0","40","40","40","0","0","0","NA","0","0","2","0","0","0","2","40","40","40","40","40","Fri Oct 27 10:10:32 2017","Forced-choice identification task with a practice and an experimental phase","yes","NAP_GER_AA_4blocks_noglides.osexp","/Users/aviadalbert/Documents/Academisch/UoC/Dissertation/Experiment/OpenSesame/NAP-FC/NAP_GER_AA_4blocks_noglides","yes","no","sans","no","20","no","black","no","Weiter","yes","768","legacy","30","9","0","/Users/aviadalbert/Documents/Academisch/UoC/Dissertation/Experiment/OpenSesame/NAP-FC/NAP_GER_AA_4blocks_noglides/subject-29.csv","xpyriment","Jazzy James","3.1.9","yes","yes","59a800d99ad5a1025d81bb03","59a801616c613b0251691de0","no","no","0","f","f","space","NA","space","space","f","1393","2308","23315","NA","31095","20523","1393","2","legacy","1024","1","44100","-16","experiment","ʃpal","2","0","1","0","1","Eng French ","29","","odd","3034265","3010398","NA","NA","3036574","3034261","NA","1116144","3033770","1116144","1116144","2924859","2955959","3142394","3140890","3143789","2980592","2976783","3010398","NA","2866787","2907178","3008741","2976551","3034264","2976786","NA","3142394","3142394","NA","NA","3140886","NAP perception","17","52083","31","yes","1024"
"56.25","yes","56.25","1664.875","1664.875","white","no","xpyriment","Ich habe die obigen Informationen gelesen und verstanden.","legacy","legacy","0","uniform","1","0","0","undefined","undefined","1","j","2","1","NA","0","1","0","0","0","0","0","0","0","0","41","41","41","0","0","0","NA","0","0","2","0","0","0","2","41","41","41","41","41","Fri Oct 27 10:10:32 2017","Forced-choice identification task with a practice and an experimental phase","yes","NAP_GER_AA_4blocks_noglides.osexp","/Users/aviadalbert/Documents/Academisch/UoC/Dissertation/Experiment/OpenSesame/NAP-FC/NAP_GER_AA_4blocks_noglides","yes","no","sans","no","20","no","black","no","Weiter","yes","768","legacy","31","9","0","/Users/aviadalbert/Documents/Academisch/UoC/Dissertation/Experiment/OpenSesame/NAP-FC/NAP_GER_AA_4blocks_noglides/subject-29.csv","xpyriment","Jazzy James","3.1.9","yes","yes","59a800d99ad5a1025d81bb03","59a801616c613b0251691de0","no","no","0","j","f","space","NA","space","space","j","1193","2308","23315","NA","31095","20523","1193","2","legacy","1024","1","44100","-16","experiment","lekal","2","0","1","0","1","Eng French ","29","","odd","3034265","3010398","NA","NA","3036574","3034261","NA","1116144","3033770","1116144","1116144","2924859","2955959","3145573","3144069","3146768","2980592","2976783","3010398","NA","2866787","2907178","3008741","2976551","3034264","2976786","NA","3145573","3145573","NA","NA","3144065","NAP perception","18","53276","32","yes","1024"
"54.5454545455","yes","54.5454545455","1665.09090909","1665.09090909","white","no","xpyriment","Ich habe die obigen Informationen gelesen und verstanden.","legacy","legacy","0","uniform","0","0","0","undefined","undefined","0","f","2","1","NA","0","1","0","0","0","0","0","0","0","0","42","42","42","0","0","0","NA","0","0","2","0","0","0","2","42","42","42","42","42","Fri Oct 27 10:10:32 2017","Forced-choice identification task with a practice and an experimental phase","yes","NAP_GER_AA_4blocks_noglides.osexp","/Users/aviadalbert/Documents/Academisch/UoC/Dissertation/Experiment/OpenSesame/NAP-FC/NAP_GER_AA_4blocks_noglides","yes","no","sans","no","20","no","black","no","Weiter","yes","768","legacy","32","9","0","/Users/aviadalbert/Documents/Academisch/UoC/Dissertation/Experiment/OpenSesame/NAP-FC/NAP_GER_AA_4blocks_noglides/subject-29.csv","xpyriment","Jazzy James","3.1.9","yes","yes","59a800d99ad5a1025d81bb03","59a801616c613b0251691de0","no","no","0","j","f","space","NA","space","space","j","1672","2308","23315","NA","31095","20523","1672","2","legacy","1024","1","44100","-16","experiment","lpal","2","0","1","0","1","Eng French ","29","","odd","3034265","3010398","NA","NA","3036574","3034261","NA","1116144","3033770","1116144","1116144","2924859","2955959","3148544","3147037","3150218","2980592","2976783","3010398","NA","2866787","2907178","3008741","2976551","3034264","2976786","NA","3148543","3148543","NA","NA","3147033","NAP perception","18","54948","33","yes","1024"
"55.8823529412","yes","55.8823529412","1660.61764706","1660.61764706","white","no","xpyriment","Ich habe die obigen Informationen gelesen und verstanden.","legacy","legacy","0","uniform","1","0","0","undefined","undefined","1","f","2","1","NA","0","1","0","0","0","0","0","0","0","0","43","43","43","0","0","0","NA","0","0","2","0","0","0","2","43","43","43","43","43","Fri Oct 27 10:10:32 2017","Forced-choice identification task with a practice and an experimental phase","yes","NAP_GER_AA_4blocks_noglides.osexp","/Users/aviadalbert/Documents/Academisch/UoC/Dissertation/Experiment/OpenSesame/NAP-FC/NAP_GER_AA_4blocks_noglides","yes","no","sans","no","20","no","black","no","Weiter","yes","768","legacy","33","9","0","/Users/aviadalbert/Documents/Academisch/UoC/Dissertation/Experiment/OpenSesame/NAP-FC/NAP_GER_AA_4blocks_noglides/subject-29.csv","xpyriment","Jazzy James","3.1.9","yes","yes","59a800d99ad5a1025d81bb03","59a801616c613b0251691de0","no","no","0","f","f","space","NA","space","space","f","1513","2308","23315","NA","31095","20523","1513","2","legacy","1024","1","44100","-16","experiment","vnal","2","0","1","0","1","Eng French ","29","","odd","3034265","3010398","NA","NA","3036574","3034261","NA","1116144","3033770","1116144","1116144","2924859","2955959","3152001","3150495","3153515","2980592","2976783","3010398","NA","2866787","2907178","3008741","2976551","3034264","2976786","NA","3152000","3152000","NA","NA","3150491","NAP perception","19","56461","34","yes","1024"
"57.1428571429","yes","57.1428571429","1643.14285714","1643.14285714","white","no","xpyriment","Ich habe die obigen Informationen gelesen und verstanden.","legacy","legacy","0","uniform","1","0","0","undefined","undefined","1","f","2","1","NA","0","1","0","0","0","0","0","0","0","0","44","44","44","0","0","0","NA","0","0","2","0","0","0","2","44","44","44","44","44","Fri Oct 27 10:10:32 2017","Forced-choice identification task with a practice and an experimental phase","yes","NAP_GER_AA_4blocks_noglides.osexp","/Users/aviadalbert/Documents/Academisch/UoC/Dissertation/Experiment/OpenSesame/NAP-FC/NAP_GER_AA_4blocks_noglides","yes","no","sans","no","20","no","black","no","Weiter","yes","768","legacy","34","9","0","/Users/aviadalbert/Documents/Academisch/UoC/Dissertation/Experiment/OpenSesame/NAP-FC/NAP_GER_AA_4blocks_noglides/subject-29.csv","xpyriment","Jazzy James","3.1.9","yes","yes","59a800d99ad5a1025d81bb03","59a801616c613b0251691de0","no","no","0","f","f","space","NA","space","space","f","1049","2308","23315","NA","31095","20523","1049","2","legacy","1024","1","44100","-16","experiment","zmal","2","0","1","0","1","Eng French ","29","","odd","3034265","3010398","NA","NA","3036574","3034261","NA","1116144","3033770","1116144","1116144","2924859","2955959","3155306","3153803","3156356","2980592","2976783","3010398","NA","2866787","2907178","3008741","2976551","3034264","2976786","NA","3155306","3155306","NA","NA","3153799","NAP perception","20","57510","35","yes","1024"
"58.3333333333","yes","58.3333333333","1634.47222222","1634.47222222","white","no","xpyriment","Ich habe die obigen Informationen gelesen und verstanden.","legacy","legacy","0","uniform","1","0","0","undefined","undefined","1","j","2","1","NA","0","1","0","0","0","0","0","0","0","0","45","45","45","0","0","0","NA","0","0","2","0","0","0","2","45","45","45","45","45","Fri Oct 27 10:10:32 2017","Forced-choice identification task with a practice and an experimental phase","yes","NAP_GER_AA_4blocks_noglides.osexp","/Users/aviadalbert/Documents/Academisch/UoC/Dissertation/Experiment/OpenSesame/NAP-FC/NAP_GER_AA_4blocks_noglides","yes","no","sans","no","20","no","black","no","Weiter","yes","768","legacy","35","9","0","/Users/aviadalbert/Documents/Academisch/UoC/Dissertation/Experiment/OpenSesame/NAP-FC/NAP_GER_AA_4blocks_noglides/subject-29.csv","xpyriment","Jazzy James","3.1.9","yes","yes","59a800d99ad5a1025d81bb03","59a801616c613b0251691de0","no","no","0","j","f","space","NA","space","space","j","1331","2308","23315","NA","31095","20523","1331","2","legacy","1024","1","44100","-16","experiment","venal","2","0","1","0","1","Eng French ","29","","odd","3034265","3010398","NA","NA","3036574","3034261","NA","1116144","3033770","1116144","1116144","2924859","2955959","3158149","3156645","3159481","2980592","2976783","3010398","NA","2866787","2907178","3008741","2976551","3034264","2976786","NA","3158148","3158149","NA","NA","3156641","NAP perception","21","58841","36","yes","1024"
"56.7567567568","yes","56.7567567568","1620.05405405","1620.05405405","white","no","xpyriment","Ich habe die obigen Informationen gelesen und verstanden.","legacy","legacy","0","uniform","0","0","0","undefined","undefined","0","f","2","1","NA","0","1","0","0","0","0","0","0","0","0","46","46","46","0","0","0","NA","0","0","2","0","0","0","2","46","46","46","46","46","Fri Oct 27 10:10:32 2017","Forced-choice identification task with a practice and an experimental phase","yes","NAP_GER_AA_4blocks_noglides.osexp","/Users/aviadalbert/Documents/Academisch/UoC/Dissertation/Experiment/OpenSesame/NAP-FC/NAP_GER_AA_4blocks_noglides","yes","no","sans","no","20","no","black","no","Weiter","yes","768","legacy","36","9","0","/Users/aviadalbert/Documents/Academisch/UoC/Dissertation/Experiment/OpenSesame/NAP-FC/NAP_GER_AA_4blocks_noglides/subject-29.csv","xpyriment","Jazzy James","3.1.9","yes","yes","59a800d99ad5a1025d81bb03","59a801616c613b0251691de0","no","no","0","j","f","space","NA","space","space","j","1101","2308","23315","NA","31095","20523","1101","2","legacy","1024","1","44100","-16","experiment","npal","2","0","1","0","1","Eng French ","29","","odd","3034265","3010398","NA","NA","3036574","3034261","NA","1116144","3033770","1116144","1116144","2924859","2955959","3161264","3159760","3162366","2980592","2976783","3010398","NA","2866787","2907178","3008741","2976551","3034264","2976786","NA","3161263","3161263","NA","NA","3159756","NAP perception","21","59942","37","yes","1024"
"57.8947368421","yes","57.8947368421","1653.68421053","1653.68421053","white","no","xpyriment","Ich habe die obigen Informationen gelesen und verstanden.","legacy","legacy","0","uniform","1","0","0","undefined","undefined","1","j","2","1","NA","0","1","0","0","0","0","0","0","0","0","47","47","47","0","0","0","NA","0","0","2","0","0","0","2","47","47","47","47","47","Fri Oct 27 10:10:32 2017","Forced-choice identification task with a practice and an experimental phase","yes","NAP_GER_AA_4blocks_noglides.osexp","/Users/aviadalbert/Documents/Academisch/UoC/Dissertation/Experiment/OpenSesame/NAP-FC/NAP_GER_AA_4blocks_noglides","yes","no","sans","no","20","no","black","no","Weiter","yes","768","legacy","37","9","0","/Users/aviadalbert/Documents/Academisch/UoC/Dissertation/Experiment/OpenSesame/NAP-FC/NAP_GER_AA_4blocks_noglides/subject-29.csv","xpyriment","Jazzy James","3.1.9","yes","yes","59a800d99ad5a1025d81bb03","59a801616c613b0251691de0","no","no","0","j","f","space","NA","space","space","j","2898","2308","23315","NA","31095","20523","2898","2","legacy","1024","1","44100","-16","experiment","eflal","2","0","1","0","1","Eng French ","29","","odd","3034265","3010398","NA","NA","3036574","3034261","NA","1116144","3033770","1116144","1116144","2924859","2955959","3164143","3162639","3167043","2980592","2976783","3010398","NA","2866787","2907178","3008741","2976551","3034264","2976786","NA","3164143","3164143","NA","NA","3162635","NAP perception","22","62840","38","yes","1024"
"58.9743589744","yes","58.9743589744","1645.97435897","1645.97435897","white","no","xpyriment","Ich habe die obigen Informationen gelesen und verstanden.","legacy","legacy","0","uniform","1","0","0","undefined","undefined","1","f","2","1","NA","0","1","0","0","0","0","0","0","0","0","48","48","48","0","0","0","NA","0","0","2","0","0","0","2","48","48","48","48","48","Fri Oct 27 10:10:32 2017","Forced-choice identification task with a practice and an experimental phase","yes","NAP_GER_AA_4blocks_noglides.osexp","/Users/aviadalbert/Documents/Academisch/UoC/Dissertation/Experiment/OpenSesame/NAP-FC/NAP_GER_AA_4blocks_noglides","yes","no","sans","no","20","no","black","no","Weiter","yes","768","legacy","38","9","0","/Users/aviadalbert/Documents/Academisch/UoC/Dissertation/Experiment/OpenSesame/NAP-FC/NAP_GER_AA_4blocks_noglides/subject-29.csv","xpyriment","Jazzy James","3.1.9","yes","yes","59a800d99ad5a1025d81bb03","59a801616c613b0251691de0","no","no","0","f","f","space","NA","space","space","f","1353","2308","23315","NA","31095","20523","1353","2","legacy","1024","1","44100","-16","experiment","spal","2","0","1","0","1","Eng French ","29","","odd","3034265","3010398","NA","NA","3036574","3034261","NA","1116144","3033770","1116144","1116144","2924859","2955959","3168831","3167328","3170185","2980592","2976783","3010398","NA","2866787","2907178","3008741","2976551","3034264","2976786","NA","3168831","3168831","NA","NA","3167324","NAP perception","23","64193","39","yes","1024"
"60","yes","60","1630.85","1630.85","white","no","xpyriment","Ich habe die obigen Informationen gelesen und verstanden.","legacy","legacy","0","uniform","1","0","0","undefined","undefined","1","j","2","1","NA","0","1","0","0","0","0","0","0","0","0","49","49","49","0","0","0","NA","0","0","2","0","0","0","2","49","49","49","49","49","Fri Oct 27 10:10:32 2017","Forced-choice identification task with a practice and an experimental phase","yes","NAP_GER_AA_4blocks_noglides.osexp","/Users/aviadalbert/Documents/Academisch/UoC/Dissertation/Experiment/OpenSesame/NAP-FC/NAP_GER_AA_4blocks_noglides","yes","no","sans","no","20","no","black","no","Weiter","yes","768","legacy","39","9","0","/Users/aviadalbert/Documents/Academisch/UoC/Dissertation/Experiment/OpenSesame/NAP-FC/NAP_GER_AA_4blocks_noglides/subject-29.csv","xpyriment","Jazzy James","3.1.9","yes","yes","59a800d99ad5a1025d81bb03","59a801616c613b0251691de0","no","no","0","j","f","space","NA","space","space","j","1041","2308","23315","NA","31095","20523","1041","2","legacy","1024","1","44100","-16","experiment","esfal","2","0","1","0","1","Eng French ","29","","odd","3034265","3010398","NA","NA","3036574","3034261","NA","1116144","3033770","1116144","1116144","2924859","2955959","3171968","3170465","3173010","2980592","2976783","3010398","NA","2866787","2907178","3008741","2976551","3034264","2976786","NA","3171968","3171968","NA","NA","3170461","NAP perception","24","65234","40","yes","1024"
"58.5365853659","yes","58.5365853659","1638.04878049","1638.04878049","white","no","xpyriment","Ich habe die obigen Informationen gelesen und verstanden.","legacy","legacy","0","uniform","0","0","0","undefined","undefined","0","f","2","1","NA","0","1","0","0","0","0","0","0","0","0","50","50","50","0","0","0","NA","0","0","2","0","0","0","2","50","50","50","50","50","Fri Oct 27 10:10:32 2017","Forced-choice identification task with a practice and an experimental phase","yes","NAP_GER_AA_4blocks_noglides.osexp","/Users/aviadalbert/Documents/Academisch/UoC/Dissertation/Experiment/OpenSesame/NAP-FC/NAP_GER_AA_4blocks_noglides","yes","no","sans","no","20","no","black","no","Weiter","yes","768","legacy","40","9","0","/Users/aviadalbert/Documents/Academisch/UoC/Dissertation/Experiment/OpenSesame/NAP-FC/NAP_GER_AA_4blocks_noglides/subject-29.csv","xpyriment","Jazzy James","3.1.9","yes","yes","59a800d99ad5a1025d81bb03","59a801616c613b0251691de0","no","no","0","j","f","space","NA","space","space","j","1926","2308","23315","NA","31095","20523","1926","2","legacy","1024","1","44100","-16","experiment","nfal","2","0","1","0","1","Eng French ","29","","odd","3034265","3010398","NA","NA","3036574","3034261","NA","1116144","3033770","1116144","1116144","2924859","2955959","3174808","3173301","3176735","2980592","2976783","3010398","NA","2866787","2907178","3008741","2976551","3034264","2976786","NA","3174808","3174808","NA","NA","3173297","NAP perception","24","67160","41","yes","1024"
"59.5238095238","yes","59.5238095238","1628.88095238","1628.88095238","white","no","xpyriment","Ich habe die obigen Informationen gelesen und verstanden.","legacy","legacy","0","uniform","1","0","0","undefined","undefined","1","j","2","1","NA","0","1","0","0","0","0","0","0","0","0","51","51","51","0","0","0","NA","0","0","2","0","0","0","2","51","51","51","51","51","Fri Oct 27 10:10:32 2017","Forced-choice identification task with a practice and an experimental phase","yes","NAP_GER_AA_4blocks_noglides.osexp","/Users/aviadalbert/Documents/Academisch/UoC/Dissertation/Experiment/OpenSesame/NAP-FC/NAP_GER_AA_4blocks_noglides","yes","no","sans","no","20","no","black","no","Weiter","yes","768","legacy","41","9","0","/Users/aviadalbert/Documents/Academisch/UoC/Dissertation/Experiment/OpenSesame/NAP-FC/NAP_GER_AA_4blocks_noglides/subject-29.csv","xpyriment","Jazzy James","3.1.9","yes","yes","59a800d99ad5a1025d81bb03","59a801616c613b0251691de0","no","no","0","j","f","space","NA","space","space","j","1253","2308","23315","NA","31095","20523","1253","2","legacy","1024","1","44100","-16","experiment","elfal","2","0","1","0","1","Eng French ","29","","odd","3034265","3010398","NA","NA","3036574","3034261","NA","1116144","3033770","1116144","1116144","2924859","2955959","3178514","3177009","3179768","2980592","2976783","3010398","NA","2866787","2907178","3008741","2976551","3034264","2976786","NA","3178513","3178514","NA","NA","3177005","NAP perception","25","68413","42","yes","1024"
"60.4651162791","yes","60.4651162791","1612.41860465","1612.41860465","white","no","xpyriment","Ich habe die obigen Informationen gelesen und verstanden.","legacy","legacy","0","uniform","1","0","0","undefined","undefined","1","j","2","1","NA","0","1","0","0","0","0","0","0","0","0","52","52","52","0","0","0","NA","0","0","2","0","0","0","2","52","52","52","52","52","Fri Oct 27 10:10:32 2017","Forced-choice identification task with a practice and an experimental phase","yes","NAP_GER_AA_4blocks_noglides.osexp","/Users/aviadalbert/Documents/Academisch/UoC/Dissertation/Experiment/OpenSesame/NAP-FC/NAP_GER_AA_4blocks_noglides","yes","no","sans","no","20","no","black","no","Weiter","yes","768","legacy","42","9","0","/Users/aviadalbert/Documents/Academisch/UoC/Dissertation/Experiment/OpenSesame/NAP-FC/NAP_GER_AA_4blocks_noglides/subject-29.csv","xpyriment","Jazzy James","3.1.9","yes","yes","59a800d99ad5a1025d81bb03","59a801616c613b0251691de0","no","no","0","j","f","space","NA","space","space","j","921","2308","23315","NA","31095","20523","921","2","legacy","1024","1","44100","-16","experiment","lepal","2","0","1","0","1","Eng French ","29","","odd","3034265","3010398","NA","NA","3036574","3034261","NA","1116144","3033770","1116144","1116144","2924859","2955959","3181553","3180050","3182475","2980592","2976783","3010398","NA","2866787","2907178","3008741","2976551","3034264","2976786","NA","3181553","3181553","NA","NA","3180045","NAP perception","26","69334","43","yes","1024"
"61.3636363636","yes","61.3636363636","1596.06818182","1596.06818182","white","no","xpyriment","Ich habe die obigen Informationen gelesen und verstanden.","legacy","legacy","0","uniform","1","0","0","undefined","undefined","1","f","2","1","NA","0","1","0","0","0","0","0","0","0","0","53","53","53","0","0","0","NA","0","0","2","0","0","0","2","53","53","53","53","53","Fri Oct 27 10:10:32 2017","Forced-choice identification task with a practice and an experimental phase","yes","NAP_GER_AA_4blocks_noglides.osexp","/Users/aviadalbert/Documents/Academisch/UoC/Dissertation/Experiment/OpenSesame/NAP-FC/NAP_GER_AA_4blocks_noglides","yes","no","sans","no","20","no","black","no","Weiter","yes","768","legacy","43","9","0","/Users/aviadalbert/Documents/Academisch/UoC/Dissertation/Experiment/OpenSesame/NAP-FC/NAP_GER_AA_4blocks_noglides/subject-29.csv","xpyriment","Jazzy James","3.1.9","yes","yes","59a800d99ad5a1025d81bb03","59a801616c613b0251691de0","no","no","0","f","f","space","NA","space","space","f","893","2308","23315","NA","31095","20523","893","2","legacy","1024","1","44100","-16","experiment","flal","2","0","1","0","1","Eng French ","29","","odd","3034265","3010398","NA","NA","3036574","3034261","NA","1116144","3033770","1116144","1116144","2924859","2955959","3184237","3182734","3185132","2980592","2976783","3010398","NA","2866787","2907178","3008741","2976551","3034264","2976786","NA","3184237","3184237","NA","NA","3182730","NAP perception","27","70227","44","yes","1024"
"60","yes","60","1603.42222222","1603.42222222","white","no","xpyriment","Ich habe die obigen Informationen gelesen und verstanden.","legacy","legacy","0","uniform","0","0","0","undefined","undefined","0","f","2","1","NA","0","1","0","0","0","0","0","0","0","0","54","54","54","0","0","0","NA","0","0","2","0","0","0","2","54","54","54","54","54","Fri Oct 27 10:10:32 2017","Forced-choice identification task with a practice and an experimental phase","yes","NAP_GER_AA_4blocks_noglides.osexp","/Users/aviadalbert/Documents/Academisch/UoC/Dissertation/Experiment/OpenSesame/NAP-FC/NAP_GER_AA_4blocks_noglides","yes","no","sans","no","20","no","black","no","Weiter","yes","768","legacy","44","9","0","/Users/aviadalbert/Documents/Academisch/UoC/Dissertation/Experiment/OpenSesame/NAP-FC/NAP_GER_AA_4blocks_noglides/subject-29.csv","xpyriment","Jazzy James","3.1.9","yes","yes","59a800d99ad5a1025d81bb03","59a801616c613b0251691de0","no","no","0","j","f","space","NA","space","space","j","1927","2308","23315","NA","31095","20523","1927","2","legacy","1024","1","44100","-16","experiment","zmal","2","0","1","0","1","Eng French ","29","","odd","3034265","3010398","NA","NA","3036574","3034261","NA","1116144","3033770","1116144","1116144","2924859","2955959","3186917","3185412","3188846","2980592","2976783","3010398","NA","2866787","2907178","3008741","2976551","3034264","2976786","NA","3186917","3186917","NA","NA","3185407","NAP perception","27","72154","45","yes","1024"
"60.8695652174","yes","60.8695652174","1621.26086957","1621.26086957","white","no","xpyriment","Ich habe die obigen Informationen gelesen und verstanden.","legacy","legacy","0","uniform","1","0","0","undefined","undefined","1","f","2","1","NA","0","1","0","0","0","0","0","0","0","0","55","55","55","0","0","0","NA","0","0","2","0","0","0","2","55","55","55","55","55","Fri Oct 27 10:10:32 2017","Forced-choice identification task with a practice and an experimental phase","yes","NAP_GER_AA_4blocks_noglides.osexp","/Users/aviadalbert/Documents/Academisch/UoC/Dissertation/Experiment/OpenSesame/NAP-FC/NAP_GER_AA_4blocks_noglides","yes","no","sans","no","20","no","black","no","Weiter","yes","768","legacy","45","9","0","/Users/aviadalbert/Documents/Academisch/UoC/Dissertation/Experiment/OpenSesame/NAP-FC/NAP_GER_AA_4blocks_noglides/subject-29.csv","xpyriment","Jazzy James","3.1.9","yes","yes","59a800d99ad5a1025d81bb03","59a801616c613b0251691de0","no","no","0","f","f","space","NA","space","space","f","2424","2308","23315","NA","31095","20523","2424","2","legacy","1024","1","44100","-16","experiment","lkal","2","0","1","0","1","Eng French ","29","","odd","3034265","3010398","NA","NA","3036574","3034261","NA","1116144","3033770","1116144","1116144","2924859","2955959","3190638","3189134","3193063","2980592","2976783","3010398","NA","2866787","2907178","3008741","2976551","3034264","2976786","NA","3190637","3190638","NA","NA","3189130","NAP perception","28","74578","46","yes","1024"
"61.7021276596","yes","61.7021276596","1623.53191489","1623.53191489","white","no","xpyriment","Ich habe die obigen Informationen gelesen und verstanden.","legacy","legacy","0","uniform","1","0","0","undefined","undefined","1","j","2","1","NA","0","1","0","0","0","0","0","0","0","0","56","56","56","0","0","0","NA","0","0","2","0","0","0","2","56","56","56","56","56","Fri Oct 27 10:10:32 2017","Forced-choice identification task with a practice and an experimental phase","yes","NAP_GER_AA_4blocks_noglides.osexp","/Users/aviadalbert/Documents/Academisch/UoC/Dissertation/Experiment/OpenSesame/NAP-FC/NAP_GER_AA_4blocks_noglides","yes","no","sans","no","20","no","black","no","Weiter","yes","768","legacy","46","9","0","/Users/aviadalbert/Documents/Academisch/UoC/Dissertation/Experiment/OpenSesame/NAP-FC/NAP_GER_AA_4blocks_noglides/subject-29.csv","xpyriment","Jazzy James","3.1.9","yes","yes","59a800d99ad5a1025d81bb03","59a801616c613b0251691de0","no","no","0","j","f","space","NA","space","space","j","1728","2308","23315","NA","31095","20523","1728","2","legacy","1024","1","44100","-16","experiment","fesal","2","0","1","0","1","Eng French ","29","","odd","3034265","3010398","NA","NA","3036574","3034261","NA","1116144","3033770","1116144","1116144","2924859","2955959","3194837","3193333","3196566","2980592","2976783","3010398","NA","2866787","2907178","3008741","2976551","3034264","2976786","NA","3194837","3194837","NA","NA","3193329","NAP perception","29","76306","47","yes","1024"
"62.5","yes","62.5","1612.60416667","1612.60416667","white","no","xpyriment","Ich habe die obigen Informationen gelesen und verstanden.","legacy","legacy","0","uniform","1","0","0","undefined","undefined","1","j","2","1","NA","0","1","0","0","0","0","0","0","0","0","57","57","57","0","0","0","NA","0","0","2","0","0","0","2","57","57","57","57","57","Fri Oct 27 10:10:32 2017","Forced-choice identification task with a practice and an experimental phase","yes","NAP_GER_AA_4blocks_noglides.osexp","/Users/aviadalbert/Documents/Academisch/UoC/Dissertation/Experiment/OpenSesame/NAP-FC/NAP_GER_AA_4blocks_noglides","yes","no","sans","no","20","no","black","no","Weiter","yes","768","legacy","47","9","0","/Users/aviadalbert/Documents/Academisch/UoC/Dissertation/Experiment/OpenSesame/NAP-FC/NAP_GER_AA_4blocks_noglides/subject-29.csv","xpyriment","Jazzy James","3.1.9","yes","yes","59a800d99ad5a1025d81bb03","59a801616c613b0251691de0","no","no","0","j","f","space","NA","space","space","j","1099","2308","23315","NA","31095","20523","1099","2","legacy","1024","1","44100","-16","experiment","mesal","2","0","1","0","1","Eng French ","29","","odd","3034265","3010398","NA","NA","3036574","3034261","NA","1116144","3033770","1116144","1116144","2924859","2955959","3198341","3196836","3199442","2980592","2976783","3010398","NA","2866787","2907178","3008741","2976551","3034264","2976786","NA","3198341","3198341","NA","NA","3196832","NAP perception","30","77405","48","yes","1024"
"63.2653061224","yes","63.2653061224","1631.95918367","1631.95918367","white","no","xpyriment","Ich habe die obigen Informationen gelesen und verstanden.","legacy","legacy","0","uniform","1","0","0","undefined","undefined","1","j","2","1","NA","0","1","0","0","0","0","0","0","0","0","58","58","58","0","0","0","NA","0","0","2","0","0","0","2","58","58","58","58","58","Fri Oct 27 10:10:32 2017","Forced-choice identification task with a practice and an experimental phase","yes","NAP_GER_AA_4blocks_noglides.osexp","/Users/aviadalbert/Documents/Academisch/UoC/Dissertation/Experiment/OpenSesame/NAP-FC/NAP_GER_AA_4blocks_noglides","yes","no","sans","no","20","no","black","no","Weiter","yes","768","legacy","48","9","0","/Users/aviadalbert/Documents/Academisch/UoC/Dissertation/Experiment/OpenSesame/NAP-FC/NAP_GER_AA_4blocks_noglides/subject-29.csv","xpyriment","Jazzy James","3.1.9","yes","yes","59a800d99ad5a1025d81bb03","59a801616c613b0251691de0","no","no","0","j","f","space","NA","space","space","j","2561","2308","23315","NA","31095","20523","2561","2","legacy","1024","1","44100","-16","experiment","elkal","2","0","1","0","1","Eng French ","29","","odd","3034265","3010398","NA","NA","3036574","3034261","NA","1116144","3033770","1116144","1116144","2924859","2955959","3201210","3199703","3203773","2980592","2976783","3010398","NA","2866787","2907178","3008741","2976551","3034264","2976786","NA","3201210","3201210","NA","NA","3199700","NAP perception","31","79966","49","yes","1024"
"64","yes","64","1640.9","1640.9","white","no","xpyriment","Ich habe die obigen Informationen gelesen und verstanden.","legacy","legacy","0","uniform","1","0","0","undefined","undefined","1","j","2","1","NA","0","1","0","0","0","0","0","0","0","0","59","59","59","0","0","0","NA","0","0","2","0","0","0","2","59","59","59","59","59","Fri Oct 27 10:10:32 2017","Forced-choice identification task with a practice and an experimental phase","yes","NAP_GER_AA_4blocks_noglides.osexp","/Users/aviadalbert/Documents/Academisch/UoC/Dissertation/Experiment/OpenSesame/NAP-FC/NAP_GER_AA_4blocks_noglides","yes","no","sans","no","20","no","black","no","Weiter","yes","768","legacy","49","9","0","/Users/aviadalbert/Documents/Academisch/UoC/Dissertation/Experiment/OpenSesame/NAP-FC/NAP_GER_AA_4blocks_noglides/subject-29.csv","xpyriment","Jazzy James","3.1.9","yes","yes","59a800d99ad5a1025d81bb03","59a801616c613b0251691de0","no","no","0","j","f","space","NA","space","space","j","2079","2308","23315","NA","31095","20523","2079","2","legacy","1024","1","44100","-16","experiment","ʃepal","2","0","1","0","1","Eng French ","29","","odd","3034265","3010398","NA","NA","3036574","3034261","NA","1116144","3033770","1116144","1116144","2924859","2955959","3205542","3204038","3207622","2980592","2976783","3010398","NA","2866787","2907178","3008741","2976551","3034264","2976786","NA","3205542","3205542","NA","NA","3204034","NAP perception","32","82045","50","yes","1024"
"64.7058823529","yes","64.7058823529","1636.11764706","1636.11764706","white","no","xpyriment","Ich habe die obigen Informationen gelesen und verstanden.","legacy","legacy","0","uniform","1","0","0","undefined","undefined","1","j","2","1","NA","0","1","0","0","0","0","0","0","0","0","60","60","60","0","0","0","NA","0","0","2","0","0","0","2","60","60","60","60","60","Fri Oct 27 10:10:32 2017","Forced-choice identification task with a practice and an experimental phase","yes","NAP_GER_AA_4blocks_noglides.osexp","/Users/aviadalbert/Documents/Academisch/UoC/Dissertation/Experiment/OpenSesame/NAP-FC/NAP_GER_AA_4blocks_noglides","yes","no","sans","no","20","no","black","no","Weiter","yes","768","legacy","50","9","0","/Users/aviadalbert/Documents/Academisch/UoC/Dissertation/Experiment/OpenSesame/NAP-FC/NAP_GER_AA_4blocks_noglides/subject-29.csv","xpyriment","Jazzy James","3.1.9","yes","yes","59a800d99ad5a1025d81bb03","59a801616c613b0251691de0","no","no","0","j","f","space","NA","space","space","j","1397","2308","23315","NA","31095","20523","1397","2","legacy","1024","1","44100","-16","experiment","esmal","2","0","1","0","1","Eng French ","29","","odd","3034265","3010398","NA","NA","3036574","3034261","NA","1116144","3033770","1116144","1116144","2924859","2955959","3209405","3207898","3210804","2980592","2976783","3010398","NA","2866787","2907178","3008741","2976551","3034264","2976786","NA","3209405","3209405","NA","NA","3207894","NAP perception","33","83442","51","yes","1024"
"65.3846153846","yes","65.3846153846","1624.40384615","1624.40384615","white","no","xpyriment","Ich habe die obigen Informationen gelesen und verstanden.","legacy","legacy","0","uniform","1","0","0","undefined","undefined","1","j","2","1","NA","0","1","0","0","0","0","0","0","0","0","61","61","61","0","0","0","NA","0","0","2","0","0","0","2","61","61","61","61","61","Fri Oct 27 10:10:32 2017","Forced-choice identification task with a practice and an experimental phase","yes","NAP_GER_AA_4blocks_noglides.osexp","/Users/aviadalbert/Documents/Academisch/UoC/Dissertation/Experiment/OpenSesame/NAP-FC/NAP_GER_AA_4blocks_noglides","yes","no","sans","no","20","no","black","no","Weiter","yes","768","legacy","51","9","0","/Users/aviadalbert/Documents/Academisch/UoC/Dissertation/Experiment/OpenSesame/NAP-FC/NAP_GER_AA_4blocks_noglides/subject-29.csv","xpyriment","Jazzy James","3.1.9","yes","yes","59a800d99ad5a1025d81bb03","59a801616c613b0251691de0","no","no","0","j","f","space","NA","space","space","j","1027","2308","23315","NA","31095","20523","1027","2","legacy","1024","1","44100","-16","experiment","leval","2","0","1","0","1","Eng French ","29","","odd","3034265","3010398","NA","NA","3036574","3034261","NA","1116144","3033770","1116144","1116144","2924859","2955959","3212605","3211099","3213634","2980592","2976783","3010398","NA","2866787","2907178","3008741","2976551","3034264","2976786","NA","3212605","3212605","NA","NA","3211095","NAP perception","34","84469","52","yes","1024"
"66.0377358491","yes","66.0377358491","1613.30188679","1613.30188679","white","no","xpyriment","Ich habe die obigen Informationen gelesen und verstanden.","legacy","legacy","0","uniform","1","0","0","undefined","undefined","1","f","2","1","NA","0","1","0","0","0","0","0","0","0","0","62","62","62","0","0","0","NA","0","0","2","0","0","0","2","62","62","62","62","62","Fri Oct 27 10:10:32 2017","Forced-choice identification task with a practice and an experimental phase","yes","NAP_GER_AA_4blocks_noglides.osexp","/Users/aviadalbert/Documents/Academisch/UoC/Dissertation/Experiment/OpenSesame/NAP-FC/NAP_GER_AA_4blocks_noglides","yes","no","sans","no","20","no","black","no","Weiter","yes","768","legacy","52","9","0","/Users/aviadalbert/Documents/Academisch/UoC/Dissertation/Experiment/OpenSesame/NAP-FC/NAP_GER_AA_4blocks_noglides/subject-29.csv","xpyriment","Jazzy James","3.1.9","yes","yes","59a800d99ad5a1025d81bb03","59a801616c613b0251691de0","no","no","0","f","f","space","NA","space","space","f","1036","2308","23315","NA","31095","20523","1036","2","legacy","1024","1","44100","-16","experiment","sfal","2","0","1","0","1","Eng French ","29","","odd","3034265","3010398","NA","NA","3036574","3034261","NA","1116144","3033770","1116144","1116144","2924859","2955959","3215411","3213908","3216448","2980592","2976783","3010398","NA","2866787","2907178","3008741","2976551","3034264","2976786","NA","3215411","3215411","NA","NA","3213904","NAP perception","35","85505","53","yes","1024"
"66.6666666667","yes","66.6666666667","1617.25925926","1617.25925926","white","no","xpyriment","Ich habe die obigen Informationen gelesen und verstanden.","legacy","legacy","0","uniform","1","0","0","undefined","undefined","1","j","2","1","NA","0","1","0","0","0","0","0","0","0","0","63","63","63","0","0","0","NA","0","0","2","0","0","0","2","63","63","63","63","63","Fri Oct 27 10:10:32 2017","Forced-choice identification task with a practice and an experimental phase","yes","NAP_GER_AA_4blocks_noglides.osexp","/Users/aviadalbert/Documents/Academisch/UoC/Dissertation/Experiment/OpenSesame/NAP-FC/NAP_GER_AA_4blocks_noglides","yes","no","sans","no","20","no","black","no","Weiter","yes","768","legacy","53","9","0","/Users/aviadalbert/Documents/Academisch/UoC/Dissertation/Experiment/OpenSesame/NAP-FC/NAP_GER_AA_4blocks_noglides/subject-29.csv","xpyriment","Jazzy James","3.1.9","yes","yes","59a800d99ad5a1025d81bb03","59a801616c613b0251691de0","no","no","0","j","f","space","NA","space","space","j","1827","2308","23315","NA","31095","20523","1827","2","legacy","1024","1","44100","-16","experiment","sepal","2","0","1","0","1","Eng French ","29","","odd","3034265","3010398","NA","NA","3036574","3034261","NA","1116144","3033770","1116144","1116144","2924859","2955959","3218240","3216734","3220069","2980592","2976783","3010398","NA","2866787","2907178","3008741","2976551","3034264","2976786","NA","3218240","3218240","NA","NA","3216730","NAP perception","36","87332","54","yes","1024"
"67.2727272727","yes","67.2727272727","1616.89090909","1616.89090909","white","no","xpyriment","Ich habe die obigen Informationen gelesen und verstanden.","legacy","legacy","0","uniform","1","0","0","undefined","undefined","1","j","2","1","NA","0","1","0","0","0","0","0","0","0","0","64","64","64","0","0","0","NA","0","0","2","0","0","0","2","64","64","64","64","64","Fri Oct 27 10:10:32 2017","Forced-choice identification task with a practice and an experimental phase","yes","NAP_GER_AA_4blocks_noglides.osexp","/Users/aviadalbert/Documents/Academisch/UoC/Dissertation/Experiment/OpenSesame/NAP-FC/NAP_GER_AA_4blocks_noglides","yes","no","sans","no","20","no","black","no","Weiter","yes","768","legacy","54","9","0","/Users/aviadalbert/Documents/Academisch/UoC/Dissertation/Experiment/OpenSesame/NAP-FC/NAP_GER_AA_4blocks_noglides/subject-29.csv","xpyriment","Jazzy James","3.1.9","yes","yes","59a800d99ad5a1025d81bb03","59a801616c613b0251691de0","no","no","0","j","f","space","NA","space","space","j","1597","2308","23315","NA","31095","20523","1597","2","legacy","1024","1","44100","-16","experiment","enmal","2","0","1","0","1","Eng French ","29","","odd","3034265","3010398","NA","NA","3036574","3034261","NA","1116144","3033770","1116144","1116144","2924859","2955959","3221854","3220347","3223453","2980592","2976783","3010398","NA","2866787","2907178","3008741","2976551","3034264","2976786","NA","3221854","3221854","NA","NA","3220344","NAP perception","37","88929","55","yes","1024"
