"acc","accept_status","accuracy","average_response_time","avg_rt","background","bidi","canvas_backend","checkbox_status","clock_backend","color_backend","compensation","coordinates","correct","correct_block_activation","correct_block_exit","correct_instructions_1","correct_instructions_2","correct_keyboard_response","correct_response","count_block_activation","count_block_exit","count_block_info_QA","count_e_block_loop","count_e_block_sequence","count_end_of_experiment","count_experiment","count_experimental_loop","count_form_consent","count_info_forms","count_instructions_1","count_instructions_2","count_keyboard_response","count_listen_message","count_logger","count_p_block_loop","count_p_block_sequence","count_p_feedback","count_personal_details_form_1","count_personal_details_form_2","count_post_loop_blank","count_practice_loop","count_pre_e_block_message","count_pre_p_block_message","count_reset_feedback","count_stimulus_image","count_stimulus_sound","count_timeout_message","count_timeout_sound","count_trial_sequence","datetime","description","disable_garbage_collection","experiment_file","experiment_path","expyriment_opengl","font_bold","font_family","font_italic","font_size","font_underline","foreground","form_clicks","form_response","fullscreen","height","keyboard_backend","live_row","live_row_p_block_loop","live_row_practice_loop","logfile","mouse_backend","opensesame_codename","opensesame_version","osf_always_upload_data","osf_always_upload_experiment","osf_datanode_id","osf_id","practice","pygame_doublebuf","repeat_cycle","response","response_block_activation","response_block_exit","response_block_info_QA","response_instructions_1","response_instructions_2","response_keyboard_response","response_time","response_time_block_activation","response_time_block_exit","response_time_block_info_QA","response_time_instructions_1","response_time_instructions_2","response_time_keyboard_response","round_decimals","sampler_backend","sound_buf_size","sound_channels","sound_freq","sound_sample_size","start","stimulus","subject_age","subject_birth","subject_education","subject_gender","subject_handedness","subject_language_native","subject_language_other","subject_nr","subject_parity","subject_residence","time_block_activation","time_block_exit","time_block_info_QA","time_e_block_loop","time_e_block_sequence","time_end_of_experiment","time_experiment","time_experimental_loop","time_form_consent","time_info_forms","time_instructions_1","time_instructions_2","time_keyboard_response","time_listen_message","time_logger","time_p_block_loop","time_p_block_sequence","time_p_feedback","time_personal_details_form_1","time_personal_details_form_2","time_post_loop_blank","time_practice_loop","time_pre_e_block_message","time_pre_p_block_message","time_reset_feedback","time_stimulus_image","time_stimulus_sound","time_timeout_message","time_timeout_sound","time_trial_sequence","title","total_correct","total_response_time","total_responses","uniform_coordinates","width"
"100","yes","100","420","420","white","no","xpyriment","I have read and understood the information shown above","legacy","legacy","0","uniform","1","0","NA","undefined","undefined","1","f","0","0","NA","NA","NA","NA","0","0","0","0","0","0","0","0","0","0","0","NA","0","0","0","0","NA","0","0","0","0","0","0","0","Wed Jun 28 13:24:16 2017","Forced-choice identification task with a practice and an experimental phase","yes","NAP-FC_GER_AA_ver-1.osexp","/Users/aviadalbert/Documents/Academisch/UoC/Dissertation/Experiment/OpenSesame/NAP-FC/NAP-FC_GER_AA/GER_AA_ver-1","yes","no","sans","no","20","no","black","no","Next","yes","768","legacy","0","0","0","/Users/aviadalbert/Documents/Academisch/UoC/Dissertation/Experiment/OpenSesame/NAP-FC/NAP-FC_GER_AA/GER_AA_ver-1/subject-0.csv","xpyriment","Jazzy James","3.1.6","yes","yes","59504085b83f69022b47a751","595041f76c613b022ae3ecdb","yes","no","0","f","j","NA","NA","space","space","f","420","1653","NA","NA","1362","297","420","2","legacy","1024","1","44100","-16","experiment","flal","","","None","None","None","","","0","even","","1029051","NA","NA","NA","NA","NA","1021595","NA","1021596","1021596","1027093","1028460","1032431","1030925","1032852","1030705","1029047","NA","1024462","1026480","NA","1028826","NA","1029050","NA","1032430","1032431","NA","NA","1030922","NAP perception","1","420","1","yes","1024"
"100","yes","100","332.5","332.5","white","no","xpyriment","I have read and understood the information shown above","legacy","legacy","0","uniform","1","0","NA","undefined","undefined","1","j","0","0","NA","NA","NA","NA","0","0","0","0","0","0","1","1","1","0","0","NA","0","0","0","0","NA","0","0","1","1","1","1","1","Wed Jun 28 13:24:16 2017","Forced-choice identification task with a practice and an experimental phase","yes","NAP-FC_GER_AA_ver-1.osexp","/Users/aviadalbert/Documents/Academisch/UoC/Dissertation/Experiment/OpenSesame/NAP-FC/NAP-FC_GER_AA/GER_AA_ver-1","yes","no","sans","no","20","no","black","no","Next","yes","768","legacy","1","1","0","/Users/aviadalbert/Documents/Academisch/UoC/Dissertation/Experiment/OpenSesame/NAP-FC/NAP-FC_GER_AA/GER_AA_ver-1/subject-0.csv","xpyriment","Jazzy James","3.1.6","yes","yes","59504085b83f69022b47a751","595041f76c613b022ae3ecdb","yes","no","0","j","j","NA","NA","space","space","j","245","1653","NA","NA","1362","297","245","2","legacy","1024","1","44100","-16","experiment","lepal","","","None","None","None","","","0","even","","1029051","NA","NA","NA","NA","NA","1021595","NA","1021596","1021596","1027093","1028460","1034665","1033157","1034911","1030705","1029047","NA","1024462","1026480","NA","1028826","NA","1029050","NA","1034664","1034664","NA","NA","1033153","NAP perception","2","665","2","yes","1024"
"100","yes","100","376.333333333","376.333333333","white","no","xpyriment","I have read and understood the information shown above","legacy","legacy","0","uniform","1","0","NA","undefined","undefined","1","j","0","0","NA","NA","NA","NA","0","0","0","0","0","0","2","2","2","0","0","NA","0","0","0","0","NA","0","0","2","2","2","2","2","Wed Jun 28 13:24:16 2017","Forced-choice identification task with a practice and an experimental phase","yes","NAP-FC_GER_AA_ver-1.osexp","/Users/aviadalbert/Documents/Academisch/UoC/Dissertation/Experiment/OpenSesame/NAP-FC/NAP-FC_GER_AA/GER_AA_ver-1","yes","no","sans","no","20","no","black","no","Next","yes","768","legacy","2","2","0","/Users/aviadalbert/Documents/Academisch/UoC/Dissertation/Experiment/OpenSesame/NAP-FC/NAP-FC_GER_AA/GER_AA_ver-1/subject-0.csv","xpyriment","Jazzy James","3.1.6","yes","yes","59504085b83f69022b47a751","595041f76c613b022ae3ecdb","yes","no","0","j","j","NA","NA","space","space","j","464","1653","NA","NA","1362","297","464","2","legacy","1024","1","44100","-16","experiment","emtal","","","None","None","None","","","0","even","","1029051","NA","NA","NA","NA","NA","1021595","NA","1021596","1021596","1027093","1028460","1036705","1035198","1037170","1030705","1029047","NA","1024462","1026480","NA","1028826","NA","1029050","NA","1036705","1036705","NA","NA","1035194","NAP perception","3","1129","3","yes","1024"
"100","yes","100","443.25","443.25","white","no","xpyriment","I have read and understood the information shown above","legacy","legacy","0","uniform","1","0","NA","undefined","undefined","1","f","0","0","NA","NA","NA","NA","0","0","0","0","0","0","3","3","3","0","0","NA","0","0","0","0","NA","0","0","3","3","3","3","3","Wed Jun 28 13:24:16 2017","Forced-choice identification task with a practice and an experimental phase","yes","NAP-FC_GER_AA_ver-1.osexp","/Users/aviadalbert/Documents/Academisch/UoC/Dissertation/Experiment/OpenSesame/NAP-FC/NAP-FC_GER_AA/GER_AA_ver-1","yes","no","sans","no","20","no","black","no","Next","yes","768","legacy","3","3","0","/Users/aviadalbert/Documents/Academisch/UoC/Dissertation/Experiment/OpenSesame/NAP-FC/NAP-FC_GER_AA/GER_AA_ver-1/subject-0.csv","xpyriment","Jazzy James","3.1.6","yes","yes","59504085b83f69022b47a751","595041f76c613b022ae3ecdb","yes","no","0","f","j","NA","NA","space","space","f","644","1653","NA","NA","1362","297","644","2","legacy","1024","1","44100","-16","experiment","ʃpal","","","None","None","None","","","0","even","","1029051","NA","NA","NA","NA","NA","1021595","NA","1021596","1021596","1027093","1028460","1038974","1037468","1039619","1030705","1029047","NA","1024462","1026480","NA","1028826","NA","1029050","NA","1038974","1038974","NA","NA","1037463","NAP perception","4","1773","4","yes","1024"
"100","yes","100","468.8","468.8","white","no","xpyriment","I have read and understood the information shown above","legacy","legacy","0","uniform","1","0","NA","undefined","undefined","1","j","0","0","NA","NA","NA","NA","0","0","0","0","0","0","4","4","4","0","0","NA","0","0","0","0","NA","0","0","4","4","4","4","4","Wed Jun 28 13:24:16 2017","Forced-choice identification task with a practice and an experimental phase","yes","NAP-FC_GER_AA_ver-1.osexp","/Users/aviadalbert/Documents/Academisch/UoC/Dissertation/Experiment/OpenSesame/NAP-FC/NAP-FC_GER_AA/GER_AA_ver-1","yes","no","sans","no","20","no","black","no","Next","yes","768","legacy","4","4","0","/Users/aviadalbert/Documents/Academisch/UoC/Dissertation/Experiment/OpenSesame/NAP-FC/NAP-FC_GER_AA/GER_AA_ver-1/subject-0.csv","xpyriment","Jazzy James","3.1.6","yes","yes","59504085b83f69022b47a751","595041f76c613b022ae3ecdb","yes","no","0","j","j","NA","NA","space","space","j","571","1653","NA","NA","1362","297","571","2","legacy","1024","1","44100","-16","experiment","nefal","","","None","None","None","","","0","even","","1029051","NA","NA","NA","NA","NA","1021595","NA","1021596","1021596","1027093","1028460","1041411","1039908","1041983","1030705","1029047","NA","1024462","1026480","NA","1028826","NA","1029050","NA","1041411","1041411","NA","NA","1039904","NAP perception","5","2344","5","yes","1024"
"100","yes","100","482.666666667","482.666666667","white","no","xpyriment","I have read and understood the information shown above","legacy","legacy","0","uniform","1","0","NA","undefined","undefined","1","f","0","0","NA","NA","NA","NA","0","0","0","0","0","0","5","5","5","0","0","NA","0","0","0","0","NA","0","0","5","5","5","5","5","Wed Jun 28 13:24:16 2017","Forced-choice identification task with a practice and an experimental phase","yes","NAP-FC_GER_AA_ver-1.osexp","/Users/aviadalbert/Documents/Academisch/UoC/Dissertation/Experiment/OpenSesame/NAP-FC/NAP-FC_GER_AA/GER_AA_ver-1","yes","no","sans","no","20","no","black","no","Next","yes","768","legacy","5","5","0","/Users/aviadalbert/Documents/Academisch/UoC/Dissertation/Experiment/OpenSesame/NAP-FC/NAP-FC_GER_AA/GER_AA_ver-1/subject-0.csv","xpyriment","Jazzy James","3.1.6","yes","yes","59504085b83f69022b47a751","595041f76c613b022ae3ecdb","yes","no","0","f","j","NA","NA","space","space","f","552","1653","NA","NA","1362","297","552","2","legacy","1024","1","44100","-16","experiment","sfal","","","None","None","None","","","0","even","","1029051","NA","NA","NA","NA","NA","1021595","NA","1021596","1021596","1027093","1028460","1043779","1042272","1044332","1030705","1029047","NA","1024462","1026480","NA","1028826","NA","1029050","NA","1043779","1043779","NA","NA","1042268","NAP perception","6","2896","6","yes","1024"
"100","yes","100","494.285714286","494.285714286","white","no","xpyriment","I have read and understood the information shown above","legacy","legacy","0","uniform","1","0","NA","undefined","undefined","1","f","0","0","NA","NA","NA","NA","0","0","0","0","0","0","6","6","6","0","0","NA","0","0","0","0","NA","0","0","6","6","6","6","6","Wed Jun 28 13:24:16 2017","Forced-choice identification task with a practice and an experimental phase","yes","NAP-FC_GER_AA_ver-1.osexp","/Users/aviadalbert/Documents/Academisch/UoC/Dissertation/Experiment/OpenSesame/NAP-FC/NAP-FC_GER_AA/GER_AA_ver-1","yes","no","sans","no","20","no","black","no","Next","yes","768","legacy","6","6","0","/Users/aviadalbert/Documents/Academisch/UoC/Dissertation/Experiment/OpenSesame/NAP-FC/NAP-FC_GER_AA/GER_AA_ver-1/subject-0.csv","xpyriment","Jazzy James","3.1.6","yes","yes","59504085b83f69022b47a751","595041f76c613b022ae3ecdb","yes","no","0","f","j","NA","NA","space","space","f","564","1653","NA","NA","1362","297","564","2","legacy","1024","1","44100","-16","experiment","zmal","","","None","None","None","","","0","even","","1029051","NA","NA","NA","NA","NA","1021595","NA","1021596","1021596","1027093","1028460","1046131","1044625","1046696","1030705","1029047","NA","1024462","1026480","NA","1028826","NA","1029050","NA","1046131","1046131","NA","NA","1044622","NAP perception","7","3460","7","yes","1024"
"100","yes","100","505.625","505.625","white","no","xpyriment","I have read and understood the information shown above","legacy","legacy","0","uniform","1","0","NA","undefined","undefined","1","j","0","0","NA","NA","NA","NA","0","0","0","0","0","0","7","7","7","0","0","NA","0","0","0","0","NA","0","0","7","7","7","7","7","Wed Jun 28 13:24:16 2017","Forced-choice identification task with a practice and an experimental phase","yes","NAP-FC_GER_AA_ver-1.osexp","/Users/aviadalbert/Documents/Academisch/UoC/Dissertation/Experiment/OpenSesame/NAP-FC/NAP-FC_GER_AA/GER_AA_ver-1","yes","no","sans","no","20","no","black","no","Next","yes","768","legacy","7","7","0","/Users/aviadalbert/Documents/Academisch/UoC/Dissertation/Experiment/OpenSesame/NAP-FC/NAP-FC_GER_AA/GER_AA_ver-1/subject-0.csv","xpyriment","Jazzy James","3.1.6","yes","yes","59504085b83f69022b47a751","595041f76c613b022ae3ecdb","yes","no","0","j","j","NA","NA","space","space","j","585","1653","NA","NA","1362","297","585","2","legacy","1024","1","44100","-16","experiment","jeval","","","None","None","None","","","0","even","","1029051","NA","NA","NA","NA","NA","1021595","NA","1021596","1021596","1027093","1028460","1048503","1046997","1049090","1030705","1029047","NA","1024462","1026480","NA","1028826","NA","1029050","NA","1048503","1048503","NA","NA","1046993","NAP perception","8","4045","8","yes","1024"
"100","yes","100","514.333333333","514.333333333","white","no","xpyriment","I have read and understood the information shown above","legacy","legacy","0","uniform","1","0","NA","undefined","undefined","1","j","0","0","NA","NA","NA","NA","0","0","0","0","0","0","8","8","8","0","0","NA","0","0","0","0","NA","0","0","8","8","8","8","8","Wed Jun 28 13:24:16 2017","Forced-choice identification task with a practice and an experimental phase","yes","NAP-FC_GER_AA_ver-1.osexp","/Users/aviadalbert/Documents/Academisch/UoC/Dissertation/Experiment/OpenSesame/NAP-FC/NAP-FC_GER_AA/GER_AA_ver-1","yes","no","sans","no","20","no","black","no","Next","yes","768","legacy","8","8","0","/Users/aviadalbert/Documents/Academisch/UoC/Dissertation/Experiment/OpenSesame/NAP-FC/NAP-FC_GER_AA/GER_AA_ver-1/subject-0.csv","xpyriment","Jazzy James","3.1.6","yes","yes","59504085b83f69022b47a751","595041f76c613b022ae3ecdb","yes","no","0","j","j","NA","NA","space","space","j","584","1653","NA","NA","1362","297","584","2","legacy","1024","1","44100","-16","experiment","enval","","","None","None","None","","","0","even","","1029051","NA","NA","NA","NA","NA","1021595","NA","1021596","1021596","1027093","1028460","1050898","1049390","1051484","1030705","1029047","NA","1024462","1026480","NA","1028826","NA","1029050","NA","1050897","1050898","NA","NA","1049386","NAP perception","9","4629","9","yes","1024"
"100","yes","100","501.1","501.1","white","no","xpyriment","I have read and understood the information shown above","legacy","legacy","0","uniform","1","0","NA","undefined","undefined","1","f","0","0","NA","NA","NA","NA","0","0","0","0","0","0","9","9","9","0","0","NA","0","0","0","0","NA","0","0","9","9","9","9","9","Wed Jun 28 13:24:16 2017","Forced-choice identification task with a practice and an experimental phase","yes","NAP-FC_GER_AA_ver-1.osexp","/Users/aviadalbert/Documents/Academisch/UoC/Dissertation/Experiment/OpenSesame/NAP-FC/NAP-FC_GER_AA/GER_AA_ver-1","yes","no","sans","no","20","no","black","no","Next","yes","768","legacy","9","9","0","/Users/aviadalbert/Documents/Academisch/UoC/Dissertation/Experiment/OpenSesame/NAP-FC/NAP-FC_GER_AA/GER_AA_ver-1/subject-0.csv","xpyriment","Jazzy James","3.1.6","yes","yes","59504085b83f69022b47a751","595041f76c613b022ae3ecdb","yes","no","0","f","j","NA","NA","space","space","f","382","1653","NA","NA","1362","297","382","2","legacy","1024","1","44100","-16","experiment","vlal","","","None","None","None","","","0","even","","1029051","NA","NA","NA","NA","NA","1021595","NA","1021596","1021596","1027093","1028460","1053278","1051773","1053662","1030705","1029047","NA","1024462","1026480","NA","1028826","NA","1029050","NA","1053278","1053278","NA","NA","1051769","NAP perception","10","5011","10","yes","1024"
"100","yes","100","646","646","white","no","xpyriment","I have read and understood the information shown above","legacy","legacy","0","uniform","1","0","0","undefined","undefined","1","j","1","0","NA","0","0","0","0","0","0","0","0","0","10","10","10","0","0","0","0","0","1","0","0","0","1","10","10","10","10","10","Wed Jun 28 13:24:16 2017","Forced-choice identification task with a practice and an experimental phase","yes","NAP-FC_GER_AA_ver-1.osexp","/Users/aviadalbert/Documents/Academisch/UoC/Dissertation/Experiment/OpenSesame/NAP-FC/NAP-FC_GER_AA/GER_AA_ver-1","yes","no","sans","no","20","no","black","no","Next","yes","768","legacy","0","9","0","/Users/aviadalbert/Documents/Academisch/UoC/Dissertation/Experiment/OpenSesame/NAP-FC/NAP-FC_GER_AA/GER_AA_ver-1/subject-0.csv","xpyriment","Jazzy James","3.1.6","yes","yes","59504085b83f69022b47a751","595041f76c613b022ae3ecdb","no","no","0","j","j","space","NA","space","space","j","646","644","1540","NA","1362","297","646","2","legacy","1024","1","44100","-16","experiment","lepal","","","None","None","None","","","0","even","","1057278","1055432","NA","1057923","1057274","NA","1021595","1057042","1021596","1021596","1027093","1028460","1059656","1058149","1060304","1030705","1029047","1055431","1024462","1026480","1053737","1028826","1057277","1029050","NA","1059656","1059656","NA","NA","1058145","NAP perception","1","646","1","yes","1024"
"50","yes","50","600.5","600.5","white","no","xpyriment","I have read and understood the information shown above","legacy","legacy","0","uniform","0","0","0","undefined","undefined","0","f","1","0","NA","0","0","0","0","0","0","0","0","0","11","11","11","0","0","0","0","0","1","0","0","0","1","11","11","11","11","11","Wed Jun 28 13:24:16 2017","Forced-choice identification task with a practice and an experimental phase","yes","NAP-FC_GER_AA_ver-1.osexp","/Users/aviadalbert/Documents/Academisch/UoC/Dissertation/Experiment/OpenSesame/NAP-FC/NAP-FC_GER_AA/GER_AA_ver-1","yes","no","sans","no","20","no","black","no","Next","yes","768","legacy","1","9","0","/Users/aviadalbert/Documents/Academisch/UoC/Dissertation/Experiment/OpenSesame/NAP-FC/NAP-FC_GER_AA/GER_AA_ver-1/subject-0.csv","xpyriment","Jazzy James","3.1.6","yes","yes","59504085b83f69022b47a751","595041f76c613b022ae3ecdb","no","no","0","j","j","space","NA","space","space","j","555","644","1540","NA","1362","297","555","2","legacy","1024","1","44100","-16","experiment","jval","","","None","None","None","","","0","even","","1057278","1055432","NA","1057923","1057274","NA","1021595","1057042","1021596","1021596","1027093","1028460","1062101","1060597","1062657","1030705","1029047","1055431","1024462","1026480","1053737","1028826","1057277","1029050","NA","1062101","1062101","NA","NA","1060593","NAP perception","1","1201","2","yes","1024"
"66.6666666667","yes","66.6666666667","601.333333333","601.333333333","white","no","xpyriment","I have read and understood the information shown above","legacy","legacy","0","uniform","1","0","0","undefined","undefined","1","j","1","0","NA","0","0","0","0","0","0","0","0","0","12","12","12","0","0","0","0","0","1","0","0","0","1","12","12","12","12","12","Wed Jun 28 13:24:16 2017","Forced-choice identification task with a practice and an experimental phase","yes","NAP-FC_GER_AA_ver-1.osexp","/Users/aviadalbert/Documents/Academisch/UoC/Dissertation/Experiment/OpenSesame/NAP-FC/NAP-FC_GER_AA/GER_AA_ver-1","yes","no","sans","no","20","no","black","no","Next","yes","768","legacy","2","9","0","/Users/aviadalbert/Documents/Academisch/UoC/Dissertation/Experiment/OpenSesame/NAP-FC/NAP-FC_GER_AA/GER_AA_ver-1/subject-0.csv","xpyriment","Jazzy James","3.1.6","yes","yes","59504085b83f69022b47a751","595041f76c613b022ae3ecdb","no","no","0","j","j","space","NA","space","space","j","603","644","1540","NA","1362","297","603","2","legacy","1024","1","44100","-16","experiment","jepal","","","None","None","None","","","0","even","","1057278","1055432","NA","1057923","1057274","NA","1021595","1057042","1021596","1021596","1027093","1028460","1064453","1062946","1065057","1030705","1029047","1055431","1024462","1026480","1053737","1028826","1057277","1029050","NA","1064453","1064453","NA","NA","1062942","NAP perception","2","1804","3","yes","1024"
"75","yes","75","600","600","white","no","xpyriment","I have read and understood the information shown above","legacy","legacy","0","uniform","1","0","0","undefined","undefined","1","j","1","0","NA","0","0","0","0","0","0","0","0","0","13","13","13","0","0","0","0","0","1","0","0","0","1","13","13","13","13","13","Wed Jun 28 13:24:16 2017","Forced-choice identification task with a practice and an experimental phase","yes","NAP-FC_GER_AA_ver-1.osexp","/Users/aviadalbert/Documents/Academisch/UoC/Dissertation/Experiment/OpenSesame/NAP-FC/NAP-FC_GER_AA/GER_AA_ver-1","yes","no","sans","no","20","no","black","no","Next","yes","768","legacy","3","9","0","/Users/aviadalbert/Documents/Academisch/UoC/Dissertation/Experiment/OpenSesame/NAP-FC/NAP-FC_GER_AA/GER_AA_ver-1/subject-0.csv","xpyriment","Jazzy James","3.1.6","yes","yes","59504085b83f69022b47a751","595041f76c613b022ae3ecdb","no","no","0","j","j","space","NA","space","space","j","596","644","1540","NA","1362","297","596","2","legacy","1024","1","44100","-16","experiment","eftal","","","None","None","None","","","0","even","","1057278","1055432","NA","1057923","1057274","NA","1021595","1057042","1021596","1021596","1027093","1028460","1066857","1065349","1067454","1030705","1029047","1055431","1024462","1026480","1053737","1028826","1057277","1029050","NA","1066856","1066857","NA","NA","1065345","NAP perception","3","2400","4","yes","1024"
"80","yes","80","857.4","857.4","white","no","xpyriment","I have read and understood the information shown above","legacy","legacy","0","uniform","1","0","0","undefined","undefined","1","j","1","0","NA","0","0","0","0","0","0","0","0","0","14","14","14","0","0","0","0","0","1","0","0","0","1","14","14","14","14","14","Wed Jun 28 13:24:16 2017","Forced-choice identification task with a practice and an experimental phase","yes","NAP-FC_GER_AA_ver-1.osexp","/Users/aviadalbert/Documents/Academisch/UoC/Dissertation/Experiment/OpenSesame/NAP-FC/NAP-FC_GER_AA/GER_AA_ver-1","yes","no","sans","no","20","no","black","no","Next","yes","768","legacy","4","9","0","/Users/aviadalbert/Documents/Academisch/UoC/Dissertation/Experiment/OpenSesame/NAP-FC/NAP-FC_GER_AA/GER_AA_ver-1/subject-0.csv","xpyriment","Jazzy James","3.1.6","yes","yes","59504085b83f69022b47a751","595041f76c613b022ae3ecdb","no","no","0","j","j","space","NA","space","space","j","1887","644","1540","NA","1362","297","1887","2","legacy","1024","1","44100","-16","experiment","wetal","","","None","None","None","","","0","even","","1057278","1055432","NA","1057923","1057274","NA","1021595","1057042","1021596","1021596","1027093","1028460","1069257","1067751","1071145","1030705","1029047","1055431","1024462","1026480","1053737","1028826","1057277","1029050","NA","1069257","1069257","NA","NA","1067747","NAP perception","4","4287","5","yes","1024"
"83.3333333333","yes","83.3333333333","834","834","white","no","xpyriment","I have read and understood the information shown above","legacy","legacy","0","uniform","1","0","0","undefined","undefined","1","f","1","0","NA","0","0","0","0","0","0","0","0","0","15","15","15","0","0","0","0","0","1","0","0","0","1","15","15","15","15","15","Wed Jun 28 13:24:16 2017","Forced-choice identification task with a practice and an experimental phase","yes","NAP-FC_GER_AA_ver-1.osexp","/Users/aviadalbert/Documents/Academisch/UoC/Dissertation/Experiment/OpenSesame/NAP-FC/NAP-FC_GER_AA/GER_AA_ver-1","yes","no","sans","no","20","no","black","no","Next","yes","768","legacy","5","9","0","/Users/aviadalbert/Documents/Academisch/UoC/Dissertation/Experiment/OpenSesame/NAP-FC/NAP-FC_GER_AA/GER_AA_ver-1/subject-0.csv","xpyriment","Jazzy James","3.1.6","yes","yes","59504085b83f69022b47a751","595041f76c613b022ae3ecdb","no","no","0","f","j","space","NA","space","space","f","717","644","1540","NA","1362","297","717","2","legacy","1024","1","44100","-16","experiment","mlal","","","None","None","None","","","0","even","","1057278","1055432","NA","1057923","1057274","NA","1021595","1057042","1021596","1021596","1027093","1028460","1072944","1071436","1073662","1030705","1029047","1055431","1024462","1026480","1053737","1028826","1057277","1029050","NA","1072943","1072944","NA","NA","1071432","NAP perception","5","5004","6","yes","1024"
"85.7142857143","yes","85.7142857143","812.571428571","812.571428571","white","no","xpyriment","I have read and understood the information shown above","legacy","legacy","0","uniform","1","0","0","undefined","undefined","1","f","1","0","NA","0","0","0","0","0","0","0","0","0","16","16","16","0","0","0","0","0","1","0","0","0","1","16","16","16","16","16","Wed Jun 28 13:24:16 2017","Forced-choice identification task with a practice and an experimental phase","yes","NAP-FC_GER_AA_ver-1.osexp","/Users/aviadalbert/Documents/Academisch/UoC/Dissertation/Experiment/OpenSesame/NAP-FC/NAP-FC_GER_AA/GER_AA_ver-1","yes","no","sans","no","20","no","black","no","Next","yes","768","legacy","6","9","0","/Users/aviadalbert/Documents/Academisch/UoC/Dissertation/Experiment/OpenSesame/NAP-FC/NAP-FC_GER_AA/GER_AA_ver-1/subject-0.csv","xpyriment","Jazzy James","3.1.6","yes","yes","59504085b83f69022b47a751","595041f76c613b022ae3ecdb","no","no","0","f","j","space","NA","space","space","f","684","644","1540","NA","1362","297","684","2","legacy","1024","1","44100","-16","experiment","nfal","","","None","None","None","","","0","even","","1057278","1055432","NA","1057923","1057274","NA","1021595","1057042","1021596","1021596","1027093","1028460","1075469","1073962","1076154","1030705","1029047","1055431","1024462","1026480","1053737","1028826","1057277","1029050","NA","1075468","1075468","NA","NA","1073958","NAP perception","6","5688","7","yes","1024"
"87.5","yes","87.5","876","876","white","no","xpyriment","I have read and understood the information shown above","legacy","legacy","0","uniform","1","0","0","undefined","undefined","1","f","1","0","NA","0","0","0","0","0","0","0","0","0","17","17","17","0","0","0","0","0","1","0","0","0","1","17","17","17","17","17","Wed Jun 28 13:24:16 2017","Forced-choice identification task with a practice and an experimental phase","yes","NAP-FC_GER_AA_ver-1.osexp","/Users/aviadalbert/Documents/Academisch/UoC/Dissertation/Experiment/OpenSesame/NAP-FC/NAP-FC_GER_AA/GER_AA_ver-1","yes","no","sans","no","20","no","black","no","Next","yes","768","legacy","7","9","0","/Users/aviadalbert/Documents/Academisch/UoC/Dissertation/Experiment/OpenSesame/NAP-FC/NAP-FC_GER_AA/GER_AA_ver-1/subject-0.csv","xpyriment","Jazzy James","3.1.6","yes","yes","59504085b83f69022b47a751","595041f76c613b022ae3ecdb","no","no","0","f","j","space","NA","space","space","f","1320","644","1540","NA","1362","297","1320","2","legacy","1024","1","44100","-16","experiment","fnal","","","None","None","None","","","0","even","","1057278","1055432","NA","1057923","1057274","NA","1021595","1057042","1021596","1021596","1027093","1028460","1077950","1076442","1079271","1030705","1029047","1055431","1024462","1026480","1053737","1028826","1057277","1029050","NA","1077949","1077949","NA","NA","1076438","NAP perception","7","7008","8","yes","1024"
"88.8888888889","yes","88.8888888889","883.333333333","883.333333333","white","no","xpyriment","I have read and understood the information shown above","legacy","legacy","0","uniform","1","0","0","undefined","undefined","1","f","1","0","NA","0","0","0","0","0","0","0","0","0","18","18","18","0","0","0","0","0","1","0","0","0","1","18","18","18","18","18","Wed Jun 28 13:24:16 2017","Forced-choice identification task with a practice and an experimental phase","yes","NAP-FC_GER_AA_ver-1.osexp","/Users/aviadalbert/Documents/Academisch/UoC/Dissertation/Experiment/OpenSesame/NAP-FC/NAP-FC_GER_AA/GER_AA_ver-1","yes","no","sans","no","20","no","black","no","Next","yes","768","legacy","8","9","0","/Users/aviadalbert/Documents/Academisch/UoC/Dissertation/Experiment/OpenSesame/NAP-FC/NAP-FC_GER_AA/GER_AA_ver-1/subject-0.csv","xpyriment","Jazzy James","3.1.6","yes","yes","59504085b83f69022b47a751","595041f76c613b022ae3ecdb","no","no","0","f","j","space","NA","space","space","f","942","644","1540","NA","1362","297","942","2","legacy","1024","1","44100","-16","experiment","mnal","","","None","None","None","","","0","even","","1057278","1055432","NA","1057923","1057274","NA","1021595","1057042","1021596","1021596","1027093","1028460","1081075","1079570","1082018","1030705","1029047","1055431","1024462","1026480","1053737","1028826","1057277","1029050","NA","1081075","1081075","NA","NA","1079566","NAP perception","8","7950","9","yes","1024"
"90","yes","90","866.5","866.5","white","no","xpyriment","I have read and understood the information shown above","legacy","legacy","0","uniform","1","0","0","undefined","undefined","1","j","1","0","NA","0","0","0","0","0","0","0","0","0","19","19","19","0","0","0","0","0","1","0","0","0","1","19","19","19","19","19","Wed Jun 28 13:24:16 2017","Forced-choice identification task with a practice and an experimental phase","yes","NAP-FC_GER_AA_ver-1.osexp","/Users/aviadalbert/Documents/Academisch/UoC/Dissertation/Experiment/OpenSesame/NAP-FC/NAP-FC_GER_AA/GER_AA_ver-1","yes","no","sans","no","20","no","black","no","Next","yes","768","legacy","9","9","0","/Users/aviadalbert/Documents/Academisch/UoC/Dissertation/Experiment/OpenSesame/NAP-FC/NAP-FC_GER_AA/GER_AA_ver-1/subject-0.csv","xpyriment","Jazzy James","3.1.6","yes","yes","59504085b83f69022b47a751","595041f76c613b022ae3ecdb","no","no","0","j","j","space","NA","space","space","j","715","644","1540","NA","1362","297","715","2","legacy","1024","1","44100","-16","experiment","wenal","","","None","None","None","","","0","even","","1057278","1055432","NA","1057923","1057274","NA","1021595","1057042","1021596","1021596","1027093","1028460","1083820","1082313","1084536","1030705","1029047","1055431","1024462","1026480","1053737","1028826","1057277","1029050","NA","1083819","1083820","NA","NA","1082309","NAP perception","9","8665","10","yes","1024"
"90.9090909091","yes","90.9090909091","879.727272727","879.727272727","white","no","xpyriment","I have read and understood the information shown above","legacy","legacy","0","uniform","1","0","0","undefined","undefined","1","j","1","0","NA","0","0","0","0","0","0","0","0","0","20","20","20","0","0","0","0","0","1","0","0","0","1","20","20","20","20","20","Wed Jun 28 13:24:16 2017","Forced-choice identification task with a practice and an experimental phase","yes","NAP-FC_GER_AA_ver-1.osexp","/Users/aviadalbert/Documents/Academisch/UoC/Dissertation/Experiment/OpenSesame/NAP-FC/NAP-FC_GER_AA/GER_AA_ver-1","yes","no","sans","no","20","no","black","no","Next","yes","768","legacy","10","9","0","/Users/aviadalbert/Documents/Academisch/UoC/Dissertation/Experiment/OpenSesame/NAP-FC/NAP-FC_GER_AA/GER_AA_ver-1/subject-0.csv","xpyriment","Jazzy James","3.1.6","yes","yes","59504085b83f69022b47a751","595041f76c613b022ae3ecdb","no","no","0","j","j","space","NA","space","space","j","1012","644","1540","NA","1362","297","1012","2","legacy","1024","1","44100","-16","experiment","neval","","","None","None","None","","","0","even","","1057278","1055432","NA","1057923","1057274","NA","1021595","1057042","1021596","1021596","1027093","1028460","1086332","1084826","1087345","1030705","1029047","1055431","1024462","1026480","1053737","1028826","1057277","1029050","NA","1086332","1086332","NA","NA","1084822","NAP perception","10","9677","11","yes","1024"
"91.6666666667","yes","91.6666666667","852.583333333","852.583333333","white","no","xpyriment","I have read and understood the information shown above","legacy","legacy","0","uniform","1","0","0","undefined","undefined","1","j","1","0","NA","0","0","0","0","0","0","0","0","0","21","21","21","0","0","0","0","0","1","0","0","0","1","21","21","21","21","21","Wed Jun 28 13:24:16 2017","Forced-choice identification task with a practice and an experimental phase","yes","NAP-FC_GER_AA_ver-1.osexp","/Users/aviadalbert/Documents/Academisch/UoC/Dissertation/Experiment/OpenSesame/NAP-FC/NAP-FC_GER_AA/GER_AA_ver-1","yes","no","sans","no","20","no","black","no","Next","yes","768","legacy","11","9","0","/Users/aviadalbert/Documents/Academisch/UoC/Dissertation/Experiment/OpenSesame/NAP-FC/NAP-FC_GER_AA/GER_AA_ver-1/subject-0.csv","xpyriment","Jazzy James","3.1.6","yes","yes","59504085b83f69022b47a751","595041f76c613b022ae3ecdb","no","no","0","j","j","space","NA","space","space","j","554","644","1540","NA","1362","297","554","2","legacy","1024","1","44100","-16","experiment","enmal","","","None","None","None","","","0","even","","1057278","1055432","NA","1057923","1057274","NA","1021595","1057042","1021596","1021596","1027093","1028460","1089145","1087639","1089700","1030705","1029047","1055431","1024462","1026480","1053737","1028826","1057277","1029050","NA","1089144","1089145","NA","NA","1087635","NAP perception","11","10231","12","yes","1024"
"92.3076923077","yes","92.3076923077","838.461538462","838.461538462","white","no","xpyriment","I have read and understood the information shown above","legacy","legacy","0","uniform","1","0","0","undefined","undefined","1","j","1","0","NA","0","0","0","0","0","0","0","0","0","22","22","22","0","0","0","0","0","1","0","0","0","1","22","22","22","22","22","Wed Jun 28 13:24:16 2017","Forced-choice identification task with a practice and an experimental phase","yes","NAP-FC_GER_AA_ver-1.osexp","/Users/aviadalbert/Documents/Academisch/UoC/Dissertation/Experiment/OpenSesame/NAP-FC/NAP-FC_GER_AA/GER_AA_ver-1","yes","no","sans","no","20","no","black","no","Next","yes","768","legacy","12","9","0","/Users/aviadalbert/Documents/Academisch/UoC/Dissertation/Experiment/OpenSesame/NAP-FC/NAP-FC_GER_AA/GER_AA_ver-1/subject-0.csv","xpyriment","Jazzy James","3.1.6","yes","yes","59504085b83f69022b47a751","595041f76c613b022ae3ecdb","no","no","0","j","j","space","NA","space","space","j","669","644","1540","NA","1362","297","669","2","legacy","1024","1","44100","-16","experiment","lefal","","","None","None","None","","","0","even","","1057278","1055432","NA","1057923","1057274","NA","1021595","1057042","1021596","1021596","1027093","1028460","1091499","1089992","1092169","1030705","1029047","1055431","1024462","1026480","1053737","1028826","1057277","1029050","NA","1091499","1091499","NA","NA","1089988","NAP perception","12","10900","13","yes","1024"
"92.8571428571","yes","92.8571428571","851.142857143","851.142857143","white","no","xpyriment","I have read and understood the information shown above","legacy","legacy","0","uniform","1","0","0","undefined","undefined","1","f","1","0","NA","0","0","0","0","0","0","0","0","0","23","23","23","0","0","0","0","0","1","0","0","0","1","23","23","23","23","23","Wed Jun 28 13:24:16 2017","Forced-choice identification task with a practice and an experimental phase","yes","NAP-FC_GER_AA_ver-1.osexp","/Users/aviadalbert/Documents/Academisch/UoC/Dissertation/Experiment/OpenSesame/NAP-FC/NAP-FC_GER_AA/GER_AA_ver-1","yes","no","sans","no","20","no","black","no","Next","yes","768","legacy","13","9","0","/Users/aviadalbert/Documents/Academisch/UoC/Dissertation/Experiment/OpenSesame/NAP-FC/NAP-FC_GER_AA/GER_AA_ver-1/subject-0.csv","xpyriment","Jazzy James","3.1.6","yes","yes","59504085b83f69022b47a751","595041f76c613b022ae3ecdb","no","no","0","f","j","space","NA","space","space","f","1016","644","1540","NA","1362","297","1016","2","legacy","1024","1","44100","-16","experiment","jfal","","","None","None","None","","","0","even","","1057278","1055432","NA","1057923","1057274","NA","1021595","1057042","1021596","1021596","1027093","1028460","1093965","1092459","1094982","1030705","1029047","1055431","1024462","1026480","1053737","1028826","1057277","1029050","NA","1093965","1093965","NA","NA","1092455","NAP perception","13","11916","14","yes","1024"
"93.3333333333","yes","93.3333333333","908.066666667","908.066666667","white","no","xpyriment","I have read and understood the information shown above","legacy","legacy","0","uniform","1","0","0","undefined","undefined","1","f","1","0","NA","0","0","0","0","0","0","0","0","0","24","24","24","0","0","0","0","0","1","0","0","0","1","24","24","24","24","24","Wed Jun 28 13:24:16 2017","Forced-choice identification task with a practice and an experimental phase","yes","NAP-FC_GER_AA_ver-1.osexp","/Users/aviadalbert/Documents/Academisch/UoC/Dissertation/Experiment/OpenSesame/NAP-FC/NAP-FC_GER_AA/GER_AA_ver-1","yes","no","sans","no","20","no","black","no","Next","yes","768","legacy","14","9","0","/Users/aviadalbert/Documents/Academisch/UoC/Dissertation/Experiment/OpenSesame/NAP-FC/NAP-FC_GER_AA/GER_AA_ver-1/subject-0.csv","xpyriment","Jazzy James","3.1.6","yes","yes","59504085b83f69022b47a751","595041f76c613b022ae3ecdb","no","no","0","f","j","space","NA","space","space","f","1705","644","1540","NA","1362","297","1705","2","legacy","1024","1","44100","-16","experiment","spal","","","None","None","None","","","0","even","","1057278","1055432","NA","1057923","1057274","NA","1021595","1057042","1021596","1021596","1027093","1028460","1096791","1095283","1098498","1030705","1029047","1055431","1024462","1026480","1053737","1028826","1057277","1029050","NA","1096791","1096791","NA","NA","1095279","NAP perception","14","13621","15","yes","1024"
"93.75","yes","93.75","918.625","918.625","white","no","xpyriment","I have read and understood the information shown above","legacy","legacy","0","uniform","1","0","0","undefined","undefined","1","j","1","0","NA","0","0","0","0","0","0","0","0","0","25","25","25","0","0","0","0","0","1","0","0","0","1","25","25","25","25","25","Wed Jun 28 13:24:16 2017","Forced-choice identification task with a practice and an experimental phase","yes","NAP-FC_GER_AA_ver-1.osexp","/Users/aviadalbert/Documents/Academisch/UoC/Dissertation/Experiment/OpenSesame/NAP-FC/NAP-FC_GER_AA/GER_AA_ver-1","yes","no","sans","no","20","no","black","no","Next","yes","768","legacy","15","9","0","/Users/aviadalbert/Documents/Academisch/UoC/Dissertation/Experiment/OpenSesame/NAP-FC/NAP-FC_GER_AA/GER_AA_ver-1/subject-0.csv","xpyriment","Jazzy James","3.1.6","yes","yes","59504085b83f69022b47a751","595041f76c613b022ae3ecdb","no","no","0","j","j","space","NA","space","space","j","1077","644","1540","NA","1362","297","1077","2","legacy","1024","1","44100","-16","experiment","jemal","","","None","None","None","","","0","even","","1057278","1055432","NA","1057923","1057274","NA","1021595","1057042","1021596","1021596","1027093","1028460","1100293","1098790","1101372","1030705","1029047","1055431","1024462","1026480","1053737","1028826","1057277","1029050","NA","1100293","1100293","NA","NA","1098786","NAP perception","15","14698","16","yes","1024"
"88.2352941176","yes","88.2352941176","899.529411765","899.529411765","white","no","xpyriment","I have read and understood the information shown above","legacy","legacy","0","uniform","0","0","0","undefined","undefined","0","j","1","0","NA","0","0","0","0","0","0","0","0","0","26","26","26","0","0","0","0","0","1","0","0","0","1","26","26","26","26","26","Wed Jun 28 13:24:16 2017","Forced-choice identification task with a practice and an experimental phase","yes","NAP-FC_GER_AA_ver-1.osexp","/Users/aviadalbert/Documents/Academisch/UoC/Dissertation/Experiment/OpenSesame/NAP-FC/NAP-FC_GER_AA/GER_AA_ver-1","yes","no","sans","no","20","no","black","no","Next","yes","768","legacy","16","9","0","/Users/aviadalbert/Documents/Academisch/UoC/Dissertation/Experiment/OpenSesame/NAP-FC/NAP-FC_GER_AA/GER_AA_ver-1/subject-0.csv","xpyriment","Jazzy James","3.1.6","yes","yes","59504085b83f69022b47a751","595041f76c613b022ae3ecdb","no","no","0","f","j","space","NA","space","space","f","594","644","1540","NA","1362","297","594","2","legacy","1024","1","44100","-16","experiment","efnal","","","None","None","None","","","0","even","","1057278","1055432","NA","1057923","1057274","NA","1021595","1057042","1021596","1021596","1027093","1028460","1103167","1101661","1103763","1030705","1029047","1055431","1024462","1026480","1053737","1028826","1057277","1029050","NA","1103166","1103167","NA","NA","1101657","NAP perception","15","15292","17","yes","1024"
"88.8888888889","yes","88.8888888889","907.111111111","907.111111111","white","no","xpyriment","I have read and understood the information shown above","legacy","legacy","0","uniform","1","0","0","undefined","undefined","1","f","1","0","NA","0","0","0","0","0","0","0","0","0","27","27","27","0","0","0","0","0","1","0","0","0","1","27","27","27","27","27","Wed Jun 28 13:24:16 2017","Forced-choice identification task with a practice and an experimental phase","yes","NAP-FC_GER_AA_ver-1.osexp","/Users/aviadalbert/Documents/Academisch/UoC/Dissertation/Experiment/OpenSesame/NAP-FC/NAP-FC_GER_AA/GER_AA_ver-1","yes","no","sans","no","20","no","black","no","Next","yes","768","legacy","17","9","0","/Users/aviadalbert/Documents/Academisch/UoC/Dissertation/Experiment/OpenSesame/NAP-FC/NAP-FC_GER_AA/GER_AA_ver-1/subject-0.csv","xpyriment","Jazzy James","3.1.6","yes","yes","59504085b83f69022b47a751","595041f76c613b022ae3ecdb","no","no","0","f","j","space","NA","space","space","f","1036","644","1540","NA","1362","297","1036","2","legacy","1024","1","44100","-16","experiment","mtal","","","None","None","None","","","0","even","","1057278","1055432","NA","1057923","1057274","NA","1021595","1057042","1021596","1021596","1027093","1028460","1105557","1104049","1106595","1030705","1029047","1055431","1024462","1026480","1053737","1028826","1057277","1029050","NA","1105557","1105557","NA","NA","1104045","NAP perception","16","16328","18","yes","1024"
"89.4736842105","yes","89.4736842105","908.684210526","908.684210526","white","no","xpyriment","I have read and understood the information shown above","legacy","legacy","0","uniform","1","0","0","undefined","undefined","1","j","1","0","NA","0","0","0","0","0","0","0","0","0","28","28","28","0","0","0","0","0","1","0","0","0","1","28","28","28","28","28","Wed Jun 28 13:24:16 2017","Forced-choice identification task with a practice and an experimental phase","yes","NAP-FC_GER_AA_ver-1.osexp","/Users/aviadalbert/Documents/Academisch/UoC/Dissertation/Experiment/OpenSesame/NAP-FC/NAP-FC_GER_AA/GER_AA_ver-1","yes","no","sans","no","20","no","black","no","Next","yes","768","legacy","18","9","0","/Users/aviadalbert/Documents/Academisch/UoC/Dissertation/Experiment/OpenSesame/NAP-FC/NAP-FC_GER_AA/GER_AA_ver-1/subject-0.csv","xpyriment","Jazzy James","3.1.6","yes","yes","59504085b83f69022b47a751","595041f76c613b022ae3ecdb","no","no","0","j","j","space","NA","space","space","j","937","644","1540","NA","1362","297","937","2","legacy","1024","1","44100","-16","experiment","wezal","","","None","None","None","","","0","even","","1057278","1055432","NA","1057923","1057274","NA","1021595","1057042","1021596","1021596","1027093","1028460","1108395","1106890","1109334","1030705","1029047","1055431","1024462","1026480","1053737","1028826","1057277","1029050","NA","1108395","1108395","NA","NA","1106886","NAP perception","17","17265","19","yes","1024"
"90","yes","90","898.65","898.65","white","no","xpyriment","I have read and understood the information shown above","legacy","legacy","0","uniform","1","0","0","undefined","undefined","1","j","1","0","NA","0","0","0","0","0","0","0","0","0","29","29","29","0","0","0","0","0","1","0","0","0","1","29","29","29","29","29","Wed Jun 28 13:24:16 2017","Forced-choice identification task with a practice and an experimental phase","yes","NAP-FC_GER_AA_ver-1.osexp","/Users/aviadalbert/Documents/Academisch/UoC/Dissertation/Experiment/OpenSesame/NAP-FC/NAP-FC_GER_AA/GER_AA_ver-1","yes","no","sans","no","20","no","black","no","Next","yes","768","legacy","19","9","0","/Users/aviadalbert/Documents/Academisch/UoC/Dissertation/Experiment/OpenSesame/NAP-FC/NAP-FC_GER_AA/GER_AA_ver-1/subject-0.csv","xpyriment","Jazzy James","3.1.6","yes","yes","59504085b83f69022b47a751","595041f76c613b022ae3ecdb","no","no","0","j","j","space","NA","space","space","j","708","644","1540","NA","1362","297","708","2","legacy","1024","1","44100","-16","experiment","wesal","","","None","None","None","","","0","even","","1057278","1055432","NA","1057923","1057274","NA","1021595","1057042","1021596","1021596","1027093","1028460","1111125","1109620","1111835","1030705","1029047","1055431","1024462","1026480","1053737","1028826","1057277","1029050","NA","1111125","1111125","NA","NA","1109616","NAP perception","18","17973","20","yes","1024"
"90.4761904762","yes","90.4761904762","880.619047619","880.619047619","white","no","xpyriment","I have read and understood the information shown above","legacy","legacy","0","uniform","1","0","0","undefined","undefined","1","f","1","0","NA","0","0","0","0","0","0","0","0","0","30","30","30","0","0","0","0","0","1","0","0","0","1","30","30","30","30","30","Wed Jun 28 13:24:16 2017","Forced-choice identification task with a practice and an experimental phase","yes","NAP-FC_GER_AA_ver-1.osexp","/Users/aviadalbert/Documents/Academisch/UoC/Dissertation/Experiment/OpenSesame/NAP-FC/NAP-FC_GER_AA/GER_AA_ver-1","yes","no","sans","no","20","no","black","no","Next","yes","768","legacy","20","9","0","/Users/aviadalbert/Documents/Academisch/UoC/Dissertation/Experiment/OpenSesame/NAP-FC/NAP-FC_GER_AA/GER_AA_ver-1/subject-0.csv","xpyriment","Jazzy James","3.1.6","yes","yes","59504085b83f69022b47a751","595041f76c613b022ae3ecdb","no","no","0","f","j","space","NA","space","space","f","520","644","1540","NA","1362","297","520","2","legacy","1024","1","44100","-16","experiment","smal","","","None","None","None","","","0","even","","1057278","1055432","NA","1057923","1057274","NA","1021595","1057042","1021596","1021596","1027093","1028460","1113632","1112126","1114154","1030705","1029047","1055431","1024462","1026480","1053737","1028826","1057277","1029050","NA","1113632","1113632","NA","NA","1112122","NAP perception","19","18493","21","yes","1024"
"90.9090909091","yes","90.9090909091","887.772727273","887.772727273","white","no","xpyriment","I have read and understood the information shown above","legacy","legacy","0","uniform","1","0","0","undefined","undefined","1","j","1","0","NA","0","0","0","0","0","0","0","0","0","31","31","31","0","0","0","0","0","1","0","0","0","1","31","31","31","31","31","Wed Jun 28 13:24:16 2017","Forced-choice identification task with a practice and an experimental phase","yes","NAP-FC_GER_AA_ver-1.osexp","/Users/aviadalbert/Documents/Academisch/UoC/Dissertation/Experiment/OpenSesame/NAP-FC/NAP-FC_GER_AA/GER_AA_ver-1","yes","no","sans","no","20","no","black","no","Next","yes","768","legacy","21","9","0","/Users/aviadalbert/Documents/Academisch/UoC/Dissertation/Experiment/OpenSesame/NAP-FC/NAP-FC_GER_AA/GER_AA_ver-1/subject-0.csv","xpyriment","Jazzy James","3.1.6","yes","yes","59504085b83f69022b47a751","595041f76c613b022ae3ecdb","no","no","0","j","j","space","NA","space","space","j","1038","644","1540","NA","1362","297","1038","2","legacy","1024","1","44100","-16","experiment","velal","","","None","None","None","","","0","even","","1057278","1055432","NA","1057923","1057274","NA","1021595","1057042","1021596","1021596","1027093","1028460","1115962","1114455","1117001","1030705","1029047","1055431","1024462","1026480","1053737","1028826","1057277","1029050","NA","1115962","1115962","NA","NA","1114451","NAP perception","20","19531","22","yes","1024"
"91.3043478261","yes","91.3043478261","884.565217391","884.565217391","white","no","xpyriment","I have read and understood the information shown above","legacy","legacy","0","uniform","1","0","0","undefined","undefined","1","f","1","0","NA","0","0","0","0","0","0","0","0","0","32","32","32","0","0","0","0","0","1","0","0","0","1","32","32","32","32","32","Wed Jun 28 13:24:16 2017","Forced-choice identification task with a practice and an experimental phase","yes","NAP-FC_GER_AA_ver-1.osexp","/Users/aviadalbert/Documents/Academisch/UoC/Dissertation/Experiment/OpenSesame/NAP-FC/NAP-FC_GER_AA/GER_AA_ver-1","yes","no","sans","no","20","no","black","no","Next","yes","768","legacy","22","9","0","/Users/aviadalbert/Documents/Academisch/UoC/Dissertation/Experiment/OpenSesame/NAP-FC/NAP-FC_GER_AA/GER_AA_ver-1/subject-0.csv","xpyriment","Jazzy James","3.1.6","yes","yes","59504085b83f69022b47a751","595041f76c613b022ae3ecdb","no","no","0","f","j","space","NA","space","space","f","814","644","1540","NA","1362","297","814","2","legacy","1024","1","44100","-16","experiment","wzal","","","None","None","None","","","0","even","","1057278","1055432","NA","1057923","1057274","NA","1021595","1057042","1021596","1021596","1027093","1028460","1118797","1117289","1119612","1030705","1029047","1055431","1024462","1026480","1053737","1028826","1057277","1029050","NA","1118797","1118797","NA","NA","1117285","NAP perception","21","20345","23","yes","1024"
"91.6666666667","yes","91.6666666667","870.791666667","870.791666667","white","no","xpyriment","I have read and understood the information shown above","legacy","legacy","0","uniform","1","0","0","undefined","undefined","1","j","1","0","NA","0","0","0","0","0","0","0","0","0","33","33","33","0","0","0","0","0","1","0","0","0","1","33","33","33","33","33","Wed Jun 28 13:24:16 2017","Forced-choice identification task with a practice and an experimental phase","yes","NAP-FC_GER_AA_ver-1.osexp","/Users/aviadalbert/Documents/Academisch/UoC/Dissertation/Experiment/OpenSesame/NAP-FC/NAP-FC_GER_AA/GER_AA_ver-1","yes","no","sans","no","20","no","black","no","Next","yes","768","legacy","23","9","0","/Users/aviadalbert/Documents/Academisch/UoC/Dissertation/Experiment/OpenSesame/NAP-FC/NAP-FC_GER_AA/GER_AA_ver-1/subject-0.csv","xpyriment","Jazzy James","3.1.6","yes","yes","59504085b83f69022b47a751","595041f76c613b022ae3ecdb","no","no","0","j","j","space","NA","space","space","j","554","644","1540","NA","1362","297","554","2","legacy","1024","1","44100","-16","experiment","ʃefal","","","None","None","None","","","0","even","","1057278","1055432","NA","1057923","1057274","NA","1021595","1057042","1021596","1021596","1027093","1028460","1121401","1119897","1121956","1030705","1029047","1055431","1024462","1026480","1053737","1028826","1057277","1029050","NA","1121401","1121401","NA","NA","1119893","NAP perception","22","20899","24","yes","1024"
"92","yes","92","859.8","859.8","white","no","xpyriment","I have read and understood the information shown above","legacy","legacy","0","uniform","1","0","0","undefined","undefined","1","f","1","0","NA","0","0","0","0","0","0","0","0","0","34","34","34","0","0","0","0","0","1","0","0","0","1","34","34","34","34","34","Wed Jun 28 13:24:16 2017","Forced-choice identification task with a practice and an experimental phase","yes","NAP-FC_GER_AA_ver-1.osexp","/Users/aviadalbert/Documents/Academisch/UoC/Dissertation/Experiment/OpenSesame/NAP-FC/NAP-FC_GER_AA/GER_AA_ver-1","yes","no","sans","no","20","no","black","no","Next","yes","768","legacy","24","9","0","/Users/aviadalbert/Documents/Academisch/UoC/Dissertation/Experiment/OpenSesame/NAP-FC/NAP-FC_GER_AA/GER_AA_ver-1/subject-0.csv","xpyriment","Jazzy James","3.1.6","yes","yes","59504085b83f69022b47a751","595041f76c613b022ae3ecdb","no","no","0","f","j","space","NA","space","space","f","596","644","1540","NA","1362","297","596","2","legacy","1024","1","44100","-16","experiment","lpal","","","None","None","None","","","0","even","","1057278","1055432","NA","1057923","1057274","NA","1021595","1057042","1021596","1021596","1027093","1028460","1123747","1122239","1124344","1030705","1029047","1055431","1024462","1026480","1053737","1028826","1057277","1029050","NA","1123747","1123747","NA","NA","1122235","NAP perception","23","21495","25","yes","1024"
"92.3076923077","yes","92.3076923077","845.5","845.5","white","no","xpyriment","I have read and understood the information shown above","legacy","legacy","0","uniform","1","0","0","undefined","undefined","1","j","1","0","NA","0","0","0","0","0","0","0","0","0","35","35","35","0","0","0","0","0","1","0","0","0","1","35","35","35","35","35","Wed Jun 28 13:24:16 2017","Forced-choice identification task with a practice and an experimental phase","yes","NAP-FC_GER_AA_ver-1.osexp","/Users/aviadalbert/Documents/Academisch/UoC/Dissertation/Experiment/OpenSesame/NAP-FC/NAP-FC_GER_AA/GER_AA_ver-1","yes","no","sans","no","20","no","black","no","Next","yes","768","legacy","25","9","0","/Users/aviadalbert/Documents/Academisch/UoC/Dissertation/Experiment/OpenSesame/NAP-FC/NAP-FC_GER_AA/GER_AA_ver-1/subject-0.csv","xpyriment","Jazzy James","3.1.6","yes","yes","59504085b83f69022b47a751","595041f76c613b022ae3ecdb","no","no","0","j","j","space","NA","space","space","j","488","644","1540","NA","1362","297","488","2","legacy","1024","1","44100","-16","experiment","jeval","","","None","None","None","","","0","even","","1057278","1055432","NA","1057923","1057274","NA","1021595","1057042","1021596","1021596","1027093","1028460","1126138","1124633","1126627","1030705","1029047","1055431","1024462","1026480","1053737","1028826","1057277","1029050","NA","1126137","1126137","NA","NA","1124630","NAP perception","24","21983","26","yes","1024"
"92.5925925926","yes","92.5925925926","837.481481481","837.481481481","white","no","xpyriment","I have read and understood the information shown above","legacy","legacy","0","uniform","1","0","0","undefined","undefined","1","j","1","0","NA","0","0","0","0","0","0","0","0","0","36","36","36","0","0","0","0","0","1","0","0","0","1","36","36","36","36","36","Wed Jun 28 13:24:16 2017","Forced-choice identification task with a practice and an experimental phase","yes","NAP-FC_GER_AA_ver-1.osexp","/Users/aviadalbert/Documents/Academisch/UoC/Dissertation/Experiment/OpenSesame/NAP-FC/NAP-FC_GER_AA/GER_AA_ver-1","yes","no","sans","no","20","no","black","no","Next","yes","768","legacy","26","9","0","/Users/aviadalbert/Documents/Academisch/UoC/Dissertation/Experiment/OpenSesame/NAP-FC/NAP-FC_GER_AA/GER_AA_ver-1/subject-0.csv","xpyriment","Jazzy James","3.1.6","yes","yes","59504085b83f69022b47a751","595041f76c613b022ae3ecdb","no","no","0","j","j","space","NA","space","space","j","629","644","1540","NA","1362","297","629","2","legacy","1024","1","44100","-16","experiment","evnal","","","None","None","None","","","0","even","","1057278","1055432","NA","1057923","1057274","NA","1021595","1057042","1021596","1021596","1027093","1028460","1128425","1126919","1129055","1030705","1029047","1055431","1024462","1026480","1053737","1028826","1057277","1029050","NA","1128425","1128425","NA","NA","1126915","NAP perception","25","22612","27","yes","1024"
"92.8571428571","yes","92.8571428571","828.464285714","828.464285714","white","no","xpyriment","I have read and understood the information shown above","legacy","legacy","0","uniform","1","0","0","undefined","undefined","1","j","1","0","NA","0","0","0","0","0","0","0","0","0","37","37","37","0","0","0","0","0","1","0","0","0","1","37","37","37","37","37","Wed Jun 28 13:24:16 2017","Forced-choice identification task with a practice and an experimental phase","yes","NAP-FC_GER_AA_ver-1.osexp","/Users/aviadalbert/Documents/Academisch/UoC/Dissertation/Experiment/OpenSesame/NAP-FC/NAP-FC_GER_AA/GER_AA_ver-1","yes","no","sans","no","20","no","black","no","Next","yes","768","legacy","27","9","0","/Users/aviadalbert/Documents/Academisch/UoC/Dissertation/Experiment/OpenSesame/NAP-FC/NAP-FC_GER_AA/GER_AA_ver-1/subject-0.csv","xpyriment","Jazzy James","3.1.6","yes","yes","59504085b83f69022b47a751","595041f76c613b022ae3ecdb","no","no","0","j","j","space","NA","space","space","j","585","644","1540","NA","1362","297","585","2","legacy","1024","1","44100","-16","experiment","nepal","","","None","None","None","","","0","even","","1057278","1055432","NA","1057923","1057274","NA","1021595","1057042","1021596","1021596","1027093","1028460","1130852","1129347","1131438","1030705","1029047","1055431","1024462","1026480","1053737","1028826","1057277","1029050","NA","1130852","1130852","NA","NA","1129343","NAP perception","26","23197","28","yes","1024"
"93.1034482759","yes","93.1034482759","817.310344828","817.310344828","white","no","xpyriment","I have read and understood the information shown above","legacy","legacy","0","uniform","1","0","0","undefined","undefined","1","j","1","0","NA","0","0","0","0","0","0","0","0","0","38","38","38","0","0","0","0","0","1","0","0","0","1","38","38","38","38","38","Wed Jun 28 13:24:16 2017","Forced-choice identification task with a practice and an experimental phase","yes","NAP-FC_GER_AA_ver-1.osexp","/Users/aviadalbert/Documents/Academisch/UoC/Dissertation/Experiment/OpenSesame/NAP-FC/NAP-FC_GER_AA/GER_AA_ver-1","yes","no","sans","no","20","no","black","no","Next","yes","768","legacy","28","9","0","/Users/aviadalbert/Documents/Academisch/UoC/Dissertation/Experiment/OpenSesame/NAP-FC/NAP-FC_GER_AA/GER_AA_ver-1/subject-0.csv","xpyriment","Jazzy James","3.1.6","yes","yes","59504085b83f69022b47a751","595041f76c613b022ae3ecdb","no","no","0","j","j","space","NA","space","space","j","505","644","1540","NA","1362","297","505","2","legacy","1024","1","44100","-16","experiment","enfal","","","None","None","None","","","0","even","","1057278","1055432","NA","1057923","1057274","NA","1021595","1057042","1021596","1021596","1027093","1028460","1133234","1131729","1133740","1030705","1029047","1055431","1024462","1026480","1053737","1028826","1057277","1029050","NA","1133234","1133234","NA","NA","1131725","NAP perception","27","23702","29","yes","1024"
"93.3333333333","yes","93.3333333333","804.966666667","804.966666667","white","no","xpyriment","I have read and understood the information shown above","legacy","legacy","0","uniform","1","0","0","undefined","undefined","1","f","1","0","NA","0","0","0","0","0","0","0","0","0","39","39","39","0","0","0","0","0","1","0","0","0","1","39","39","39","39","39","Wed Jun 28 13:24:16 2017","Forced-choice identification task with a practice and an experimental phase","yes","NAP-FC_GER_AA_ver-1.osexp","/Users/aviadalbert/Documents/Academisch/UoC/Dissertation/Experiment/OpenSesame/NAP-FC/NAP-FC_GER_AA/GER_AA_ver-1","yes","no","sans","no","20","no","black","no","Next","yes","768","legacy","29","9","0","/Users/aviadalbert/Documents/Academisch/UoC/Dissertation/Experiment/OpenSesame/NAP-FC/NAP-FC_GER_AA/GER_AA_ver-1/subject-0.csv","xpyriment","Jazzy James","3.1.6","yes","yes","59504085b83f69022b47a751","595041f76c613b022ae3ecdb","no","no","0","f","j","space","NA","space","space","f","447","644","1540","NA","1362","297","447","2","legacy","1024","1","44100","-16","experiment","vlal","","","None","None","None","","","0","even","","1057278","1055432","NA","1057923","1057274","NA","1021595","1057042","1021596","1021596","1027093","1028460","1135538","1134030","1135986","1030705","1029047","1055431","1024462","1026480","1053737","1028826","1057277","1029050","NA","1135537","1135538","NA","NA","1134027","NAP perception","28","24149","30","yes","1024"
"93.5483870968","yes","93.5483870968","810.548387097","810.548387097","white","no","xpyriment","I have read and understood the information shown above","legacy","legacy","0","uniform","1","0","0","undefined","undefined","1","f","1","0","NA","0","0","0","0","0","0","0","0","0","40","40","40","0","0","0","0","0","1","0","0","0","1","40","40","40","40","40","Wed Jun 28 13:24:16 2017","Forced-choice identification task with a practice and an experimental phase","yes","NAP-FC_GER_AA_ver-1.osexp","/Users/aviadalbert/Documents/Academisch/UoC/Dissertation/Experiment/OpenSesame/NAP-FC/NAP-FC_GER_AA/GER_AA_ver-1","yes","no","sans","no","20","no","black","no","Next","yes","768","legacy","30","9","0","/Users/aviadalbert/Documents/Academisch/UoC/Dissertation/Experiment/OpenSesame/NAP-FC/NAP-FC_GER_AA/GER_AA_ver-1/subject-0.csv","xpyriment","Jazzy James","3.1.6","yes","yes","59504085b83f69022b47a751","595041f76c613b022ae3ecdb","no","no","0","f","j","space","NA","space","space","f","978","644","1540","NA","1362","297","978","2","legacy","1024","1","44100","-16","experiment","wtal","","","None","None","None","","","0","even","","1057278","1055432","NA","1057923","1057274","NA","1021595","1057042","1021596","1021596","1027093","1028460","1137781","1136275","1138760","1030705","1029047","1055431","1024462","1026480","1053737","1028826","1057277","1029050","NA","1137781","1137781","NA","NA","1136271","NAP perception","29","25127","31","yes","1024"
"93.75","yes","93.75","806.4375","806.4375","white","no","xpyriment","I have read and understood the information shown above","legacy","legacy","0","uniform","1","0","0","undefined","undefined","1","f","1","0","NA","0","0","0","0","0","0","0","0","0","41","41","41","0","0","0","0","0","1","0","0","0","1","41","41","41","41","41","Wed Jun 28 13:24:16 2017","Forced-choice identification task with a practice and an experimental phase","yes","NAP-FC_GER_AA_ver-1.osexp","/Users/aviadalbert/Documents/Academisch/UoC/Dissertation/Experiment/OpenSesame/NAP-FC/NAP-FC_GER_AA/GER_AA_ver-1","yes","no","sans","no","20","no","black","no","Next","yes","768","legacy","31","9","0","/Users/aviadalbert/Documents/Academisch/UoC/Dissertation/Experiment/OpenSesame/NAP-FC/NAP-FC_GER_AA/GER_AA_ver-1/subject-0.csv","xpyriment","Jazzy James","3.1.6","yes","yes","59504085b83f69022b47a751","595041f76c613b022ae3ecdb","no","no","0","f","j","space","NA","space","space","f","679","644","1540","NA","1362","297","679","2","legacy","1024","1","44100","-16","experiment","sfal","","","None","None","None","","","0","even","","1057278","1055432","NA","1057923","1057274","NA","1021595","1057042","1021596","1021596","1027093","1028460","1140564","1139056","1141244","1030705","1029047","1055431","1024462","1026480","1053737","1028826","1057277","1029050","NA","1140564","1140564","NA","NA","1139052","NAP perception","30","25806","32","yes","1024"
"93.9393939394","yes","93.9393939394","809.818181818","809.818181818","white","no","xpyriment","I have read and understood the information shown above","legacy","legacy","0","uniform","1","0","0","undefined","undefined","1","j","1","0","NA","0","0","0","0","0","0","0","0","0","42","42","42","0","0","0","0","0","1","0","0","0","1","42","42","42","42","42","Wed Jun 28 13:24:16 2017","Forced-choice identification task with a practice and an experimental phase","yes","NAP-FC_GER_AA_ver-1.osexp","/Users/aviadalbert/Documents/Academisch/UoC/Dissertation/Experiment/OpenSesame/NAP-FC/NAP-FC_GER_AA/GER_AA_ver-1","yes","no","sans","no","20","no","black","no","Next","yes","768","legacy","32","9","0","/Users/aviadalbert/Documents/Academisch/UoC/Dissertation/Experiment/OpenSesame/NAP-FC/NAP-FC_GER_AA/GER_AA_ver-1/subject-0.csv","xpyriment","Jazzy James","3.1.6","yes","yes","59504085b83f69022b47a751","595041f76c613b022ae3ecdb","no","no","0","j","j","space","NA","space","space","j","918","644","1540","NA","1362","297","918","2","legacy","1024","1","44100","-16","experiment","fesal","","","None","None","None","","","0","even","","1057278","1055432","NA","1057923","1057274","NA","1021595","1057042","1021596","1021596","1027093","1028460","1143043","1141539","1143962","1030705","1029047","1055431","1024462","1026480","1053737","1028826","1057277","1029050","NA","1143042","1143042","NA","NA","1141535","NAP perception","31","26724","33","yes","1024"
"94.1176470588","yes","94.1176470588","810.617647059","810.617647059","white","no","xpyriment","I have read and understood the information shown above","legacy","legacy","0","uniform","1","0","0","undefined","undefined","1","f","1","0","NA","0","0","0","0","0","0","0","0","0","43","43","43","0","0","0","0","0","1","0","0","0","1","43","43","43","43","43","Wed Jun 28 13:24:16 2017","Forced-choice identification task with a practice and an experimental phase","yes","NAP-FC_GER_AA_ver-1.osexp","/Users/aviadalbert/Documents/Academisch/UoC/Dissertation/Experiment/OpenSesame/NAP-FC/NAP-FC_GER_AA/GER_AA_ver-1","yes","no","sans","no","20","no","black","no","Next","yes","768","legacy","33","9","0","/Users/aviadalbert/Documents/Academisch/UoC/Dissertation/Experiment/OpenSesame/NAP-FC/NAP-FC_GER_AA/GER_AA_ver-1/subject-0.csv","xpyriment","Jazzy James","3.1.6","yes","yes","59504085b83f69022b47a751","595041f76c613b022ae3ecdb","no","no","0","f","j","space","NA","space","space","f","837","644","1540","NA","1362","297","837","2","legacy","1024","1","44100","-16","experiment","lfal","","","None","None","None","","","0","even","","1057278","1055432","NA","1057923","1057274","NA","1021595","1057042","1021596","1021596","1027093","1028460","1145755","1144248","1146593","1030705","1029047","1055431","1024462","1026480","1053737","1028826","1057277","1029050","NA","1145755","1145755","NA","NA","1144244","NAP perception","32","27561","34","yes","1024"
"94.2857142857","yes","94.2857142857","808.057142857","808.057142857","white","no","xpyriment","I have read and understood the information shown above","legacy","legacy","0","uniform","1","0","0","undefined","undefined","1","f","1","0","NA","0","0","0","0","0","0","0","0","0","44","44","44","0","0","0","0","0","1","0","0","0","1","44","44","44","44","44","Wed Jun 28 13:24:16 2017","Forced-choice identification task with a practice and an experimental phase","yes","NAP-FC_GER_AA_ver-1.osexp","/Users/aviadalbert/Documents/Academisch/UoC/Dissertation/Experiment/OpenSesame/NAP-FC/NAP-FC_GER_AA/GER_AA_ver-1","yes","no","sans","no","20","no","black","no","Next","yes","768","legacy","34","9","0","/Users/aviadalbert/Documents/Academisch/UoC/Dissertation/Experiment/OpenSesame/NAP-FC/NAP-FC_GER_AA/GER_AA_ver-1/subject-0.csv","xpyriment","Jazzy James","3.1.6","yes","yes","59504085b83f69022b47a751","595041f76c613b022ae3ecdb","no","no","0","f","j","space","NA","space","space","f","721","644","1540","NA","1362","297","721","2","legacy","1024","1","44100","-16","experiment","ʃpal","","","None","None","None","","","0","even","","1057278","1055432","NA","1057923","1057274","NA","1021595","1057042","1021596","1021596","1027093","1028460","1148395","1146889","1149118","1030705","1029047","1055431","1024462","1026480","1053737","1028826","1057277","1029050","NA","1148394","1148395","NA","NA","1146885","NAP perception","33","28282","35","yes","1024"
"94.4444444444","yes","94.4444444444","807.055555556","807.055555556","white","no","xpyriment","I have read and understood the information shown above","legacy","legacy","0","uniform","1","0","0","undefined","undefined","1","f","1","0","NA","0","0","0","0","0","0","0","0","0","45","45","45","0","0","0","0","0","1","0","0","0","1","45","45","45","45","45","Wed Jun 28 13:24:16 2017","Forced-choice identification task with a practice and an experimental phase","yes","NAP-FC_GER_AA_ver-1.osexp","/Users/aviadalbert/Documents/Academisch/UoC/Dissertation/Experiment/OpenSesame/NAP-FC/NAP-FC_GER_AA/GER_AA_ver-1","yes","no","sans","no","20","no","black","no","Next","yes","768","legacy","35","9","0","/Users/aviadalbert/Documents/Academisch/UoC/Dissertation/Experiment/OpenSesame/NAP-FC/NAP-FC_GER_AA/GER_AA_ver-1/subject-0.csv","xpyriment","Jazzy James","3.1.6","yes","yes","59504085b83f69022b47a751","595041f76c613b022ae3ecdb","no","no","0","f","j","space","NA","space","space","f","772","644","1540","NA","1362","297","772","2","legacy","1024","1","44100","-16","experiment","msal","","","None","None","None","","","0","even","","1057278","1055432","NA","1057923","1057274","NA","1021595","1057042","1021596","1021596","1027093","1028460","1150923","1149416","1151697","1030705","1029047","1055431","1024462","1026480","1053737","1028826","1057277","1029050","NA","1150923","1150923","NA","NA","1149411","NAP perception","34","29054","36","yes","1024"
"94.5945945946","yes","94.5945945946","810.864864865","810.864864865","white","no","xpyriment","I have read and understood the information shown above","legacy","legacy","0","uniform","1","0","0","undefined","undefined","1","f","1","0","NA","0","0","0","0","0","0","0","0","0","46","46","46","0","0","0","0","0","1","0","0","0","1","46","46","46","46","46","Wed Jun 28 13:24:16 2017","Forced-choice identification task with a practice and an experimental phase","yes","NAP-FC_GER_AA_ver-1.osexp","/Users/aviadalbert/Documents/Academisch/UoC/Dissertation/Experiment/OpenSesame/NAP-FC/NAP-FC_GER_AA/GER_AA_ver-1","yes","no","sans","no","20","no","black","no","Next","yes","768","legacy","36","9","0","/Users/aviadalbert/Documents/Academisch/UoC/Dissertation/Experiment/OpenSesame/NAP-FC/NAP-FC_GER_AA/GER_AA_ver-1/subject-0.csv","xpyriment","Jazzy James","3.1.6","yes","yes","59504085b83f69022b47a751","595041f76c613b022ae3ecdb","no","no","0","f","j","space","NA","space","space","f","948","644","1540","NA","1362","297","948","2","legacy","1024","1","44100","-16","experiment","mzal","","","None","None","None","","","0","even","","1057278","1055432","NA","1057923","1057274","NA","1021595","1057042","1021596","1021596","1027093","1028460","1153490","1151984","1154440","1030705","1029047","1055431","1024462","1026480","1053737","1028826","1057277","1029050","NA","1153489","1153489","NA","NA","1151980","NAP perception","35","30002","37","yes","1024"
"94.7368421053","yes","94.7368421053","804.947368421","804.947368421","white","no","xpyriment","I have read and understood the information shown above","legacy","legacy","0","uniform","1","0","0","undefined","undefined","1","j","1","0","NA","0","0","0","0","0","0","0","0","0","47","47","47","0","0","0","0","0","1","0","0","0","1","47","47","47","47","47","Wed Jun 28 13:24:16 2017","Forced-choice identification task with a practice and an experimental phase","yes","NAP-FC_GER_AA_ver-1.osexp","/Users/aviadalbert/Documents/Academisch/UoC/Dissertation/Experiment/OpenSesame/NAP-FC/NAP-FC_GER_AA/GER_AA_ver-1","yes","no","sans","no","20","no","black","no","Next","yes","768","legacy","37","9","0","/Users/aviadalbert/Documents/Academisch/UoC/Dissertation/Experiment/OpenSesame/NAP-FC/NAP-FC_GER_AA/GER_AA_ver-1/subject-0.csv","xpyriment","Jazzy James","3.1.6","yes","yes","59504085b83f69022b47a751","595041f76c613b022ae3ecdb","no","no","0","j","j","space","NA","space","space","j","586","644","1540","NA","1362","297","586","2","legacy","1024","1","44100","-16","experiment","eʃmal","","","None","None","None","","","0","even","","1057278","1055432","NA","1057923","1057274","NA","1021595","1057042","1021596","1021596","1027093","1028460","1156249","1154743","1156837","1030705","1029047","1055431","1024462","1026480","1053737","1028826","1057277","1029050","NA","1156249","1156249","NA","NA","1154739","NAP perception","36","30588","38","yes","1024"
"94.8717948718","yes","94.8717948718","826","826","white","no","xpyriment","I have read and understood the information shown above","legacy","legacy","0","uniform","1","0","0","undefined","undefined","1","f","1","0","NA","0","0","0","0","0","0","0","0","0","48","48","48","0","0","0","0","0","1","0","0","0","1","48","48","48","48","48","Wed Jun 28 13:24:16 2017","Forced-choice identification task with a practice and an experimental phase","yes","NAP-FC_GER_AA_ver-1.osexp","/Users/aviadalbert/Documents/Academisch/UoC/Dissertation/Experiment/OpenSesame/NAP-FC/NAP-FC_GER_AA/GER_AA_ver-1","yes","no","sans","no","20","no","black","no","Next","yes","768","legacy","38","9","0","/Users/aviadalbert/Documents/Academisch/UoC/Dissertation/Experiment/OpenSesame/NAP-FC/NAP-FC_GER_AA/GER_AA_ver-1/subject-0.csv","xpyriment","Jazzy James","3.1.6","yes","yes","59504085b83f69022b47a751","595041f76c613b022ae3ecdb","no","no","0","f","j","space","NA","space","space","f","1626","644","1540","NA","1362","297","1626","2","legacy","1024","1","44100","-16","experiment","wsal","","","None","None","None","","","0","even","","1057278","1055432","NA","1057923","1057274","NA","1021595","1057042","1021596","1021596","1027093","1028460","1158637","1157130","1160265","1030705","1029047","1055431","1024462","1026480","1053737","1028826","1057277","1029050","NA","1158637","1158637","NA","NA","1157126","NAP perception","37","32214","39","yes","1024"
"95","yes","95","832.5","832.5","white","no","xpyriment","I have read and understood the information shown above","legacy","legacy","0","uniform","1","0","0","undefined","undefined","1","j","1","0","NA","0","0","0","0","0","0","0","0","0","49","49","49","0","0","0","0","0","1","0","0","0","1","49","49","49","49","49","Wed Jun 28 13:24:16 2017","Forced-choice identification task with a practice and an experimental phase","yes","NAP-FC_GER_AA_ver-1.osexp","/Users/aviadalbert/Documents/Academisch/UoC/Dissertation/Experiment/OpenSesame/NAP-FC/NAP-FC_GER_AA/GER_AA_ver-1","yes","no","sans","no","20","no","black","no","Next","yes","768","legacy","39","9","0","/Users/aviadalbert/Documents/Academisch/UoC/Dissertation/Experiment/OpenSesame/NAP-FC/NAP-FC_GER_AA/GER_AA_ver-1/subject-0.csv","xpyriment","Jazzy James","3.1.6","yes","yes","59504085b83f69022b47a751","595041f76c613b022ae3ecdb","no","no","0","j","j","space","NA","space","space","j","1086","644","1540","NA","1362","297","1086","2","legacy","1024","1","44100","-16","experiment","eʃpal","","","None","None","None","","","0","even","","1057278","1055432","NA","1057923","1057274","NA","1021595","1057042","1021596","1021596","1027093","1028460","1162066","1160560","1163154","1030705","1029047","1055431","1024462","1026480","1053737","1028826","1057277","1029050","NA","1162065","1162066","NA","NA","1160556","NAP perception","38","33300","40","yes","1024"
"95.1219512195","yes","95.1219512195","828.658536585","828.658536585","white","no","xpyriment","I have read and understood the information shown above","legacy","legacy","0","uniform","1","0","0","undefined","undefined","1","f","1","0","NA","0","0","0","0","0","0","0","0","0","50","50","50","0","0","0","0","0","1","0","0","0","1","50","50","50","50","50","Wed Jun 28 13:24:16 2017","Forced-choice identification task with a practice and an experimental phase","yes","NAP-FC_GER_AA_ver-1.osexp","/Users/aviadalbert/Documents/Academisch/UoC/Dissertation/Experiment/OpenSesame/NAP-FC/NAP-FC_GER_AA/GER_AA_ver-1","yes","no","sans","no","20","no","black","no","Next","yes","768","legacy","40","9","0","/Users/aviadalbert/Documents/Academisch/UoC/Dissertation/Experiment/OpenSesame/NAP-FC/NAP-FC_GER_AA/GER_AA_ver-1/subject-0.csv","xpyriment","Jazzy James","3.1.6","yes","yes","59504085b83f69022b47a751","595041f76c613b022ae3ecdb","no","no","0","f","j","space","NA","space","space","f","675","644","1540","NA","1362","297","675","2","legacy","1024","1","44100","-16","experiment","wlal","","","None","None","None","","","0","even","","1057278","1055432","NA","1057923","1057274","NA","1021595","1057042","1021596","1021596","1027093","1028460","1164947","1163440","1165624","1030705","1029047","1055431","1024462","1026480","1053737","1028826","1057277","1029050","NA","1164946","1164946","NA","NA","1163437","NAP perception","39","33975","41","yes","1024"
"95.2380952381","yes","95.2380952381","823.571428571","823.571428571","white","no","xpyriment","I have read and understood the information shown above","legacy","legacy","0","uniform","1","0","0","undefined","undefined","1","j","1","0","NA","0","0","0","0","0","0","0","0","0","51","51","51","0","0","0","0","0","1","0","0","0","1","51","51","51","51","51","Wed Jun 28 13:24:16 2017","Forced-choice identification task with a practice and an experimental phase","yes","NAP-FC_GER_AA_ver-1.osexp","/Users/aviadalbert/Documents/Academisch/UoC/Dissertation/Experiment/OpenSesame/NAP-FC/NAP-FC_GER_AA/GER_AA_ver-1","yes","no","sans","no","20","no","black","no","Next","yes","768","legacy","41","9","0","/Users/aviadalbert/Documents/Academisch/UoC/Dissertation/Experiment/OpenSesame/NAP-FC/NAP-FC_GER_AA/GER_AA_ver-1/subject-0.csv","xpyriment","Jazzy James","3.1.6","yes","yes","59504085b83f69022b47a751","595041f76c613b022ae3ecdb","no","no","0","j","j","space","NA","space","space","j","615","644","1540","NA","1362","297","615","2","legacy","1024","1","44100","-16","experiment","elval","","","None","None","None","","","0","even","","1057278","1055432","NA","1057923","1057274","NA","1021595","1057042","1021596","1021596","1027093","1028460","1167416","1165910","1168033","1030705","1029047","1055431","1024462","1026480","1053737","1028826","1057277","1029050","NA","1167416","1167416","NA","NA","1165906","NAP perception","40","34590","42","yes","1024"
"95.3488372093","yes","95.3488372093","817.046511628","817.046511628","white","no","xpyriment","I have read and understood the information shown above","legacy","legacy","0","uniform","1","0","0","undefined","undefined","1","f","1","0","NA","0","0","0","0","0","0","0","0","0","52","52","52","0","0","0","0","0","1","0","0","0","1","52","52","52","52","52","Wed Jun 28 13:24:16 2017","Forced-choice identification task with a practice and an experimental phase","yes","NAP-FC_GER_AA_ver-1.osexp","/Users/aviadalbert/Documents/Academisch/UoC/Dissertation/Experiment/OpenSesame/NAP-FC/NAP-FC_GER_AA/GER_AA_ver-1","yes","no","sans","no","20","no","black","no","Next","yes","768","legacy","42","9","0","/Users/aviadalbert/Documents/Academisch/UoC/Dissertation/Experiment/OpenSesame/NAP-FC/NAP-FC_GER_AA/GER_AA_ver-1/subject-0.csv","xpyriment","Jazzy James","3.1.6","yes","yes","59504085b83f69022b47a751","595041f76c613b022ae3ecdb","no","no","0","f","j","space","NA","space","space","f","543","644","1540","NA","1362","297","543","2","legacy","1024","1","44100","-16","experiment","vnal","","","None","None","None","","","0","even","","1057278","1055432","NA","1057923","1057274","NA","1021595","1057042","1021596","1021596","1027093","1028460","1169832","1168325","1170377","1030705","1029047","1055431","1024462","1026480","1053737","1028826","1057277","1029050","NA","1169832","1169832","NA","NA","1168321","NAP perception","41","35133","43","yes","1024"
"95.4545454545","yes","95.4545454545","814.954545455","814.954545455","white","no","xpyriment","I have read and understood the information shown above","legacy","legacy","0","uniform","1","0","0","undefined","undefined","1","f","1","0","NA","0","0","0","0","0","0","0","0","0","53","53","53","0","0","0","0","0","1","0","0","0","1","53","53","53","53","53","Wed Jun 28 13:24:16 2017","Forced-choice identification task with a practice and an experimental phase","yes","NAP-FC_GER_AA_ver-1.osexp","/Users/aviadalbert/Documents/Academisch/UoC/Dissertation/Experiment/OpenSesame/NAP-FC/NAP-FC_GER_AA/GER_AA_ver-1","yes","no","sans","no","20","no","black","no","Next","yes","768","legacy","43","9","0","/Users/aviadalbert/Documents/Academisch/UoC/Dissertation/Experiment/OpenSesame/NAP-FC/NAP-FC_GER_AA/GER_AA_ver-1/subject-0.csv","xpyriment","Jazzy James","3.1.6","yes","yes","59504085b83f69022b47a751","595041f76c613b022ae3ecdb","no","no","0","f","j","space","NA","space","space","f","725","644","1540","NA","1362","297","725","2","legacy","1024","1","44100","-16","experiment","wnal","","","None","None","None","","","0","even","","1057278","1055432","NA","1057923","1057274","NA","1021595","1057042","1021596","1021596","1027093","1028460","1172185","1170679","1172911","1030705","1029047","1055431","1024462","1026480","1053737","1028826","1057277","1029050","NA","1172185","1172185","NA","NA","1170676","NAP perception","42","35858","44","yes","1024"
"95.5555555556","yes","95.5555555556","812.422222222","812.422222222","white","no","xpyriment","I have read and understood the information shown above","legacy","legacy","0","uniform","1","0","0","undefined","undefined","1","j","1","0","NA","0","0","0","0","0","0","0","0","0","54","54","54","0","0","0","0","0","1","0","0","0","1","54","54","54","54","54","Wed Jun 28 13:24:16 2017","Forced-choice identification task with a practice and an experimental phase","yes","NAP-FC_GER_AA_ver-1.osexp","/Users/aviadalbert/Documents/Academisch/UoC/Dissertation/Experiment/OpenSesame/NAP-FC/NAP-FC_GER_AA/GER_AA_ver-1","yes","no","sans","no","20","no","black","no","Next","yes","768","legacy","44","9","0","/Users/aviadalbert/Documents/Academisch/UoC/Dissertation/Experiment/OpenSesame/NAP-FC/NAP-FC_GER_AA/GER_AA_ver-1/subject-0.csv","xpyriment","Jazzy James","3.1.6","yes","yes","59504085b83f69022b47a751","595041f76c613b022ae3ecdb","no","no","0","j","j","space","NA","space","space","j","701","644","1540","NA","1362","297","701","2","legacy","1024","1","44100","-16","experiment","jefal","","","None","None","None","","","0","even","","1057278","1055432","NA","1057923","1057274","NA","1021595","1057042","1021596","1021596","1027093","1028460","1174700","1173193","1175404","1030705","1029047","1055431","1024462","1026480","1053737","1028826","1057277","1029050","NA","1174699","1174699","NA","NA","1173189","NAP perception","43","36559","45","yes","1024"
"95.652173913","yes","95.652173913","806.217391304","806.217391304","white","no","xpyriment","I have read and understood the information shown above","legacy","legacy","0","uniform","1","0","0","undefined","undefined","1","j","1","0","NA","0","0","0","0","0","0","0","0","0","55","55","55","0","0","0","0","0","1","0","0","0","1","55","55","55","55","55","Wed Jun 28 13:24:16 2017","Forced-choice identification task with a practice and an experimental phase","yes","NAP-FC_GER_AA_ver-1.osexp","/Users/aviadalbert/Documents/Academisch/UoC/Dissertation/Experiment/OpenSesame/NAP-FC/NAP-FC_GER_AA/GER_AA_ver-1","yes","no","sans","no","20","no","black","no","Next","yes","768","legacy","45","9","0","/Users/aviadalbert/Documents/Academisch/UoC/Dissertation/Experiment/OpenSesame/NAP-FC/NAP-FC_GER_AA/GER_AA_ver-1/subject-0.csv","xpyriment","Jazzy James","3.1.6","yes","yes","59504085b83f69022b47a751","595041f76c613b022ae3ecdb","no","no","0","j","j","space","NA","space","space","j","527","644","1540","NA","1362","297","527","2","legacy","1024","1","44100","-16","experiment","felal","","","None","None","None","","","0","even","","1057278","1055432","NA","1057923","1057274","NA","1021595","1057042","1021596","1021596","1027093","1028460","1177206","1175702","1177734","1030705","1029047","1055431","1024462","1026480","1053737","1028826","1057277","1029050","NA","1177206","1177206","NA","NA","1175698","NAP perception","44","37086","46","yes","1024"
"95.7446808511","yes","95.7446808511","799.957446809","799.957446809","white","no","xpyriment","I have read and understood the information shown above","legacy","legacy","0","uniform","1","0","0","undefined","undefined","1","f","1","0","NA","0","0","0","0","0","0","0","0","0","56","56","56","0","0","0","0","0","1","0","0","0","1","56","56","56","56","56","Wed Jun 28 13:24:16 2017","Forced-choice identification task with a practice and an experimental phase","yes","NAP-FC_GER_AA_ver-1.osexp","/Users/aviadalbert/Documents/Academisch/UoC/Dissertation/Experiment/OpenSesame/NAP-FC/NAP-FC_GER_AA/GER_AA_ver-1","yes","no","sans","no","20","no","black","no","Next","yes","768","legacy","46","9","0","/Users/aviadalbert/Documents/Academisch/UoC/Dissertation/Experiment/OpenSesame/NAP-FC/NAP-FC_GER_AA/GER_AA_ver-1/subject-0.csv","xpyriment","Jazzy James","3.1.6","yes","yes","59504085b83f69022b47a751","595041f76c613b022ae3ecdb","no","no","0","f","j","space","NA","space","space","f","512","644","1540","NA","1362","297","512","2","legacy","1024","1","44100","-16","experiment","vzal","","","None","None","None","","","0","even","","1057278","1055432","NA","1057923","1057274","NA","1021595","1057042","1021596","1021596","1027093","1028460","1179535","1178028","1180048","1030705","1029047","1055431","1024462","1026480","1053737","1028826","1057277","1029050","NA","1179535","1179535","NA","NA","1178024","NAP perception","45","37598","47","yes","1024"
"95.8333333333","yes","95.8333333333","794.770833333","794.770833333","white","no","xpyriment","I have read and understood the information shown above","legacy","legacy","0","uniform","1","0","0","undefined","undefined","1","j","1","0","NA","0","0","0","0","0","0","0","0","0","57","57","57","0","0","0","0","0","1","0","0","0","1","57","57","57","57","57","Wed Jun 28 13:24:16 2017","Forced-choice identification task with a practice and an experimental phase","yes","NAP-FC_GER_AA_ver-1.osexp","/Users/aviadalbert/Documents/Academisch/UoC/Dissertation/Experiment/OpenSesame/NAP-FC/NAP-FC_GER_AA/GER_AA_ver-1","yes","no","sans","no","20","no","black","no","Next","yes","768","legacy","47","9","0","/Users/aviadalbert/Documents/Academisch/UoC/Dissertation/Experiment/OpenSesame/NAP-FC/NAP-FC_GER_AA/GER_AA_ver-1/subject-0.csv","xpyriment","Jazzy James","3.1.6","yes","yes","59504085b83f69022b47a751","595041f76c613b022ae3ecdb","no","no","0","j","j","space","NA","space","space","j","551","644","1540","NA","1362","297","551","2","legacy","1024","1","44100","-16","experiment","emtal","","","None","None","None","","","0","even","","1057278","1055432","NA","1057923","1057274","NA","1021595","1057042","1021596","1021596","1027093","1028460","1181843","1180337","1182395","1030705","1029047","1055431","1024462","1026480","1053737","1028826","1057277","1029050","NA","1181842","1181842","NA","NA","1180333","NAP perception","46","38149","48","yes","1024"
"93.8775510204","yes","93.8775510204","787.428571429","787.428571429","white","no","xpyriment","I have read and understood the information shown above","legacy","legacy","0","uniform","0","0","0","undefined","undefined","0","f","1","0","NA","0","0","0","0","0","0","0","0","0","58","58","58","0","0","0","0","0","1","0","0","0","1","58","58","58","58","58","Wed Jun 28 13:24:16 2017","Forced-choice identification task with a practice and an experimental phase","yes","NAP-FC_GER_AA_ver-1.osexp","/Users/aviadalbert/Documents/Academisch/UoC/Dissertation/Experiment/OpenSesame/NAP-FC/NAP-FC_GER_AA/GER_AA_ver-1","yes","no","sans","no","20","no","black","no","Next","yes","768","legacy","48","9","0","/Users/aviadalbert/Documents/Academisch/UoC/Dissertation/Experiment/OpenSesame/NAP-FC/NAP-FC_GER_AA/GER_AA_ver-1/subject-0.csv","xpyriment","Jazzy James","3.1.6","yes","yes","59504085b83f69022b47a751","595041f76c613b022ae3ecdb","no","no","0","j","j","space","NA","space","space","j","435","644","1540","NA","1362","297","435","2","legacy","1024","1","44100","-16","experiment","zval","","","None","None","None","","","0","even","","1057278","1055432","NA","1057923","1057274","NA","1021595","1057042","1021596","1021596","1027093","1028460","1184190","1182685","1184626","1030705","1029047","1055431","1024462","1026480","1053737","1028826","1057277","1029050","NA","1184190","1184190","NA","NA","1182681","NAP perception","46","38584","49","yes","1024"
"94","yes","94","783.12","783.12","white","no","xpyriment","I have read and understood the information shown above","legacy","legacy","0","uniform","1","0","0","undefined","undefined","1","j","1","0","NA","0","0","0","0","0","0","0","0","0","59","59","59","0","0","0","0","0","1","0","0","0","1","59","59","59","59","59","Wed Jun 28 13:24:16 2017","Forced-choice identification task with a practice and an experimental phase","yes","NAP-FC_GER_AA_ver-1.osexp","/Users/aviadalbert/Documents/Academisch/UoC/Dissertation/Experiment/OpenSesame/NAP-FC/NAP-FC_GER_AA/GER_AA_ver-1","yes","no","sans","no","20","no","black","no","Next","yes","768","legacy","49","9","0","/Users/aviadalbert/Documents/Academisch/UoC/Dissertation/Experiment/OpenSesame/NAP-FC/NAP-FC_GER_AA/GER_AA_ver-1/subject-0.csv","xpyriment","Jazzy James","3.1.6","yes","yes","59504085b83f69022b47a751","595041f76c613b022ae3ecdb","no","no","0","j","j","space","NA","space","space","j","572","644","1540","NA","1362","297","572","2","legacy","1024","1","44100","-16","experiment","zemal","","","None","None","None","","","0","even","","1057278","1055432","NA","1057923","1057274","NA","1021595","1057042","1021596","1021596","1027093","1028460","1186425","1184919","1186998","1030705","1029047","1055431","1024462","1026480","1053737","1028826","1057277","1029050","NA","1186424","1186424","NA","NA","1184915","NAP perception","47","39156","50","yes","1024"
"94.1176470588","yes","94.1176470588","779.039215686","779.039215686","white","no","xpyriment","I have read and understood the information shown above","legacy","legacy","0","uniform","1","0","0","undefined","undefined","1","j","1","0","NA","0","0","0","0","0","0","0","0","0","60","60","60","0","0","0","0","0","1","0","0","0","1","60","60","60","60","60","Wed Jun 28 13:24:16 2017","Forced-choice identification task with a practice and an experimental phase","yes","NAP-FC_GER_AA_ver-1.osexp","/Users/aviadalbert/Documents/Academisch/UoC/Dissertation/Experiment/OpenSesame/NAP-FC/NAP-FC_GER_AA/GER_AA_ver-1","yes","no","sans","no","20","no","black","no","Next","yes","768","legacy","50","9","0","/Users/aviadalbert/Documents/Academisch/UoC/Dissertation/Experiment/OpenSesame/NAP-FC/NAP-FC_GER_AA/GER_AA_ver-1/subject-0.csv","xpyriment","Jazzy James","3.1.6","yes","yes","59504085b83f69022b47a751","595041f76c613b022ae3ecdb","no","no","0","j","j","space","NA","space","space","j","575","644","1540","NA","1362","297","575","2","legacy","1024","1","44100","-16","experiment","welal","","","None","None","None","","","0","even","","1057278","1055432","NA","1057923","1057274","NA","1021595","1057042","1021596","1021596","1027093","1028460","1188800","1187292","1189377","1030705","1029047","1055431","1024462","1026480","1053737","1028826","1057277","1029050","NA","1188799","1188800","NA","NA","1187288","NAP perception","48","39731","51","yes","1024"
"94.2307692308","yes","94.2307692308","773.961538462","773.961538462","white","no","xpyriment","I have read and understood the information shown above","legacy","legacy","0","uniform","1","0","0","undefined","undefined","1","j","1","0","NA","0","0","0","0","0","0","0","0","0","61","61","61","0","0","0","0","0","1","0","0","0","1","61","61","61","61","61","Wed Jun 28 13:24:16 2017","Forced-choice identification task with a practice and an experimental phase","yes","NAP-FC_GER_AA_ver-1.osexp","/Users/aviadalbert/Documents/Academisch/UoC/Dissertation/Experiment/OpenSesame/NAP-FC/NAP-FC_GER_AA/GER_AA_ver-1","yes","no","sans","no","20","no","black","no","Next","yes","768","legacy","51","9","0","/Users/aviadalbert/Documents/Academisch/UoC/Dissertation/Experiment/OpenSesame/NAP-FC/NAP-FC_GER_AA/GER_AA_ver-1/subject-0.csv","xpyriment","Jazzy James","3.1.6","yes","yes","59504085b83f69022b47a751","595041f76c613b022ae3ecdb","no","no","0","j","j","space","NA","space","space","j","515","644","1540","NA","1362","297","515","2","legacy","1024","1","44100","-16","experiment","mesal","","","None","None","None","","","0","even","","1057278","1055432","NA","1057923","1057274","NA","1021595","1057042","1021596","1021596","1027093","1028460","1191177","1189671","1191694","1030705","1029047","1055431","1024462","1026480","1053737","1028826","1057277","1029050","NA","1191177","1191177","NA","NA","1189667","NAP perception","49","40246","52","yes","1024"
"94.3396226415","yes","94.3396226415","769.433962264","769.433962264","white","no","xpyriment","I have read and understood the information shown above","legacy","legacy","0","uniform","1","0","0","undefined","undefined","1","f","1","0","NA","0","0","0","0","0","0","0","0","0","62","62","62","0","0","0","0","0","1","0","0","0","1","62","62","62","62","62","Wed Jun 28 13:24:16 2017","Forced-choice identification task with a practice and an experimental phase","yes","NAP-FC_GER_AA_ver-1.osexp","/Users/aviadalbert/Documents/Academisch/UoC/Dissertation/Experiment/OpenSesame/NAP-FC/NAP-FC_GER_AA/GER_AA_ver-1","yes","no","sans","no","20","no","black","no","Next","yes","768","legacy","52","9","0","/Users/aviadalbert/Documents/Academisch/UoC/Dissertation/Experiment/OpenSesame/NAP-FC/NAP-FC_GER_AA/GER_AA_ver-1/subject-0.csv","xpyriment","Jazzy James","3.1.6","yes","yes","59504085b83f69022b47a751","595041f76c613b022ae3ecdb","no","no","0","f","j","space","NA","space","space","f","534","644","1540","NA","1362","297","534","2","legacy","1024","1","44100","-16","experiment","ʃfal","","","None","None","None","","","0","even","","1057278","1055432","NA","1057923","1057274","NA","1021595","1057042","1021596","1021596","1027093","1028460","1193493","1191986","1194029","1030705","1029047","1055431","1024462","1026480","1053737","1028826","1057277","1029050","NA","1193493","1193493","NA","NA","1191982","NAP perception","50","40780","53","yes","1024"
"94.4444444444","yes","94.4444444444","765.518518519","765.518518519","white","no","xpyriment","I have read and understood the information shown above","legacy","legacy","0","uniform","1","0","0","undefined","undefined","1","f","1","0","NA","0","0","0","0","0","0","0","0","0","63","63","63","0","0","0","0","0","1","0","0","0","1","63","63","63","63","63","Wed Jun 28 13:24:16 2017","Forced-choice identification task with a practice and an experimental phase","yes","NAP-FC_GER_AA_ver-1.osexp","/Users/aviadalbert/Documents/Academisch/UoC/Dissertation/Experiment/OpenSesame/NAP-FC/NAP-FC_GER_AA/GER_AA_ver-1","yes","no","sans","no","20","no","black","no","Next","yes","768","legacy","53","9","0","/Users/aviadalbert/Documents/Academisch/UoC/Dissertation/Experiment/OpenSesame/NAP-FC/NAP-FC_GER_AA/GER_AA_ver-1/subject-0.csv","xpyriment","Jazzy James","3.1.6","yes","yes","59504085b83f69022b47a751","595041f76c613b022ae3ecdb","no","no","0","f","j","space","NA","space","space","f","558","644","1540","NA","1362","297","558","2","legacy","1024","1","44100","-16","experiment","ftal","","","None","None","None","","","0","even","","1057278","1055432","NA","1057923","1057274","NA","1021595","1057042","1021596","1021596","1027093","1028460","1195822","1194314","1196382","1030705","1029047","1055431","1024462","1026480","1053737","1028826","1057277","1029050","NA","1195821","1195822","NA","NA","1194310","NAP perception","51","41338","54","yes","1024"
"94.5454545455","yes","94.5454545455","762.309090909","762.309090909","white","no","xpyriment","I have read and understood the information shown above","legacy","legacy","0","uniform","1","0","0","undefined","undefined","1","f","1","0","NA","0","0","0","0","0","0","0","0","0","64","64","64","0","0","0","0","0","1","0","0","0","1","64","64","64","64","64","Wed Jun 28 13:24:16 2017","Forced-choice identification task with a practice and an experimental phase","yes","NAP-FC_GER_AA_ver-1.osexp","/Users/aviadalbert/Documents/Academisch/UoC/Dissertation/Experiment/OpenSesame/NAP-FC/NAP-FC_GER_AA/GER_AA_ver-1","yes","no","sans","no","20","no","black","no","Next","yes","768","legacy","54","9","0","/Users/aviadalbert/Documents/Academisch/UoC/Dissertation/Experiment/OpenSesame/NAP-FC/NAP-FC_GER_AA/GER_AA_ver-1/subject-0.csv","xpyriment","Jazzy James","3.1.6","yes","yes","59504085b83f69022b47a751","595041f76c613b022ae3ecdb","no","no","0","f","j","space","NA","space","space","f","589","644","1540","NA","1362","297","589","2","legacy","1024","1","44100","-16","experiment","ʃmal","","","None","None","None","","","0","even","","1057278","1055432","NA","1057923","1057274","NA","1021595","1057042","1021596","1021596","1027093","1028460","1198183","1196678","1198774","1030705","1029047","1055431","1024462","1026480","1053737","1028826","1057277","1029050","NA","1198183","1198183","NA","NA","1196674","NAP perception","52","41927","55","yes","1024"
"94.6428571429","yes","94.6428571429","763.660714286","763.660714286","white","no","xpyriment","I have read and understood the information shown above","legacy","legacy","0","uniform","1","0","0","undefined","undefined","1","j","1","0","NA","0","0","0","0","0","0","0","0","0","65","65","65","0","0","0","0","0","1","0","0","0","1","65","65","65","65","65","Wed Jun 28 13:24:16 2017","Forced-choice identification task with a practice and an experimental phase","yes","NAP-FC_GER_AA_ver-1.osexp","/Users/aviadalbert/Documents/Academisch/UoC/Dissertation/Experiment/OpenSesame/NAP-FC/NAP-FC_GER_AA/GER_AA_ver-1","yes","no","sans","no","20","no","black","no","Next","yes","768","legacy","55","9","0","/Users/aviadalbert/Documents/Academisch/UoC/Dissertation/Experiment/OpenSesame/NAP-FC/NAP-FC_GER_AA/GER_AA_ver-1/subject-0.csv","xpyriment","Jazzy James","3.1.6","yes","yes","59504085b83f69022b47a751","595041f76c613b022ae3ecdb","no","no","0","j","j","space","NA","space","space","j","838","644","1540","NA","1362","297","838","2","legacy","1024","1","44100","-16","experiment","menal","","","None","None","None","","","0","even","","1057278","1055432","NA","1057923","1057274","NA","1021595","1057042","1021596","1021596","1027093","1028460","1200573","1199067","1201413","1030705","1029047","1055431","1024462","1026480","1053737","1028826","1057277","1029050","NA","1200573","1200573","NA","NA","1199063","NAP perception","53","42765","56","yes","1024"
"94.7368421053","yes","94.7368421053","770.719298246","770.719298246","white","no","xpyriment","I have read and understood the information shown above","legacy","legacy","0","uniform","1","0","0","undefined","undefined","1","f","1","0","NA","0","0","0","0","0","0","0","0","0","66","66","66","0","0","0","0","0","1","0","0","0","1","66","66","66","66","66","Wed Jun 28 13:24:16 2017","Forced-choice identification task with a practice and an experimental phase","yes","NAP-FC_GER_AA_ver-1.osexp","/Users/aviadalbert/Documents/Academisch/UoC/Dissertation/Experiment/OpenSesame/NAP-FC/NAP-FC_GER_AA/GER_AA_ver-1","yes","no","sans","no","20","no","black","no","Next","yes","768","legacy","56","9","0","/Users/aviadalbert/Documents/Academisch/UoC/Dissertation/Experiment/OpenSesame/NAP-FC/NAP-FC_GER_AA/GER_AA_ver-1/subject-0.csv","xpyriment","Jazzy James","3.1.6","yes","yes","59504085b83f69022b47a751","595041f76c613b022ae3ecdb","no","no","0","f","j","space","NA","space","space","f","1166","644","1540","NA","1362","297","1166","2","legacy","1024","1","44100","-16","experiment","nmal","","","None","None","None","","","0","even","","1057278","1055432","NA","1057923","1057274","NA","1021595","1057042","1021596","1021596","1027093","1028460","1203219","1201714","1204387","1030705","1029047","1055431","1024462","1026480","1053737","1028826","1057277","1029050","NA","1203219","1203219","NA","NA","1201710","NAP perception","54","43931","57","yes","1024"
