"acc","accept_status","accuracy","average_response_time","avg_rt","background","bidi","canvas_backend","checkbox_status","clock_backend","color_backend","compensation","coordinates","correct","correct_block_activation","correct_block_exit","correct_instructions_1","correct_instructions_2","correct_keyboard_response","correct_response","count_block_activation","count_block_exit","count_block_info_QA","count_e_block_loop","count_e_block_sequence","count_end_of_experiment","count_experiment","count_experimental_loop","count_form_consent","count_info_forms","count_instructions_1","count_instructions_2","count_keyboard_response","count_listen_message","count_logger","count_p_block_loop","count_p_block_sequence","count_p_feedback","count_personal_details_form_1","count_personal_details_form_2","count_post_loop_blank","count_practice_loop","count_pre_e_block_message","count_pre_p_block_message","count_reset_feedback","count_stimulus_image","count_stimulus_sound","count_timeout_message","count_timeout_sound","count_trial_sequence","datetime","description","disable_garbage_collection","experiment_file","experiment_path","expyriment_opengl","font_bold","font_family","font_italic","font_size","font_underline","foreground","form_clicks","form_response","fullscreen","height","keyboard_backend","live_row","live_row_p_block_loop","live_row_practice_loop","logfile","mouse_backend","opensesame_codename","opensesame_version","osf_always_upload_data","osf_always_upload_experiment","osf_datanode_id","osf_id","practice","pygame_doublebuf","repeat_cycle","response","response_block_activation","response_block_exit","response_block_info_QA","response_instructions_1","response_instructions_2","response_keyboard_response","response_time","response_time_block_activation","response_time_block_exit","response_time_block_info_QA","response_time_instructions_1","response_time_instructions_2","response_time_keyboard_response","round_decimals","sampler_backend","sound_buf_size","sound_channels","sound_freq","sound_sample_size","start","stimulus","subject_age","subject_birth","subject_education","subject_gender","subject_handedness","subject_language_native","subject_language_other","subject_nr","subject_parity","subject_residence","time_block_activation","time_block_exit","time_block_info_QA","time_e_block_loop","time_e_block_sequence","time_end_of_experiment","time_experiment","time_experimental_loop","time_form_consent","time_info_forms","time_instructions_1","time_instructions_2","time_keyboard_response","time_listen_message","time_logger","time_p_block_loop","time_p_block_sequence","time_p_feedback","time_personal_details_form_1","time_personal_details_form_2","time_post_loop_blank","time_practice_loop","time_pre_e_block_message","time_pre_p_block_message","time_reset_feedback","time_stimulus_image","time_stimulus_sound","time_timeout_message","time_timeout_sound","time_trial_sequence","title","total_correct","total_response_time","total_responses","uniform_coordinates","width"
"100","yes","100","1826","1826","white","no","xpyriment","I have read and understood the information shown above","legacy","legacy","0","uniform","1","0","NA","undefined","undefined","1","f","0","0","NA","NA","NA","NA","0","0","0","0","0","0","0","0","0","0","0","NA","0","0","0","0","NA","0","0","0","0","0","0","0","Wed Jun 28 17:53:15 2017","Forced-choice identification task with a practice and an experimental phase","yes","NAP-FC_GER_AA_ver-1.osexp","/Users/aviadalbert/Documents/Academisch/UoC/Dissertation/Experiment/OpenSesame/NAP-FC/NAP-FC_GER_AA/GER_AA_ver-1","yes","no","sans","no","20","no","black","no","Next","yes","768","legacy","0","0","0","/Users/aviadalbert/Documents/Academisch/UoC/Dissertation/Experiment/OpenSesame/NAP-FC/NAP-FC_GER_AA/GER_AA_ver-1/subject-6.csv","xpyriment","Jazzy James","3.1.6","yes","yes","59504085b83f69022b47a751","595041f76c613b022ae3ecdb","yes","no","0","f","j","NA","NA","space","space","f","1826","13688","NA","NA","32325","15398","1826","2","legacy","1024","1","44100","-16","experiment","flal","23","Fuerstenfeldbruck","1","0","1","Deutsch","Englisch","6","even","Koeln","161717","NA","NA","NA","NA","NA","1611","NA","1612","1611","113688","146017","177128","175624","178955","175406","161713","NA","19510","91728","NA","161479","NA","161717","NA","177128","177128","NA","NA","175621","NAP perception","1","1826","1","yes","1024"
"100","yes","100","1830","1830","white","no","xpyriment","I have read and understood the information shown above","legacy","legacy","0","uniform","1","0","NA","undefined","undefined","1","j","0","0","NA","NA","NA","NA","0","0","0","0","0","0","1","1","1","0","0","NA","0","0","0","0","NA","0","0","1","1","1","1","1","Wed Jun 28 17:53:15 2017","Forced-choice identification task with a practice and an experimental phase","yes","NAP-FC_GER_AA_ver-1.osexp","/Users/aviadalbert/Documents/Academisch/UoC/Dissertation/Experiment/OpenSesame/NAP-FC/NAP-FC_GER_AA/GER_AA_ver-1","yes","no","sans","no","20","no","black","no","Next","yes","768","legacy","1","1","0","/Users/aviadalbert/Documents/Academisch/UoC/Dissertation/Experiment/OpenSesame/NAP-FC/NAP-FC_GER_AA/GER_AA_ver-1/subject-6.csv","xpyriment","Jazzy James","3.1.6","yes","yes","59504085b83f69022b47a751","595041f76c613b022ae3ecdb","yes","no","0","j","j","NA","NA","space","space","j","1834","13688","NA","NA","32325","15398","1834","2","legacy","1024","1","44100","-16","experiment","lepal","23","Fuerstenfeldbruck","1","0","1","Deutsch","Englisch","6","even","Koeln","161717","NA","NA","NA","NA","NA","1611","NA","1612","1611","113688","146017","180737","179234","182572","175406","161713","NA","19510","91728","NA","161479","NA","161717","NA","180737","180737","NA","NA","179230","NAP perception","2","3660","2","yes","1024"
"100","yes","100","2182.66666667","2182.66666667","white","no","xpyriment","I have read and understood the information shown above","legacy","legacy","0","uniform","1","0","NA","undefined","undefined","1","j","0","0","NA","NA","NA","NA","0","0","0","0","0","0","2","2","2","0","0","NA","0","0","0","0","NA","0","0","2","2","2","2","2","Wed Jun 28 17:53:15 2017","Forced-choice identification task with a practice and an experimental phase","yes","NAP-FC_GER_AA_ver-1.osexp","/Users/aviadalbert/Documents/Academisch/UoC/Dissertation/Experiment/OpenSesame/NAP-FC/NAP-FC_GER_AA/GER_AA_ver-1","yes","no","sans","no","20","no","black","no","Next","yes","768","legacy","2","2","0","/Users/aviadalbert/Documents/Academisch/UoC/Dissertation/Experiment/OpenSesame/NAP-FC/NAP-FC_GER_AA/GER_AA_ver-1/subject-6.csv","xpyriment","Jazzy James","3.1.6","yes","yes","59504085b83f69022b47a751","595041f76c613b022ae3ecdb","yes","no","0","j","j","NA","NA","space","space","j","2888","13688","NA","NA","32325","15398","2888","2","legacy","1024","1","44100","-16","experiment","emtal","23","Fuerstenfeldbruck","1","0","1","Deutsch","Englisch","6","even","Koeln","161717","NA","NA","NA","NA","NA","1611","NA","1612","1611","113688","146017","184358","182851","187247","175406","161713","NA","19510","91728","NA","161479","NA","161717","NA","184357","184358","NA","NA","182847","NAP perception","3","6548","3","yes","1024"
"100","yes","100","2310","2310","white","no","xpyriment","I have read and understood the information shown above","legacy","legacy","0","uniform","1","0","NA","undefined","undefined","1","f","0","0","NA","NA","NA","NA","0","0","0","0","0","0","3","3","3","0","0","NA","0","0","0","0","NA","0","0","3","3","3","3","3","Wed Jun 28 17:53:15 2017","Forced-choice identification task with a practice and an experimental phase","yes","NAP-FC_GER_AA_ver-1.osexp","/Users/aviadalbert/Documents/Academisch/UoC/Dissertation/Experiment/OpenSesame/NAP-FC/NAP-FC_GER_AA/GER_AA_ver-1","yes","no","sans","no","20","no","black","no","Next","yes","768","legacy","3","3","0","/Users/aviadalbert/Documents/Academisch/UoC/Dissertation/Experiment/OpenSesame/NAP-FC/NAP-FC_GER_AA/GER_AA_ver-1/subject-6.csv","xpyriment","Jazzy James","3.1.6","yes","yes","59504085b83f69022b47a751","595041f76c613b022ae3ecdb","yes","no","0","f","j","NA","NA","space","space","f","2692","13688","NA","NA","32325","15398","2692","2","legacy","1024","1","44100","-16","experiment","ʃpal","23","Fuerstenfeldbruck","1","0","1","Deutsch","Englisch","6","even","Koeln","161717","NA","NA","NA","NA","NA","1611","NA","1612","1611","113688","146017","189014","187511","191707","175406","161713","NA","19510","91728","NA","161479","NA","161717","NA","189014","189014","NA","NA","187507","NAP perception","4","9240","4","yes","1024"
"100","yes","100","2225.4","2225.4","white","no","xpyriment","I have read and understood the information shown above","legacy","legacy","0","uniform","1","0","NA","undefined","undefined","1","j","0","0","NA","NA","NA","NA","0","0","0","0","0","0","4","4","4","0","0","NA","0","0","0","0","NA","0","0","4","4","4","4","4","Wed Jun 28 17:53:15 2017","Forced-choice identification task with a practice and an experimental phase","yes","NAP-FC_GER_AA_ver-1.osexp","/Users/aviadalbert/Documents/Academisch/UoC/Dissertation/Experiment/OpenSesame/NAP-FC/NAP-FC_GER_AA/GER_AA_ver-1","yes","no","sans","no","20","no","black","no","Next","yes","768","legacy","4","4","0","/Users/aviadalbert/Documents/Academisch/UoC/Dissertation/Experiment/OpenSesame/NAP-FC/NAP-FC_GER_AA/GER_AA_ver-1/subject-6.csv","xpyriment","Jazzy James","3.1.6","yes","yes","59504085b83f69022b47a751","595041f76c613b022ae3ecdb","yes","no","0","j","j","NA","NA","space","space","j","1887","13688","NA","NA","32325","15398","1887","2","legacy","1024","1","44100","-16","experiment","nefal","23","Fuerstenfeldbruck","1","0","1","Deutsch","Englisch","6","even","Koeln","161717","NA","NA","NA","NA","NA","1611","NA","1612","1611","113688","146017","193492","191989","195380","175406","161713","NA","19510","91728","NA","161479","NA","161717","NA","193492","193492","NA","NA","191985","NAP perception","5","11127","5","yes","1024"
"100","yes","100","2229.83333333","2229.83333333","white","no","xpyriment","I have read and understood the information shown above","legacy","legacy","0","uniform","1","0","NA","undefined","undefined","1","f","0","0","NA","NA","NA","NA","0","0","0","0","0","0","5","5","5","0","0","NA","0","0","0","0","NA","0","0","5","5","5","5","5","Wed Jun 28 17:53:15 2017","Forced-choice identification task with a practice and an experimental phase","yes","NAP-FC_GER_AA_ver-1.osexp","/Users/aviadalbert/Documents/Academisch/UoC/Dissertation/Experiment/OpenSesame/NAP-FC/NAP-FC_GER_AA/GER_AA_ver-1","yes","no","sans","no","20","no","black","no","Next","yes","768","legacy","5","5","0","/Users/aviadalbert/Documents/Academisch/UoC/Dissertation/Experiment/OpenSesame/NAP-FC/NAP-FC_GER_AA/GER_AA_ver-1/subject-6.csv","xpyriment","Jazzy James","3.1.6","yes","yes","59504085b83f69022b47a751","595041f76c613b022ae3ecdb","yes","no","0","f","j","NA","NA","space","space","f","2252","13688","NA","NA","32325","15398","2252","2","legacy","1024","1","44100","-16","experiment","sfal","23","Fuerstenfeldbruck","1","0","1","Deutsch","Englisch","6","even","Koeln","161717","NA","NA","NA","NA","NA","1611","NA","1612","1611","113688","146017","197158","195654","199411","175406","161713","NA","19510","91728","NA","161479","NA","161717","NA","197158","197158","NA","NA","195650","NAP perception","6","13379","6","yes","1024"
"85.7142857143","yes","85.7142857143","2339.85714286","2339.85714286","white","no","xpyriment","I have read and understood the information shown above","legacy","legacy","0","uniform","0","0","NA","undefined","undefined","0","f","0","0","NA","NA","NA","NA","0","0","0","0","0","0","6","6","6","0","0","NA","0","0","0","0","NA","0","0","6","6","6","6","6","Wed Jun 28 17:53:15 2017","Forced-choice identification task with a practice and an experimental phase","yes","NAP-FC_GER_AA_ver-1.osexp","/Users/aviadalbert/Documents/Academisch/UoC/Dissertation/Experiment/OpenSesame/NAP-FC/NAP-FC_GER_AA/GER_AA_ver-1","yes","no","sans","no","20","no","black","no","Next","yes","768","legacy","6","6","0","/Users/aviadalbert/Documents/Academisch/UoC/Dissertation/Experiment/OpenSesame/NAP-FC/NAP-FC_GER_AA/GER_AA_ver-1/subject-6.csv","xpyriment","Jazzy James","3.1.6","yes","yes","59504085b83f69022b47a751","595041f76c613b022ae3ecdb","yes","no","0","None","j","NA","NA","space","space","None","3000","13688","NA","NA","32325","15398","3000","2","legacy","1024","1","44100","-16","experiment","zmal","23","Fuerstenfeldbruck","1","0","1","Deutsch","Englisch","6","even","Koeln","161717","NA","NA","NA","NA","NA","1611","NA","1612","1611","113688","146017","201185","199682","205188","175406","161713","NA","19510","91728","NA","161479","NA","161717","NA","201185","201185","204188","204185","199678","NAP perception","6","16379","7","yes","1024"
"87.5","yes","87.5","2290.25","2290.25","white","no","xpyriment","I have read and understood the information shown above","legacy","legacy","0","uniform","1","0","NA","undefined","undefined","1","j","0","0","NA","NA","NA","NA","0","0","0","0","0","0","7","7","7","0","0","NA","0","0","0","0","NA","0","0","7","7","7","7","7","Wed Jun 28 17:53:15 2017","Forced-choice identification task with a practice and an experimental phase","yes","NAP-FC_GER_AA_ver-1.osexp","/Users/aviadalbert/Documents/Academisch/UoC/Dissertation/Experiment/OpenSesame/NAP-FC/NAP-FC_GER_AA/GER_AA_ver-1","yes","no","sans","no","20","no","black","no","Next","yes","768","legacy","7","7","0","/Users/aviadalbert/Documents/Academisch/UoC/Dissertation/Experiment/OpenSesame/NAP-FC/NAP-FC_GER_AA/GER_AA_ver-1/subject-6.csv","xpyriment","Jazzy James","3.1.6","yes","yes","59504085b83f69022b47a751","595041f76c613b022ae3ecdb","yes","no","0","j","j","NA","NA","space","space","j","1943","13688","NA","NA","32325","15398","1943","2","legacy","1024","1","44100","-16","experiment","jeval","23","Fuerstenfeldbruck","1","0","1","Deutsch","Englisch","6","even","Koeln","161717","NA","NA","NA","NA","NA","1611","NA","1612","1611","113688","146017","206945","205440","208889","175406","161713","NA","19510","91728","NA","161479","NA","161717","NA","206945","206945","204188","204185","205435","NAP perception","7","18322","8","yes","1024"
"77.7777777778","yes","77.7777777778","2209.77777778","2209.77777778","white","no","xpyriment","I have read and understood the information shown above","legacy","legacy","0","uniform","0","0","NA","undefined","undefined","0","j","0","0","NA","NA","NA","NA","0","0","0","0","0","0","8","8","8","0","0","NA","0","0","0","0","NA","0","0","8","8","8","8","8","Wed Jun 28 17:53:15 2017","Forced-choice identification task with a practice and an experimental phase","yes","NAP-FC_GER_AA_ver-1.osexp","/Users/aviadalbert/Documents/Academisch/UoC/Dissertation/Experiment/OpenSesame/NAP-FC/NAP-FC_GER_AA/GER_AA_ver-1","yes","no","sans","no","20","no","black","no","Next","yes","768","legacy","8","8","0","/Users/aviadalbert/Documents/Academisch/UoC/Dissertation/Experiment/OpenSesame/NAP-FC/NAP-FC_GER_AA/GER_AA_ver-1/subject-6.csv","xpyriment","Jazzy James","3.1.6","yes","yes","59504085b83f69022b47a751","595041f76c613b022ae3ecdb","yes","no","0","f","j","NA","NA","space","space","f","1566","13688","NA","NA","32325","15398","1566","2","legacy","1024","1","44100","-16","experiment","enval","23","Fuerstenfeldbruck","1","0","1","Deutsch","Englisch","6","even","Koeln","161717","NA","NA","NA","NA","NA","1611","NA","1612","1611","113688","146017","210647","209143","212214","175406","161713","NA","19510","91728","NA","161479","NA","161717","NA","210647","210647","204188","204185","209139","NAP perception","7","19888","9","yes","1024"
"80","yes","80","2206","2206","white","no","xpyriment","I have read and understood the information shown above","legacy","legacy","0","uniform","1","0","NA","undefined","undefined","1","f","0","0","NA","NA","NA","NA","0","0","0","0","0","0","9","9","9","0","0","NA","0","0","0","0","NA","0","0","9","9","9","9","9","Wed Jun 28 17:53:15 2017","Forced-choice identification task with a practice and an experimental phase","yes","NAP-FC_GER_AA_ver-1.osexp","/Users/aviadalbert/Documents/Academisch/UoC/Dissertation/Experiment/OpenSesame/NAP-FC/NAP-FC_GER_AA/GER_AA_ver-1","yes","no","sans","no","20","no","black","no","Next","yes","768","legacy","9","9","0","/Users/aviadalbert/Documents/Academisch/UoC/Dissertation/Experiment/OpenSesame/NAP-FC/NAP-FC_GER_AA/GER_AA_ver-1/subject-6.csv","xpyriment","Jazzy James","3.1.6","yes","yes","59504085b83f69022b47a751","595041f76c613b022ae3ecdb","yes","no","0","f","j","NA","NA","space","space","f","2172","13688","NA","NA","32325","15398","2172","2","legacy","1024","1","44100","-16","experiment","vlal","23","Fuerstenfeldbruck","1","0","1","Deutsch","Englisch","6","even","Koeln","161717","NA","NA","NA","NA","NA","1611","NA","1612","1611","113688","146017","213987","212480","216160","175406","161713","NA","19510","91728","NA","161479","NA","161717","NA","213987","213987","204188","204185","212476","NAP perception","8","22060","10","yes","1024"
"0","yes","0","1658","1658","white","no","xpyriment","I have read and understood the information shown above","legacy","legacy","0","uniform","0","0","0","undefined","undefined","0","f","1","0","NA","0","0","0","0","0","0","0","0","0","10","10","10","0","0","0","0","0","1","0","0","0","1","10","10","10","10","10","Wed Jun 28 17:53:15 2017","Forced-choice identification task with a practice and an experimental phase","yes","NAP-FC_GER_AA_ver-1.osexp","/Users/aviadalbert/Documents/Academisch/UoC/Dissertation/Experiment/OpenSesame/NAP-FC/NAP-FC_GER_AA/GER_AA_ver-1","yes","no","sans","no","20","no","black","no","Next","yes","768","legacy","0","9","0","/Users/aviadalbert/Documents/Academisch/UoC/Dissertation/Experiment/OpenSesame/NAP-FC/NAP-FC_GER_AA/GER_AA_ver-1/subject-6.csv","xpyriment","Jazzy James","3.1.6","yes","yes","59504085b83f69022b47a751","595041f76c613b022ae3ecdb","no","no","0","j","f","space","NA","space","space","j","1658","3764","15045","NA","32325","15398","1658","2","legacy","1024","1","44100","-16","experiment","wlal","23","Fuerstenfeldbruck","1","0","1","Deutsch","Englisch","6","even","Koeln","233226","217892","NA","236991","233222","NA","1611","232995","1612","1611","113688","146017","238694","237187","240353","175406","161713","217892","19510","91728","216220","161479","233226","161717","NA","238694","238694","204188","204185","237184","NAP perception","0","1658","1","yes","1024"
"50","yes","50","1367","1367","white","no","xpyriment","I have read and understood the information shown above","legacy","legacy","0","uniform","1","0","0","undefined","undefined","1","f","1","0","NA","0","0","0","0","0","0","0","0","0","11","11","11","0","0","0","0","0","1","0","0","0","1","11","11","11","11","11","Wed Jun 28 17:53:15 2017","Forced-choice identification task with a practice and an experimental phase","yes","NAP-FC_GER_AA_ver-1.osexp","/Users/aviadalbert/Documents/Academisch/UoC/Dissertation/Experiment/OpenSesame/NAP-FC/NAP-FC_GER_AA/GER_AA_ver-1","yes","no","sans","no","20","no","black","no","Next","yes","768","legacy","1","9","0","/Users/aviadalbert/Documents/Academisch/UoC/Dissertation/Experiment/OpenSesame/NAP-FC/NAP-FC_GER_AA/GER_AA_ver-1/subject-6.csv","xpyriment","Jazzy James","3.1.6","yes","yes","59504085b83f69022b47a751","595041f76c613b022ae3ecdb","no","no","0","f","f","space","NA","space","space","f","1076","3764","15045","NA","32325","15398","1076","2","legacy","1024","1","44100","-16","experiment","mnal","23","Fuerstenfeldbruck","1","0","1","Deutsch","Englisch","6","even","Koeln","233226","217892","NA","236991","233222","NA","1611","232995","1612","1611","113688","146017","242154","240647","243231","175406","161713","217892","19510","91728","216220","161479","233226","161717","NA","242153","242153","204188","204185","240643","NAP perception","1","2734","2","yes","1024"
"66.6666666667","yes","66.6666666667","1463","1463","white","no","xpyriment","I have read and understood the information shown above","legacy","legacy","0","uniform","1","0","0","undefined","undefined","1","j","1","0","NA","0","0","0","0","0","0","0","0","0","12","12","12","0","0","0","0","0","1","0","0","0","1","12","12","12","12","12","Wed Jun 28 17:53:15 2017","Forced-choice identification task with a practice and an experimental phase","yes","NAP-FC_GER_AA_ver-1.osexp","/Users/aviadalbert/Documents/Academisch/UoC/Dissertation/Experiment/OpenSesame/NAP-FC/NAP-FC_GER_AA/GER_AA_ver-1","yes","no","sans","no","20","no","black","no","Next","yes","768","legacy","2","9","0","/Users/aviadalbert/Documents/Academisch/UoC/Dissertation/Experiment/OpenSesame/NAP-FC/NAP-FC_GER_AA/GER_AA_ver-1/subject-6.csv","xpyriment","Jazzy James","3.1.6","yes","yes","59504085b83f69022b47a751","595041f76c613b022ae3ecdb","no","no","0","j","f","space","NA","space","space","j","1655","3764","15045","NA","32325","15398","1655","2","legacy","1024","1","44100","-16","experiment","emtal","23","Fuerstenfeldbruck","1","0","1","Deutsch","Englisch","6","even","Koeln","233226","217892","NA","236991","233222","NA","1611","232995","1612","1611","113688","146017","245011","243507","246667","175406","161713","217892","19510","91728","216220","161479","233226","161717","NA","245011","245011","204188","204185","243503","NAP perception","2","4389","3","yes","1024"
"50","yes","50","1400.5","1400.5","white","no","xpyriment","I have read and understood the information shown above","legacy","legacy","0","uniform","0","0","0","undefined","undefined","0","f","1","0","NA","0","0","0","0","0","0","0","0","0","13","13","13","0","0","0","0","0","1","0","0","0","1","13","13","13","13","13","Wed Jun 28 17:53:15 2017","Forced-choice identification task with a practice and an experimental phase","yes","NAP-FC_GER_AA_ver-1.osexp","/Users/aviadalbert/Documents/Academisch/UoC/Dissertation/Experiment/OpenSesame/NAP-FC/NAP-FC_GER_AA/GER_AA_ver-1","yes","no","sans","no","20","no","black","no","Next","yes","768","legacy","3","9","0","/Users/aviadalbert/Documents/Academisch/UoC/Dissertation/Experiment/OpenSesame/NAP-FC/NAP-FC_GER_AA/GER_AA_ver-1/subject-6.csv","xpyriment","Jazzy James","3.1.6","yes","yes","59504085b83f69022b47a751","595041f76c613b022ae3ecdb","no","no","0","j","f","space","NA","space","space","j","1213","3764","15045","NA","32325","15398","1213","2","legacy","1024","1","44100","-16","experiment","lval","23","Fuerstenfeldbruck","1","0","1","Deutsch","Englisch","6","even","Koeln","233226","217892","NA","236991","233222","NA","1611","232995","1612","1611","113688","146017","248444","246941","249658","175406","161713","217892","19510","91728","216220","161479","233226","161717","NA","248444","248444","204188","204185","246937","NAP perception","2","5602","4","yes","1024"
"60","yes","60","1509","1509","white","no","xpyriment","I have read and understood the information shown above","legacy","legacy","0","uniform","1","0","0","undefined","undefined","1","f","1","0","NA","0","0","0","0","0","0","0","0","0","14","14","14","0","0","0","0","0","1","0","0","0","1","14","14","14","14","14","Wed Jun 28 17:53:15 2017","Forced-choice identification task with a practice and an experimental phase","yes","NAP-FC_GER_AA_ver-1.osexp","/Users/aviadalbert/Documents/Academisch/UoC/Dissertation/Experiment/OpenSesame/NAP-FC/NAP-FC_GER_AA/GER_AA_ver-1","yes","no","sans","no","20","no","black","no","Next","yes","768","legacy","4","9","0","/Users/aviadalbert/Documents/Academisch/UoC/Dissertation/Experiment/OpenSesame/NAP-FC/NAP-FC_GER_AA/GER_AA_ver-1/subject-6.csv","xpyriment","Jazzy James","3.1.6","yes","yes","59504085b83f69022b47a751","595041f76c613b022ae3ecdb","no","no","0","f","f","space","NA","space","space","f","1943","3764","15045","NA","32325","15398","1943","2","legacy","1024","1","44100","-16","experiment","fnal","23","Fuerstenfeldbruck","1","0","1","Deutsch","Englisch","6","even","Koeln","233226","217892","NA","236991","233222","NA","1611","232995","1612","1611","113688","146017","251424","249919","253368","175406","161713","217892","19510","91728","216220","161479","233226","161717","NA","251424","251424","204188","204185","249916","NAP perception","3","7545","5","yes","1024"
"50","yes","50","1541.66666667","1541.66666667","white","no","xpyriment","I have read and understood the information shown above","legacy","legacy","0","uniform","0","0","0","undefined","undefined","0","j","1","0","NA","0","0","0","0","0","0","0","0","0","15","15","15","0","0","0","0","0","1","0","0","0","1","15","15","15","15","15","Wed Jun 28 17:53:15 2017","Forced-choice identification task with a practice and an experimental phase","yes","NAP-FC_GER_AA_ver-1.osexp","/Users/aviadalbert/Documents/Academisch/UoC/Dissertation/Experiment/OpenSesame/NAP-FC/NAP-FC_GER_AA/GER_AA_ver-1","yes","no","sans","no","20","no","black","no","Next","yes","768","legacy","5","9","0","/Users/aviadalbert/Documents/Academisch/UoC/Dissertation/Experiment/OpenSesame/NAP-FC/NAP-FC_GER_AA/GER_AA_ver-1/subject-6.csv","xpyriment","Jazzy James","3.1.6","yes","yes","59504085b83f69022b47a751","595041f76c613b022ae3ecdb","no","no","0","f","f","space","NA","space","space","f","1705","3764","15045","NA","32325","15398","1705","2","legacy","1024","1","44100","-16","experiment","efnal","23","Fuerstenfeldbruck","1","0","1","Deutsch","Englisch","6","even","Koeln","233226","217892","NA","236991","233222","NA","1611","232995","1612","1611","113688","146017","255143","253637","256850","175406","161713","217892","19510","91728","216220","161479","233226","161717","NA","255143","255143","204188","204185","253633","NAP perception","3","9250","6","yes","1024"
"42.8571428571","yes","42.8571428571","1556.42857143","1556.42857143","white","no","xpyriment","I have read and understood the information shown above","legacy","legacy","0","uniform","0","0","0","undefined","undefined","0","f","1","0","NA","0","0","0","0","0","0","0","0","0","16","16","16","0","0","0","0","0","1","0","0","0","1","16","16","16","16","16","Wed Jun 28 17:53:15 2017","Forced-choice identification task with a practice and an experimental phase","yes","NAP-FC_GER_AA_ver-1.osexp","/Users/aviadalbert/Documents/Academisch/UoC/Dissertation/Experiment/OpenSesame/NAP-FC/NAP-FC_GER_AA/GER_AA_ver-1","yes","no","sans","no","20","no","black","no","Next","yes","768","legacy","6","9","0","/Users/aviadalbert/Documents/Academisch/UoC/Dissertation/Experiment/OpenSesame/NAP-FC/NAP-FC_GER_AA/GER_AA_ver-1/subject-6.csv","xpyriment","Jazzy James","3.1.6","yes","yes","59504085b83f69022b47a751","595041f76c613b022ae3ecdb","no","no","0","j","f","space","NA","space","space","j","1645","3764","15045","NA","32325","15398","1645","2","legacy","1024","1","44100","-16","experiment","wsal","23","Fuerstenfeldbruck","1","0","1","Deutsch","Englisch","6","even","Koeln","233226","217892","NA","236991","233222","NA","1611","232995","1612","1611","113688","146017","258619","257113","260265","175406","161713","217892","19510","91728","216220","161479","233226","161717","NA","258619","258619","204188","204185","257109","NAP perception","3","10895","7","yes","1024"
"50","yes","50","1519.75","1519.75","white","no","xpyriment","I have read and understood the information shown above","legacy","legacy","0","uniform","1","0","0","undefined","undefined","1","j","1","0","NA","0","0","0","0","0","0","0","0","0","17","17","17","0","0","0","0","0","1","0","0","0","1","17","17","17","17","17","Wed Jun 28 17:53:15 2017","Forced-choice identification task with a practice and an experimental phase","yes","NAP-FC_GER_AA_ver-1.osexp","/Users/aviadalbert/Documents/Academisch/UoC/Dissertation/Experiment/OpenSesame/NAP-FC/NAP-FC_GER_AA/GER_AA_ver-1","yes","no","sans","no","20","no","black","no","Next","yes","768","legacy","7","9","0","/Users/aviadalbert/Documents/Academisch/UoC/Dissertation/Experiment/OpenSesame/NAP-FC/NAP-FC_GER_AA/GER_AA_ver-1/subject-6.csv","xpyriment","Jazzy James","3.1.6","yes","yes","59504085b83f69022b47a751","595041f76c613b022ae3ecdb","no","no","0","j","f","space","NA","space","space","j","1263","3764","15045","NA","32325","15398","1263","2","legacy","1024","1","44100","-16","experiment","vezal","23","Fuerstenfeldbruck","1","0","1","Deutsch","Englisch","6","even","Koeln","233226","217892","NA","236991","233222","NA","1611","232995","1612","1611","113688","146017","262034","260529","263299","175406","161713","217892","19510","91728","216220","161479","233226","161717","NA","262033","262033","204188","204185","260525","NAP perception","4","12158","8","yes","1024"
"55.5555555556","yes","55.5555555556","1494.33333333","1494.33333333","white","no","xpyriment","I have read and understood the information shown above","legacy","legacy","0","uniform","1","0","0","undefined","undefined","1","j","1","0","NA","0","0","0","0","0","0","0","0","0","18","18","18","0","0","0","0","0","1","0","0","0","1","18","18","18","18","18","Wed Jun 28 17:53:15 2017","Forced-choice identification task with a practice and an experimental phase","yes","NAP-FC_GER_AA_ver-1.osexp","/Users/aviadalbert/Documents/Academisch/UoC/Dissertation/Experiment/OpenSesame/NAP-FC/NAP-FC_GER_AA/GER_AA_ver-1","yes","no","sans","no","20","no","black","no","Next","yes","768","legacy","8","9","0","/Users/aviadalbert/Documents/Academisch/UoC/Dissertation/Experiment/OpenSesame/NAP-FC/NAP-FC_GER_AA/GER_AA_ver-1/subject-6.csv","xpyriment","Jazzy James","3.1.6","yes","yes","59504085b83f69022b47a751","595041f76c613b022ae3ecdb","no","no","0","j","f","space","NA","space","space","j","1291","3764","15045","NA","32325","15398","1291","2","legacy","1024","1","44100","-16","experiment","fesal","23","Fuerstenfeldbruck","1","0","1","Deutsch","Englisch","6","even","Koeln","233226","217892","NA","236991","233222","NA","1611","232995","1612","1611","113688","146017","265068","263563","266360","175406","161713","217892","19510","91728","216220","161479","233226","161717","NA","265068","265068","204188","204185","263559","NAP perception","5","13449","9","yes","1024"
"60","yes","60","1472.1","1472.1","white","no","xpyriment","I have read and understood the information shown above","legacy","legacy","0","uniform","1","0","0","undefined","undefined","1","j","1","0","NA","0","0","0","0","0","0","0","0","0","19","19","19","0","0","0","0","0","1","0","0","0","1","19","19","19","19","19","Wed Jun 28 17:53:15 2017","Forced-choice identification task with a practice and an experimental phase","yes","NAP-FC_GER_AA_ver-1.osexp","/Users/aviadalbert/Documents/Academisch/UoC/Dissertation/Experiment/OpenSesame/NAP-FC/NAP-FC_GER_AA/GER_AA_ver-1","yes","no","sans","no","20","no","black","no","Next","yes","768","legacy","9","9","0","/Users/aviadalbert/Documents/Academisch/UoC/Dissertation/Experiment/OpenSesame/NAP-FC/NAP-FC_GER_AA/GER_AA_ver-1/subject-6.csv","xpyriment","Jazzy James","3.1.6","yes","yes","59504085b83f69022b47a751","595041f76c613b022ae3ecdb","no","no","0","j","f","space","NA","space","space","j","1272","3764","15045","NA","32325","15398","1272","2","legacy","1024","1","44100","-16","experiment","lefal","23","Fuerstenfeldbruck","1","0","1","Deutsch","Englisch","6","even","Koeln","233226","217892","NA","236991","233222","NA","1611","232995","1612","1611","113688","146017","268121","266618","269394","175406","161713","217892","19510","91728","216220","161479","233226","161717","NA","268121","268121","204188","204185","266614","NAP perception","6","14721","10","yes","1024"
"63.6363636364","yes","63.6363636364","1437.72727273","1437.72727273","white","no","xpyriment","I have read and understood the information shown above","legacy","legacy","0","uniform","1","0","0","undefined","undefined","1","j","1","0","NA","0","0","0","0","0","0","0","0","0","20","20","20","0","0","0","0","0","1","0","0","0","1","20","20","20","20","20","Wed Jun 28 17:53:15 2017","Forced-choice identification task with a practice and an experimental phase","yes","NAP-FC_GER_AA_ver-1.osexp","/Users/aviadalbert/Documents/Academisch/UoC/Dissertation/Experiment/OpenSesame/NAP-FC/NAP-FC_GER_AA/GER_AA_ver-1","yes","no","sans","no","20","no","black","no","Next","yes","768","legacy","10","9","0","/Users/aviadalbert/Documents/Academisch/UoC/Dissertation/Experiment/OpenSesame/NAP-FC/NAP-FC_GER_AA/GER_AA_ver-1/subject-6.csv","xpyriment","Jazzy James","3.1.6","yes","yes","59504085b83f69022b47a751","595041f76c613b022ae3ecdb","no","no","0","j","f","space","NA","space","space","j","1094","3764","15045","NA","32325","15398","1094","2","legacy","1024","1","44100","-16","experiment","enmal","23","Fuerstenfeldbruck","1","0","1","Deutsch","Englisch","6","even","Koeln","233226","217892","NA","236991","233222","NA","1611","232995","1612","1611","113688","146017","271170","269667","272265","175406","161713","217892","19510","91728","216220","161479","233226","161717","NA","271170","271170","204188","204185","269663","NAP perception","7","15815","11","yes","1024"
"58.3333333333","yes","58.3333333333","1416.83333333","1416.83333333","white","no","xpyriment","I have read and understood the information shown above","legacy","legacy","0","uniform","0","0","0","undefined","undefined","0","f","1","0","NA","0","0","0","0","0","0","0","0","0","21","21","21","0","0","0","0","0","1","0","0","0","1","21","21","21","21","21","Wed Jun 28 17:53:15 2017","Forced-choice identification task with a practice and an experimental phase","yes","NAP-FC_GER_AA_ver-1.osexp","/Users/aviadalbert/Documents/Academisch/UoC/Dissertation/Experiment/OpenSesame/NAP-FC/NAP-FC_GER_AA/GER_AA_ver-1","yes","no","sans","no","20","no","black","no","Next","yes","768","legacy","11","9","0","/Users/aviadalbert/Documents/Academisch/UoC/Dissertation/Experiment/OpenSesame/NAP-FC/NAP-FC_GER_AA/GER_AA_ver-1/subject-6.csv","xpyriment","Jazzy James","3.1.6","yes","yes","59504085b83f69022b47a751","595041f76c613b022ae3ecdb","no","no","0","j","f","space","NA","space","space","j","1187","3764","15045","NA","32325","15398","1187","2","legacy","1024","1","44100","-16","experiment","jmal","23","Fuerstenfeldbruck","1","0","1","Deutsch","Englisch","6","even","Koeln","233226","217892","NA","236991","233222","NA","1611","232995","1612","1611","113688","146017","274030","272523","275218","175406","161713","217892","19510","91728","216220","161479","233226","161717","NA","274030","274030","204188","204185","272519","NAP perception","7","17002","12","yes","1024"
"61.5384615385","yes","61.5384615385","1461","1461","white","no","xpyriment","I have read and understood the information shown above","legacy","legacy","0","uniform","1","0","0","undefined","undefined","1","j","1","0","NA","0","0","0","0","0","0","0","0","0","22","22","22","0","0","0","0","0","1","0","0","0","1","22","22","22","22","22","Wed Jun 28 17:53:15 2017","Forced-choice identification task with a practice and an experimental phase","yes","NAP-FC_GER_AA_ver-1.osexp","/Users/aviadalbert/Documents/Academisch/UoC/Dissertation/Experiment/OpenSesame/NAP-FC/NAP-FC_GER_AA/GER_AA_ver-1","yes","no","sans","no","20","no","black","no","Next","yes","768","legacy","12","9","0","/Users/aviadalbert/Documents/Academisch/UoC/Dissertation/Experiment/OpenSesame/NAP-FC/NAP-FC_GER_AA/GER_AA_ver-1/subject-6.csv","xpyriment","Jazzy James","3.1.6","yes","yes","59504085b83f69022b47a751","595041f76c613b022ae3ecdb","no","no","0","j","f","space","NA","space","space","j","1991","3764","15045","NA","32325","15398","1991","2","legacy","1024","1","44100","-16","experiment","jepal","23","Fuerstenfeldbruck","1","0","1","Deutsch","Englisch","6","even","Koeln","233226","217892","NA","236991","233222","NA","1611","232995","1612","1611","113688","146017","276988","275484","278981","175406","161713","217892","19510","91728","216220","161479","233226","161717","NA","276988","276988","204188","204185","275481","NAP perception","8","18993","13","yes","1024"
"64.2857142857","yes","64.2857142857","1434.28571429","1434.28571429","white","no","xpyriment","I have read and understood the information shown above","legacy","legacy","0","uniform","1","0","0","undefined","undefined","1","j","1","0","NA","0","0","0","0","0","0","0","0","0","23","23","23","0","0","0","0","0","1","0","0","0","1","23","23","23","23","23","Wed Jun 28 17:53:15 2017","Forced-choice identification task with a practice and an experimental phase","yes","NAP-FC_GER_AA_ver-1.osexp","/Users/aviadalbert/Documents/Academisch/UoC/Dissertation/Experiment/OpenSesame/NAP-FC/NAP-FC_GER_AA/GER_AA_ver-1","yes","no","sans","no","20","no","black","no","Next","yes","768","legacy","13","9","0","/Users/aviadalbert/Documents/Academisch/UoC/Dissertation/Experiment/OpenSesame/NAP-FC/NAP-FC_GER_AA/GER_AA_ver-1/subject-6.csv","xpyriment","Jazzy James","3.1.6","yes","yes","59504085b83f69022b47a751","595041f76c613b022ae3ecdb","no","no","0","j","f","space","NA","space","space","j","1087","3764","15045","NA","32325","15398","1087","2","legacy","1024","1","44100","-16","experiment","wenal","23","Fuerstenfeldbruck","1","0","1","Deutsch","Englisch","6","even","Koeln","233226","217892","NA","236991","233222","NA","1611","232995","1612","1611","113688","146017","280755","279251","281843","175406","161713","217892","19510","91728","216220","161479","233226","161717","NA","280755","280755","204188","204185","279247","NAP perception","9","20080","14","yes","1024"
"66.6666666667","yes","66.6666666667","1457","1457","white","no","xpyriment","I have read and understood the information shown above","legacy","legacy","0","uniform","1","0","0","undefined","undefined","1","j","1","0","NA","0","0","0","0","0","0","0","0","0","24","24","24","0","0","0","0","0","1","0","0","0","1","24","24","24","24","24","Wed Jun 28 17:53:15 2017","Forced-choice identification task with a practice and an experimental phase","yes","NAP-FC_GER_AA_ver-1.osexp","/Users/aviadalbert/Documents/Academisch/UoC/Dissertation/Experiment/OpenSesame/NAP-FC/NAP-FC_GER_AA/GER_AA_ver-1","yes","no","sans","no","20","no","black","no","Next","yes","768","legacy","14","9","0","/Users/aviadalbert/Documents/Academisch/UoC/Dissertation/Experiment/OpenSesame/NAP-FC/NAP-FC_GER_AA/GER_AA_ver-1/subject-6.csv","xpyriment","Jazzy James","3.1.6","yes","yes","59504085b83f69022b47a751","595041f76c613b022ae3ecdb","no","no","0","j","f","space","NA","space","space","j","1775","3764","15045","NA","32325","15398","1775","2","legacy","1024","1","44100","-16","experiment","evnal","23","Fuerstenfeldbruck","1","0","1","Deutsch","Englisch","6","even","Koeln","233226","217892","NA","236991","233222","NA","1611","232995","1612","1611","113688","146017","283604","282098","285380","175406","161713","217892","19510","91728","216220","161479","233226","161717","NA","283604","283604","204188","204185","282094","NAP perception","10","21855","15","yes","1024"
"68.75","yes","68.75","1469","1469","white","no","xpyriment","I have read and understood the information shown above","legacy","legacy","0","uniform","1","0","0","undefined","undefined","1","f","1","0","NA","0","0","0","0","0","0","0","0","0","25","25","25","0","0","0","0","0","1","0","0","0","1","25","25","25","25","25","Wed Jun 28 17:53:15 2017","Forced-choice identification task with a practice and an experimental phase","yes","NAP-FC_GER_AA_ver-1.osexp","/Users/aviadalbert/Documents/Academisch/UoC/Dissertation/Experiment/OpenSesame/NAP-FC/NAP-FC_GER_AA/GER_AA_ver-1","yes","no","sans","no","20","no","black","no","Next","yes","768","legacy","15","9","0","/Users/aviadalbert/Documents/Academisch/UoC/Dissertation/Experiment/OpenSesame/NAP-FC/NAP-FC_GER_AA/GER_AA_ver-1/subject-6.csv","xpyriment","Jazzy James","3.1.6","yes","yes","59504085b83f69022b47a751","595041f76c613b022ae3ecdb","no","no","0","f","f","space","NA","space","space","f","1649","3764","15045","NA","32325","15398","1649","2","legacy","1024","1","44100","-16","experiment","vnal","23","Fuerstenfeldbruck","1","0","1","Deutsch","Englisch","6","even","Koeln","233226","217892","NA","236991","233222","NA","1611","232995","1612","1611","113688","146017","287151","285647","288801","175406","161713","217892","19510","91728","216220","161479","233226","161717","NA","287151","287151","204188","204185","285643","NAP perception","11","23504","16","yes","1024"
"64.7058823529","yes","64.7058823529","1473.11764706","1473.11764706","white","no","xpyriment","I have read and understood the information shown above","legacy","legacy","0","uniform","0","0","0","undefined","undefined","0","f","1","0","NA","0","0","0","0","0","0","0","0","0","26","26","26","0","0","0","0","0","1","0","0","0","1","26","26","26","26","26","Wed Jun 28 17:53:15 2017","Forced-choice identification task with a practice and an experimental phase","yes","NAP-FC_GER_AA_ver-1.osexp","/Users/aviadalbert/Documents/Academisch/UoC/Dissertation/Experiment/OpenSesame/NAP-FC/NAP-FC_GER_AA/GER_AA_ver-1","yes","no","sans","no","20","no","black","no","Next","yes","768","legacy","16","9","0","/Users/aviadalbert/Documents/Academisch/UoC/Dissertation/Experiment/OpenSesame/NAP-FC/NAP-FC_GER_AA/GER_AA_ver-1/subject-6.csv","xpyriment","Jazzy James","3.1.6","yes","yes","59504085b83f69022b47a751","595041f76c613b022ae3ecdb","no","no","0","j","f","space","NA","space","space","j","1539","3764","15045","NA","32325","15398","1539","2","legacy","1024","1","44100","-16","experiment","wtal","23","Fuerstenfeldbruck","1","0","1","Deutsch","Englisch","6","even","Koeln","233226","217892","NA","236991","233222","NA","1611","232995","1612","1611","113688","146017","290561","289058","292101","175406","161713","217892","19510","91728","216220","161479","233226","161717","NA","290561","290561","204188","204185","289054","NAP perception","11","25043","17","yes","1024"
"61.1111111111","yes","61.1111111111","1466.16666667","1466.16666667","white","no","xpyriment","I have read and understood the information shown above","legacy","legacy","0","uniform","0","0","0","undefined","undefined","0","j","1","0","NA","0","0","0","0","0","0","0","0","0","27","27","27","0","0","0","0","0","1","0","0","0","1","27","27","27","27","27","Wed Jun 28 17:53:15 2017","Forced-choice identification task with a practice and an experimental phase","yes","NAP-FC_GER_AA_ver-1.osexp","/Users/aviadalbert/Documents/Academisch/UoC/Dissertation/Experiment/OpenSesame/NAP-FC/NAP-FC_GER_AA/GER_AA_ver-1","yes","no","sans","no","20","no","black","no","Next","yes","768","legacy","17","9","0","/Users/aviadalbert/Documents/Academisch/UoC/Dissertation/Experiment/OpenSesame/NAP-FC/NAP-FC_GER_AA/GER_AA_ver-1/subject-6.csv","xpyriment","Jazzy James","3.1.6","yes","yes","59504085b83f69022b47a751","595041f76c613b022ae3ecdb","no","no","0","f","f","space","NA","space","space","f","1348","3764","15045","NA","32325","15398","1348","2","legacy","1024","1","44100","-16","experiment","eftal","23","Fuerstenfeldbruck","1","0","1","Deutsch","Englisch","6","even","Koeln","233226","217892","NA","236991","233222","NA","1611","232995","1612","1611","113688","146017","293887","292383","295236","175406","161713","217892","19510","91728","216220","161479","233226","161717","NA","293887","293887","204188","204185","292379","NAP perception","11","26391","18","yes","1024"
"57.8947368421","yes","57.8947368421","1479.42105263","1479.42105263","white","no","xpyriment","I have read and understood the information shown above","legacy","legacy","0","uniform","0","0","0","undefined","undefined","0","j","1","0","NA","0","0","0","0","0","0","0","0","0","28","28","28","0","0","0","0","0","1","0","0","0","1","28","28","28","28","28","Wed Jun 28 17:53:15 2017","Forced-choice identification task with a practice and an experimental phase","yes","NAP-FC_GER_AA_ver-1.osexp","/Users/aviadalbert/Documents/Academisch/UoC/Dissertation/Experiment/OpenSesame/NAP-FC/NAP-FC_GER_AA/GER_AA_ver-1","yes","no","sans","no","20","no","black","no","Next","yes","768","legacy","18","9","0","/Users/aviadalbert/Documents/Academisch/UoC/Dissertation/Experiment/OpenSesame/NAP-FC/NAP-FC_GER_AA/GER_AA_ver-1/subject-6.csv","xpyriment","Jazzy James","3.1.6","yes","yes","59504085b83f69022b47a751","595041f76c613b022ae3ecdb","no","no","0","f","f","space","NA","space","space","f","1718","3764","15045","NA","32325","15398","1718","2","legacy","1024","1","44100","-16","experiment","zemal","23","Fuerstenfeldbruck","1","0","1","Deutsch","Englisch","6","even","Koeln","233226","217892","NA","236991","233222","NA","1611","232995","1612","1611","113688","146017","297006","295502","298725","175406","161713","217892","19510","91728","216220","161479","233226","161717","NA","297005","297005","204188","204185","295498","NAP perception","11","28109","19","yes","1024"
"60","yes","60","1498.5","1498.5","white","no","xpyriment","I have read and understood the information shown above","legacy","legacy","0","uniform","1","0","0","undefined","undefined","1","j","1","0","NA","0","0","0","0","0","0","0","0","0","29","29","29","0","0","0","0","0","1","0","0","0","1","29","29","29","29","29","Wed Jun 28 17:53:15 2017","Forced-choice identification task with a practice and an experimental phase","yes","NAP-FC_GER_AA_ver-1.osexp","/Users/aviadalbert/Documents/Academisch/UoC/Dissertation/Experiment/OpenSesame/NAP-FC/NAP-FC_GER_AA/GER_AA_ver-1","yes","no","sans","no","20","no","black","no","Next","yes","768","legacy","19","9","0","/Users/aviadalbert/Documents/Academisch/UoC/Dissertation/Experiment/OpenSesame/NAP-FC/NAP-FC_GER_AA/GER_AA_ver-1/subject-6.csv","xpyriment","Jazzy James","3.1.6","yes","yes","59504085b83f69022b47a751","595041f76c613b022ae3ecdb","no","no","0","j","f","space","NA","space","space","j","1861","3764","15045","NA","32325","15398","1861","2","legacy","1024","1","44100","-16","experiment","emlal","23","Fuerstenfeldbruck","1","0","1","Deutsch","Englisch","6","even","Koeln","233226","217892","NA","236991","233222","NA","1611","232995","1612","1611","113688","146017","300497","298994","302360","175406","161713","217892","19510","91728","216220","161479","233226","161717","NA","300497","300497","204188","204185","298990","NAP perception","12","29970","20","yes","1024"
"61.9047619048","yes","61.9047619048","1482.0952381","1482.0952381","white","no","xpyriment","I have read and understood the information shown above","legacy","legacy","0","uniform","1","0","0","undefined","undefined","1","f","1","0","NA","0","0","0","0","0","0","0","0","0","30","30","30","0","0","0","0","0","1","0","0","0","1","30","30","30","30","30","Wed Jun 28 17:53:15 2017","Forced-choice identification task with a practice and an experimental phase","yes","NAP-FC_GER_AA_ver-1.osexp","/Users/aviadalbert/Documents/Academisch/UoC/Dissertation/Experiment/OpenSesame/NAP-FC/NAP-FC_GER_AA/GER_AA_ver-1","yes","no","sans","no","20","no","black","no","Next","yes","768","legacy","20","9","0","/Users/aviadalbert/Documents/Academisch/UoC/Dissertation/Experiment/OpenSesame/NAP-FC/NAP-FC_GER_AA/GER_AA_ver-1/subject-6.csv","xpyriment","Jazzy James","3.1.6","yes","yes","59504085b83f69022b47a751","595041f76c613b022ae3ecdb","no","no","0","f","f","space","NA","space","space","f","1154","3764","15045","NA","32325","15398","1154","2","legacy","1024","1","44100","-16","experiment","vlal","23","Fuerstenfeldbruck","1","0","1","Deutsch","Englisch","6","even","Koeln","233226","217892","NA","236991","233222","NA","1611","232995","1612","1611","113688","146017","304154","302647","305309","175406","161713","217892","19510","91728","216220","161479","233226","161717","NA","304154","304154","204188","204185","302643","NAP perception","13","31124","21","yes","1024"
"63.6363636364","yes","63.6363636364","1487","1487","white","no","xpyriment","I have read and understood the information shown above","legacy","legacy","0","uniform","1","0","0","undefined","undefined","1","j","1","0","NA","0","0","0","0","0","0","0","0","0","31","31","31","0","0","0","0","0","1","0","0","0","1","31","31","31","31","31","Wed Jun 28 17:53:15 2017","Forced-choice identification task with a practice and an experimental phase","yes","NAP-FC_GER_AA_ver-1.osexp","/Users/aviadalbert/Documents/Academisch/UoC/Dissertation/Experiment/OpenSesame/NAP-FC/NAP-FC_GER_AA/GER_AA_ver-1","yes","no","sans","no","20","no","black","no","Next","yes","768","legacy","21","9","0","/Users/aviadalbert/Documents/Academisch/UoC/Dissertation/Experiment/OpenSesame/NAP-FC/NAP-FC_GER_AA/GER_AA_ver-1/subject-6.csv","xpyriment","Jazzy James","3.1.6","yes","yes","59504085b83f69022b47a751","595041f76c613b022ae3ecdb","no","no","0","j","f","space","NA","space","space","j","1590","3764","15045","NA","32325","15398","1590","2","legacy","1024","1","44100","-16","experiment","jeval","23","Fuerstenfeldbruck","1","0","1","Deutsch","Englisch","6","even","Koeln","233226","217892","NA","236991","233222","NA","1611","232995","1612","1611","113688","146017","307075","305570","308667","175406","161713","217892","19510","91728","216220","161479","233226","161717","NA","307074","307075","204188","204185","305567","NAP perception","14","32714","22","yes","1024"
"60.8695652174","yes","60.8695652174","1501.69565217","1501.69565217","white","no","xpyriment","I have read and understood the information shown above","legacy","legacy","0","uniform","0","0","0","undefined","undefined","0","j","1","0","NA","0","0","0","0","0","0","0","0","0","32","32","32","0","0","0","0","0","1","0","0","0","1","32","32","32","32","32","Wed Jun 28 17:53:15 2017","Forced-choice identification task with a practice and an experimental phase","yes","NAP-FC_GER_AA_ver-1.osexp","/Users/aviadalbert/Documents/Academisch/UoC/Dissertation/Experiment/OpenSesame/NAP-FC/NAP-FC_GER_AA/GER_AA_ver-1","yes","no","sans","no","20","no","black","no","Next","yes","768","legacy","22","9","0","/Users/aviadalbert/Documents/Academisch/UoC/Dissertation/Experiment/OpenSesame/NAP-FC/NAP-FC_GER_AA/GER_AA_ver-1/subject-6.csv","xpyriment","Jazzy James","3.1.6","yes","yes","59504085b83f69022b47a751","595041f76c613b022ae3ecdb","no","no","0","f","f","space","NA","space","space","f","1825","3764","15045","NA","32325","15398","1825","2","legacy","1024","1","44100","-16","experiment","wetal","23","Fuerstenfeldbruck","1","0","1","Deutsch","Englisch","6","even","Koeln","233226","217892","NA","236991","233222","NA","1611","232995","1612","1611","113688","146017","310438","308934","312265","175406","161713","217892","19510","91728","216220","161479","233226","161717","NA","310438","310438","204188","204185","308930","NAP perception","14","34539","23","yes","1024"
"62.5","yes","62.5","1502","1502","white","no","xpyriment","I have read and understood the information shown above","legacy","legacy","0","uniform","1","0","0","undefined","undefined","1","f","1","0","NA","0","0","0","0","0","0","0","0","0","33","33","33","0","0","0","0","0","1","0","0","0","1","33","33","33","33","33","Wed Jun 28 17:53:15 2017","Forced-choice identification task with a practice and an experimental phase","yes","NAP-FC_GER_AA_ver-1.osexp","/Users/aviadalbert/Documents/Academisch/UoC/Dissertation/Experiment/OpenSesame/NAP-FC/NAP-FC_GER_AA/GER_AA_ver-1","yes","no","sans","no","20","no","black","no","Next","yes","768","legacy","23","9","0","/Users/aviadalbert/Documents/Academisch/UoC/Dissertation/Experiment/OpenSesame/NAP-FC/NAP-FC_GER_AA/GER_AA_ver-1/subject-6.csv","xpyriment","Jazzy James","3.1.6","yes","yes","59504085b83f69022b47a751","595041f76c613b022ae3ecdb","no","no","0","f","f","space","NA","space","space","f","1509","3764","15045","NA","32325","15398","1509","2","legacy","1024","1","44100","-16","experiment","jval","23","Fuerstenfeldbruck","1","0","1","Deutsch","Englisch","6","even","Koeln","233226","217892","NA","236991","233222","NA","1611","232995","1612","1611","113688","146017","314023","312518","315533","175406","161713","217892","19510","91728","216220","161479","233226","161717","NA","314023","314023","204188","204185","312514","NAP perception","15","36048","24","yes","1024"
"64","yes","64","1497.4","1497.4","white","no","xpyriment","I have read and understood the information shown above","legacy","legacy","0","uniform","1","0","0","undefined","undefined","1","j","1","0","NA","0","0","0","0","0","0","0","0","0","34","34","34","0","0","0","0","0","1","0","0","0","1","34","34","34","34","34","Wed Jun 28 17:53:15 2017","Forced-choice identification task with a practice and an experimental phase","yes","NAP-FC_GER_AA_ver-1.osexp","/Users/aviadalbert/Documents/Academisch/UoC/Dissertation/Experiment/OpenSesame/NAP-FC/NAP-FC_GER_AA/GER_AA_ver-1","yes","no","sans","no","20","no","black","no","Next","yes","768","legacy","24","9","0","/Users/aviadalbert/Documents/Academisch/UoC/Dissertation/Experiment/OpenSesame/NAP-FC/NAP-FC_GER_AA/GER_AA_ver-1/subject-6.csv","xpyriment","Jazzy James","3.1.6","yes","yes","59504085b83f69022b47a751","595041f76c613b022ae3ecdb","no","no","0","j","f","space","NA","space","space","j","1387","3764","15045","NA","32325","15398","1387","2","legacy","1024","1","44100","-16","experiment","ezval","23","Fuerstenfeldbruck","1","0","1","Deutsch","Englisch","6","even","Koeln","233226","217892","NA","236991","233222","NA","1611","232995","1612","1611","113688","146017","317298","315792","318686","175406","161713","217892","19510","91728","216220","161479","233226","161717","NA","317298","317298","204188","204185","315788","NAP perception","16","37435","25","yes","1024"
"61.5384615385","yes","61.5384615385","1513.92307692","1513.92307692","white","no","xpyriment","I have read and understood the information shown above","legacy","legacy","0","uniform","0","0","0","undefined","undefined","0","j","1","0","NA","0","0","0","0","0","0","0","0","0","35","35","35","0","0","0","0","0","1","0","0","0","1","35","35","35","35","35","Wed Jun 28 17:53:15 2017","Forced-choice identification task with a practice and an experimental phase","yes","NAP-FC_GER_AA_ver-1.osexp","/Users/aviadalbert/Documents/Academisch/UoC/Dissertation/Experiment/OpenSesame/NAP-FC/NAP-FC_GER_AA/GER_AA_ver-1","yes","no","sans","no","20","no","black","no","Next","yes","768","legacy","25","9","0","/Users/aviadalbert/Documents/Academisch/UoC/Dissertation/Experiment/OpenSesame/NAP-FC/NAP-FC_GER_AA/GER_AA_ver-1/subject-6.csv","xpyriment","Jazzy James","3.1.6","yes","yes","59504085b83f69022b47a751","595041f76c613b022ae3ecdb","no","no","0","f","f","space","NA","space","space","f","1927","3764","15045","NA","32325","15398","1927","2","legacy","1024","1","44100","-16","experiment","neval","23","Fuerstenfeldbruck","1","0","1","Deutsch","Englisch","6","even","Koeln","233226","217892","NA","236991","233222","NA","1611","232995","1612","1611","113688","146017","320482","318979","322410","175406","161713","217892","19510","91728","216220","161479","233226","161717","NA","320482","320482","204188","204185","318975","NAP perception","16","39362","26","yes","1024"
"62.962962963","yes","62.962962963","1495.51851852","1495.51851852","white","no","xpyriment","I have read and understood the information shown above","legacy","legacy","0","uniform","1","0","0","undefined","undefined","1","f","1","0","NA","0","0","0","0","0","0","0","0","0","36","36","36","0","0","0","0","0","1","0","0","0","1","36","36","36","36","36","Wed Jun 28 17:53:15 2017","Forced-choice identification task with a practice and an experimental phase","yes","NAP-FC_GER_AA_ver-1.osexp","/Users/aviadalbert/Documents/Academisch/UoC/Dissertation/Experiment/OpenSesame/NAP-FC/NAP-FC_GER_AA/GER_AA_ver-1","yes","no","sans","no","20","no","black","no","Next","yes","768","legacy","26","9","0","/Users/aviadalbert/Documents/Academisch/UoC/Dissertation/Experiment/OpenSesame/NAP-FC/NAP-FC_GER_AA/GER_AA_ver-1/subject-6.csv","xpyriment","Jazzy James","3.1.6","yes","yes","59504085b83f69022b47a751","595041f76c613b022ae3ecdb","no","no","0","f","f","space","NA","space","space","f","1017","3764","15045","NA","32325","15398","1017","2","legacy","1024","1","44100","-16","experiment","mlal","23","Fuerstenfeldbruck","1","0","1","Deutsch","Englisch","6","even","Koeln","233226","217892","NA","236991","233222","NA","1611","232995","1612","1611","113688","146017","324188","322685","325207","175406","161713","217892","19510","91728","216220","161479","233226","161717","NA","324188","324188","204188","204185","322681","NAP perception","17","40379","27","yes","1024"
"60.7142857143","yes","60.7142857143","1482.46428571","1482.46428571","white","no","xpyriment","I have read and understood the information shown above","legacy","legacy","0","uniform","0","0","0","undefined","undefined","0","f","1","0","NA","0","0","0","0","0","0","0","0","0","37","37","37","0","0","0","0","0","1","0","0","0","1","37","37","37","37","37","Wed Jun 28 17:53:15 2017","Forced-choice identification task with a practice and an experimental phase","yes","NAP-FC_GER_AA_ver-1.osexp","/Users/aviadalbert/Documents/Academisch/UoC/Dissertation/Experiment/OpenSesame/NAP-FC/NAP-FC_GER_AA/GER_AA_ver-1","yes","no","sans","no","20","no","black","no","Next","yes","768","legacy","27","9","0","/Users/aviadalbert/Documents/Academisch/UoC/Dissertation/Experiment/OpenSesame/NAP-FC/NAP-FC_GER_AA/GER_AA_ver-1/subject-6.csv","xpyriment","Jazzy James","3.1.6","yes","yes","59504085b83f69022b47a751","595041f76c613b022ae3ecdb","no","no","0","j","f","space","NA","space","space","j","1130","3764","15045","NA","32325","15398","1130","2","legacy","1024","1","44100","-16","experiment","jfal","23","Fuerstenfeldbruck","1","0","1","Deutsch","Englisch","6","even","Koeln","233226","217892","NA","236991","233222","NA","1611","232995","1612","1611","113688","146017","326983","325480","328114","175406","161713","217892","19510","91728","216220","161479","233226","161717","NA","326983","326983","204188","204185","325476","NAP perception","17","41509","28","yes","1024"
"58.6206896552","yes","58.6206896552","1476.51724138","1476.51724138","white","no","xpyriment","I have read and understood the information shown above","legacy","legacy","0","uniform","0","0","0","undefined","undefined","0","f","1","0","NA","0","0","0","0","0","0","0","0","0","38","38","38","0","0","0","0","0","1","0","0","0","1","38","38","38","38","38","Wed Jun 28 17:53:15 2017","Forced-choice identification task with a practice and an experimental phase","yes","NAP-FC_GER_AA_ver-1.osexp","/Users/aviadalbert/Documents/Academisch/UoC/Dissertation/Experiment/OpenSesame/NAP-FC/NAP-FC_GER_AA/GER_AA_ver-1","yes","no","sans","no","20","no","black","no","Next","yes","768","legacy","28","9","0","/Users/aviadalbert/Documents/Academisch/UoC/Dissertation/Experiment/OpenSesame/NAP-FC/NAP-FC_GER_AA/GER_AA_ver-1/subject-6.csv","xpyriment","Jazzy James","3.1.6","yes","yes","59504085b83f69022b47a751","595041f76c613b022ae3ecdb","no","no","0","j","f","space","NA","space","space","j","1310","3764","15045","NA","32325","15398","1310","2","legacy","1024","1","44100","-16","experiment","msal","23","Fuerstenfeldbruck","1","0","1","Deutsch","Englisch","6","even","Koeln","233226","217892","NA","236991","233222","NA","1611","232995","1612","1611","113688","146017","329887","328383","331198","175406","161713","217892","19510","91728","216220","161479","233226","161717","NA","329887","329887","204188","204185","328379","NAP perception","17","42819","29","yes","1024"
"60","yes","60","1475.23333333","1475.23333333","white","no","xpyriment","I have read and understood the information shown above","legacy","legacy","0","uniform","1","0","0","undefined","undefined","1","j","1","0","NA","0","0","0","0","0","0","0","0","0","39","39","39","0","0","0","0","0","1","0","0","0","1","39","39","39","39","39","Wed Jun 28 17:53:15 2017","Forced-choice identification task with a practice and an experimental phase","yes","NAP-FC_GER_AA_ver-1.osexp","/Users/aviadalbert/Documents/Academisch/UoC/Dissertation/Experiment/OpenSesame/NAP-FC/NAP-FC_GER_AA/GER_AA_ver-1","yes","no","sans","no","20","no","black","no","Next","yes","768","legacy","29","9","0","/Users/aviadalbert/Documents/Academisch/UoC/Dissertation/Experiment/OpenSesame/NAP-FC/NAP-FC_GER_AA/GER_AA_ver-1/subject-6.csv","xpyriment","Jazzy James","3.1.6","yes","yes","59504085b83f69022b47a751","595041f76c613b022ae3ecdb","no","no","0","j","f","space","NA","space","space","j","1438","3764","15045","NA","32325","15398","1438","2","legacy","1024","1","44100","-16","experiment","welal","23","Fuerstenfeldbruck","1","0","1","Deutsch","Englisch","6","even","Koeln","233226","217892","NA","236991","233222","NA","1611","232995","1612","1611","113688","146017","332972","331465","334411","175406","161713","217892","19510","91728","216220","161479","233226","161717","NA","332972","332972","204188","204185","331461","NAP perception","18","44257","30","yes","1024"
"61.2903225806","yes","61.2903225806","1472.22580645","1472.22580645","white","no","xpyriment","I have read and understood the information shown above","legacy","legacy","0","uniform","1","0","0","undefined","undefined","1","j","1","0","NA","0","0","0","0","0","0","0","0","0","40","40","40","0","0","0","0","0","1","0","0","0","1","40","40","40","40","40","Wed Jun 28 17:53:15 2017","Forced-choice identification task with a practice and an experimental phase","yes","NAP-FC_GER_AA_ver-1.osexp","/Users/aviadalbert/Documents/Academisch/UoC/Dissertation/Experiment/OpenSesame/NAP-FC/NAP-FC_GER_AA/GER_AA_ver-1","yes","no","sans","no","20","no","black","no","Next","yes","768","legacy","30","9","0","/Users/aviadalbert/Documents/Academisch/UoC/Dissertation/Experiment/OpenSesame/NAP-FC/NAP-FC_GER_AA/GER_AA_ver-1/subject-6.csv","xpyriment","Jazzy James","3.1.6","yes","yes","59504085b83f69022b47a751","595041f76c613b022ae3ecdb","no","no","0","j","f","space","NA","space","space","j","1382","3764","15045","NA","32325","15398","1382","2","legacy","1024","1","44100","-16","experiment","semal","23","Fuerstenfeldbruck","1","0","1","Deutsch","Englisch","6","even","Koeln","233226","217892","NA","236991","233222","NA","1611","232995","1612","1611","113688","146017","336188","334685","337571","175406","161713","217892","19510","91728","216220","161479","233226","161717","NA","336188","336188","204188","204185","334681","NAP perception","19","45639","31","yes","1024"
"59.375","yes","59.375","1465.96875","1465.96875","white","no","xpyriment","I have read and understood the information shown above","legacy","legacy","0","uniform","0","0","0","undefined","undefined","0","j","1","0","NA","0","0","0","0","0","0","0","0","0","41","41","41","0","0","0","0","0","1","0","0","0","1","41","41","41","41","41","Wed Jun 28 17:53:15 2017","Forced-choice identification task with a practice and an experimental phase","yes","NAP-FC_GER_AA_ver-1.osexp","/Users/aviadalbert/Documents/Academisch/UoC/Dissertation/Experiment/OpenSesame/NAP-FC/NAP-FC_GER_AA/GER_AA_ver-1","yes","no","sans","no","20","no","black","no","Next","yes","768","legacy","31","9","0","/Users/aviadalbert/Documents/Academisch/UoC/Dissertation/Experiment/OpenSesame/NAP-FC/NAP-FC_GER_AA/GER_AA_ver-1/subject-6.csv","xpyriment","Jazzy James","3.1.6","yes","yes","59504085b83f69022b47a751","595041f76c613b022ae3ecdb","no","no","0","f","f","space","NA","space","space","f","1272","3764","15045","NA","32325","15398","1272","2","legacy","1024","1","44100","-16","experiment","velal","23","Fuerstenfeldbruck","1","0","1","Deutsch","Englisch","6","even","Koeln","233226","217892","NA","236991","233222","NA","1611","232995","1612","1611","113688","146017","339346","337841","340619","175406","161713","217892","19510","91728","216220","161479","233226","161717","NA","339346","339346","204188","204185","337837","NAP perception","19","46911","32","yes","1024"
"57.5757575758","yes","57.5757575758","1471.54545455","1471.54545455","white","no","xpyriment","I have read and understood the information shown above","legacy","legacy","0","uniform","0","0","0","undefined","undefined","0","j","1","0","NA","0","0","0","0","0","0","0","0","0","42","42","42","0","0","0","0","0","1","0","0","0","1","42","42","42","42","42","Wed Jun 28 17:53:15 2017","Forced-choice identification task with a practice and an experimental phase","yes","NAP-FC_GER_AA_ver-1.osexp","/Users/aviadalbert/Documents/Academisch/UoC/Dissertation/Experiment/OpenSesame/NAP-FC/NAP-FC_GER_AA/GER_AA_ver-1","yes","no","sans","no","20","no","black","no","Next","yes","768","legacy","32","9","0","/Users/aviadalbert/Documents/Academisch/UoC/Dissertation/Experiment/OpenSesame/NAP-FC/NAP-FC_GER_AA/GER_AA_ver-1/subject-6.csv","xpyriment","Jazzy James","3.1.6","yes","yes","59504085b83f69022b47a751","595041f76c613b022ae3ecdb","no","no","0","f","f","space","NA","space","space","f","1650","3764","15045","NA","32325","15398","1650","2","legacy","1024","1","44100","-16","experiment","felal","23","Fuerstenfeldbruck","1","0","1","Deutsch","Englisch","6","even","Koeln","233226","217892","NA","236991","233222","NA","1611","232995","1612","1611","113688","146017","342389","340883","344041","175406","161713","217892","19510","91728","216220","161479","233226","161717","NA","342389","342389","204188","204185","340880","NAP perception","19","48561","33","yes","1024"
"58.8235294118","yes","58.8235294118","1456.58823529","1456.58823529","white","no","xpyriment","I have read and understood the information shown above","legacy","legacy","0","uniform","1","0","0","undefined","undefined","1","j","1","0","NA","0","0","0","0","0","0","0","0","0","43","43","43","0","0","0","0","0","1","0","0","0","1","43","43","43","43","43","Wed Jun 28 17:53:15 2017","Forced-choice identification task with a practice and an experimental phase","yes","NAP-FC_GER_AA_ver-1.osexp","/Users/aviadalbert/Documents/Academisch/UoC/Dissertation/Experiment/OpenSesame/NAP-FC/NAP-FC_GER_AA/GER_AA_ver-1","yes","no","sans","no","20","no","black","no","Next","yes","768","legacy","33","9","0","/Users/aviadalbert/Documents/Academisch/UoC/Dissertation/Experiment/OpenSesame/NAP-FC/NAP-FC_GER_AA/GER_AA_ver-1/subject-6.csv","xpyriment","Jazzy James","3.1.6","yes","yes","59504085b83f69022b47a751","595041f76c613b022ae3ecdb","no","no","0","j","f","space","NA","space","space","j","963","3764","15045","NA","32325","15398","963","2","legacy","1024","1","44100","-16","experiment","elval","23","Fuerstenfeldbruck","1","0","1","Deutsch","Englisch","6","even","Koeln","233226","217892","NA","236991","233222","NA","1611","232995","1612","1611","113688","146017","345830","344326","346795","175406","161713","217892","19510","91728","216220","161479","233226","161717","NA","345830","345830","204188","204185","344322","NAP perception","20","49524","34","yes","1024"
"60","yes","60","1456.51428571","1456.51428571","white","no","xpyriment","I have read and understood the information shown above","legacy","legacy","0","uniform","1","0","0","undefined","undefined","1","f","1","0","NA","0","0","0","0","0","0","0","0","0","44","44","44","0","0","0","0","0","1","0","0","0","1","44","44","44","44","44","Wed Jun 28 17:53:15 2017","Forced-choice identification task with a practice and an experimental phase","yes","NAP-FC_GER_AA_ver-1.osexp","/Users/aviadalbert/Documents/Academisch/UoC/Dissertation/Experiment/OpenSesame/NAP-FC/NAP-FC_GER_AA/GER_AA_ver-1","yes","no","sans","no","20","no","black","no","Next","yes","768","legacy","34","9","0","/Users/aviadalbert/Documents/Academisch/UoC/Dissertation/Experiment/OpenSesame/NAP-FC/NAP-FC_GER_AA/GER_AA_ver-1/subject-6.csv","xpyriment","Jazzy James","3.1.6","yes","yes","59504085b83f69022b47a751","595041f76c613b022ae3ecdb","no","no","0","f","f","space","NA","space","space","f","1454","3764","15045","NA","32325","15398","1454","2","legacy","1024","1","44100","-16","experiment","fsal","23","Fuerstenfeldbruck","1","0","1","Deutsch","Englisch","6","even","Koeln","233226","217892","NA","236991","233222","NA","1611","232995","1612","1611","113688","146017","348569","347065","350025","175406","161713","217892","19510","91728","216220","161479","233226","161717","NA","348569","348569","204188","204185","347061","NAP perception","21","50978","35","yes","1024"
"58.3333333333","yes","58.3333333333","1455.77777778","1455.77777778","white","no","xpyriment","I have read and understood the information shown above","legacy","legacy","0","uniform","0","0","0","undefined","undefined","0","j","1","0","NA","0","0","0","0","0","0","0","0","0","45","45","45","0","0","0","0","0","1","0","0","0","1","45","45","45","45","45","Wed Jun 28 17:53:15 2017","Forced-choice identification task with a practice and an experimental phase","yes","NAP-FC_GER_AA_ver-1.osexp","/Users/aviadalbert/Documents/Academisch/UoC/Dissertation/Experiment/OpenSesame/NAP-FC/NAP-FC_GER_AA/GER_AA_ver-1","yes","no","sans","no","20","no","black","no","Next","yes","768","legacy","35","9","0","/Users/aviadalbert/Documents/Academisch/UoC/Dissertation/Experiment/OpenSesame/NAP-FC/NAP-FC_GER_AA/GER_AA_ver-1/subject-6.csv","xpyriment","Jazzy James","3.1.6","yes","yes","59504085b83f69022b47a751","595041f76c613b022ae3ecdb","no","no","0","f","f","space","NA","space","space","f","1430","3764","15045","NA","32325","15398","1430","2","legacy","1024","1","44100","-16","experiment","jemal","23","Fuerstenfeldbruck","1","0","1","Deutsch","Englisch","6","even","Koeln","233226","217892","NA","236991","233222","NA","1611","232995","1612","1611","113688","146017","351805","350300","353237","175406","161713","217892","19510","91728","216220","161479","233226","161717","NA","351804","351805","204188","204185","350296","NAP perception","21","52408","36","yes","1024"
"59.4594594595","yes","59.4594594595","1443","1443","white","no","xpyriment","I have read and understood the information shown above","legacy","legacy","0","uniform","1","0","0","undefined","undefined","1","f","1","0","NA","0","0","0","0","0","0","0","0","0","46","46","46","0","0","0","0","0","1","0","0","0","1","46","46","46","46","46","Wed Jun 28 17:53:15 2017","Forced-choice identification task with a practice and an experimental phase","yes","NAP-FC_GER_AA_ver-1.osexp","/Users/aviadalbert/Documents/Academisch/UoC/Dissertation/Experiment/OpenSesame/NAP-FC/NAP-FC_GER_AA/GER_AA_ver-1","yes","no","sans","no","20","no","black","no","Next","yes","768","legacy","36","9","0","/Users/aviadalbert/Documents/Academisch/UoC/Dissertation/Experiment/OpenSesame/NAP-FC/NAP-FC_GER_AA/GER_AA_ver-1/subject-6.csv","xpyriment","Jazzy James","3.1.6","yes","yes","59504085b83f69022b47a751","595041f76c613b022ae3ecdb","no","no","0","f","f","space","NA","space","space","f","983","3764","15045","NA","32325","15398","983","2","legacy","1024","1","44100","-16","experiment","ʃpal","23","Fuerstenfeldbruck","1","0","1","Deutsch","Englisch","6","even","Koeln","233226","217892","NA","236991","233222","NA","1611","232995","1612","1611","113688","146017","355014","353511","355999","175406","161713","217892","19510","91728","216220","161479","233226","161717","NA","355014","355014","204188","204185","353507","NAP perception","22","53391","37","yes","1024"
"60.5263157895","yes","60.5263157895","1438.10526316","1438.10526316","white","no","xpyriment","I have read and understood the information shown above","legacy","legacy","0","uniform","1","0","0","undefined","undefined","1","f","1","0","NA","0","0","0","0","0","0","0","0","0","47","47","47","0","0","0","0","0","1","0","0","0","1","47","47","47","47","47","Wed Jun 28 17:53:15 2017","Forced-choice identification task with a practice and an experimental phase","yes","NAP-FC_GER_AA_ver-1.osexp","/Users/aviadalbert/Documents/Academisch/UoC/Dissertation/Experiment/OpenSesame/NAP-FC/NAP-FC_GER_AA/GER_AA_ver-1","yes","no","sans","no","20","no","black","no","Next","yes","768","legacy","37","9","0","/Users/aviadalbert/Documents/Academisch/UoC/Dissertation/Experiment/OpenSesame/NAP-FC/NAP-FC_GER_AA/GER_AA_ver-1/subject-6.csv","xpyriment","Jazzy James","3.1.6","yes","yes","59504085b83f69022b47a751","595041f76c613b022ae3ecdb","no","no","0","f","f","space","NA","space","space","f","1257","3764","15045","NA","32325","15398","1257","2","legacy","1024","1","44100","-16","experiment","wzal","23","Fuerstenfeldbruck","1","0","1","Deutsch","Englisch","6","even","Koeln","233226","217892","NA","236991","233222","NA","1611","232995","1612","1611","113688","146017","357782","356278","359041","175406","161713","217892","19510","91728","216220","161479","233226","161717","NA","357782","357782","204188","204185","356274","NAP perception","23","54648","38","yes","1024"
"61.5384615385","yes","61.5384615385","1423.48717949","1423.48717949","white","no","xpyriment","I have read and understood the information shown above","legacy","legacy","0","uniform","1","0","0","undefined","undefined","1","f","1","0","NA","0","0","0","0","0","0","0","0","0","48","48","48","0","0","0","0","0","1","0","0","0","1","48","48","48","48","48","Wed Jun 28 17:53:15 2017","Forced-choice identification task with a practice and an experimental phase","yes","NAP-FC_GER_AA_ver-1.osexp","/Users/aviadalbert/Documents/Academisch/UoC/Dissertation/Experiment/OpenSesame/NAP-FC/NAP-FC_GER_AA/GER_AA_ver-1","yes","no","sans","no","20","no","black","no","Next","yes","768","legacy","38","9","0","/Users/aviadalbert/Documents/Academisch/UoC/Dissertation/Experiment/OpenSesame/NAP-FC/NAP-FC_GER_AA/GER_AA_ver-1/subject-6.csv","xpyriment","Jazzy James","3.1.6","yes","yes","59504085b83f69022b47a751","595041f76c613b022ae3ecdb","no","no","0","f","f","space","NA","space","space","f","868","3764","15045","NA","32325","15398","868","2","legacy","1024","1","44100","-16","experiment","smal","23","Fuerstenfeldbruck","1","0","1","Deutsch","Englisch","6","even","Koeln","233226","217892","NA","236991","233222","NA","1611","232995","1612","1611","113688","146017","360813","359308","361683","175406","161713","217892","19510","91728","216220","161479","233226","161717","NA","360813","360813","204188","204185","359304","NAP perception","24","55516","39","yes","1024"
"60","yes","60","1421.05","1421.05","white","no","xpyriment","I have read and understood the information shown above","legacy","legacy","0","uniform","0","0","0","undefined","undefined","0","f","1","0","NA","0","0","0","0","0","0","0","0","0","49","49","49","0","0","0","0","0","1","0","0","0","1","49","49","49","49","49","Wed Jun 28 17:53:15 2017","Forced-choice identification task with a practice and an experimental phase","yes","NAP-FC_GER_AA_ver-1.osexp","/Users/aviadalbert/Documents/Academisch/UoC/Dissertation/Experiment/OpenSesame/NAP-FC/NAP-FC_GER_AA/GER_AA_ver-1","yes","no","sans","no","20","no","black","no","Next","yes","768","legacy","39","9","0","/Users/aviadalbert/Documents/Academisch/UoC/Dissertation/Experiment/OpenSesame/NAP-FC/NAP-FC_GER_AA/GER_AA_ver-1/subject-6.csv","xpyriment","Jazzy James","3.1.6","yes","yes","59504085b83f69022b47a751","595041f76c613b022ae3ecdb","no","no","0","j","f","space","NA","space","space","j","1326","3764","15045","NA","32325","15398","1326","2","legacy","1024","1","44100","-16","experiment","lmal","23","Fuerstenfeldbruck","1","0","1","Deutsch","Englisch","6","even","Koeln","233226","217892","NA","236991","233222","NA","1611","232995","1612","1611","113688","146017","363466","361962","364793","175406","161713","217892","19510","91728","216220","161479","233226","161717","NA","363465","363466","204188","204185","361958","NAP perception","24","56842","40","yes","1024"
"60.9756097561","yes","60.9756097561","1423","1423","white","no","xpyriment","I have read and understood the information shown above","legacy","legacy","0","uniform","1","0","0","undefined","undefined","1","j","1","0","NA","0","0","0","0","0","0","0","0","0","50","50","50","0","0","0","0","0","1","0","0","0","1","50","50","50","50","50","Wed Jun 28 17:53:15 2017","Forced-choice identification task with a practice and an experimental phase","yes","NAP-FC_GER_AA_ver-1.osexp","/Users/aviadalbert/Documents/Academisch/UoC/Dissertation/Experiment/OpenSesame/NAP-FC/NAP-FC_GER_AA/GER_AA_ver-1","yes","no","sans","no","20","no","black","no","Next","yes","768","legacy","40","9","0","/Users/aviadalbert/Documents/Academisch/UoC/Dissertation/Experiment/OpenSesame/NAP-FC/NAP-FC_GER_AA/GER_AA_ver-1/subject-6.csv","xpyriment","Jazzy James","3.1.6","yes","yes","59504085b83f69022b47a751","595041f76c613b022ae3ecdb","no","no","0","j","f","space","NA","space","space","j","1501","3764","15045","NA","32325","15398","1501","2","legacy","1024","1","44100","-16","experiment","wesal","23","Fuerstenfeldbruck","1","0","1","Deutsch","Englisch","6","even","Koeln","233226","217892","NA","236991","233222","NA","1611","232995","1612","1611","113688","146017","366563","365057","368066","175406","161713","217892","19510","91728","216220","161479","233226","161717","NA","366563","366563","204188","204185","365053","NAP perception","25","58343","41","yes","1024"
"59.5238095238","yes","59.5238095238","1413.73809524","1413.73809524","white","no","xpyriment","I have read and understood the information shown above","legacy","legacy","0","uniform","0","0","0","undefined","undefined","0","f","1","0","NA","0","0","0","0","0","0","0","0","0","51","51","51","0","0","0","0","0","1","0","0","0","1","51","51","51","51","51","Wed Jun 28 17:53:15 2017","Forced-choice identification task with a practice and an experimental phase","yes","NAP-FC_GER_AA_ver-1.osexp","/Users/aviadalbert/Documents/Academisch/UoC/Dissertation/Experiment/OpenSesame/NAP-FC/NAP-FC_GER_AA/GER_AA_ver-1","yes","no","sans","no","20","no","black","no","Next","yes","768","legacy","41","9","0","/Users/aviadalbert/Documents/Academisch/UoC/Dissertation/Experiment/OpenSesame/NAP-FC/NAP-FC_GER_AA/GER_AA_ver-1/subject-6.csv","xpyriment","Jazzy James","3.1.6","yes","yes","59504085b83f69022b47a751","595041f76c613b022ae3ecdb","no","no","0","j","f","space","NA","space","space","j","1034","3764","15045","NA","32325","15398","1034","2","legacy","1024","1","44100","-16","experiment","zmal","23","Fuerstenfeldbruck","1","0","1","Deutsch","Englisch","6","even","Koeln","233226","217892","NA","236991","233222","NA","1611","232995","1612","1611","113688","146017","369841","368337","370877","175406","161713","217892","19510","91728","216220","161479","233226","161717","NA","369841","369841","204188","204185","368333","NAP perception","25","59377","42","yes","1024"
"58.1395348837","yes","58.1395348837","1415.6744186","1415.6744186","white","no","xpyriment","I have read and understood the information shown above","legacy","legacy","0","uniform","0","0","0","undefined","undefined","0","f","1","0","NA","0","0","0","0","0","0","0","0","0","52","52","52","0","0","0","0","0","1","0","0","0","1","52","52","52","52","52","Wed Jun 28 17:53:15 2017","Forced-choice identification task with a practice and an experimental phase","yes","NAP-FC_GER_AA_ver-1.osexp","/Users/aviadalbert/Documents/Academisch/UoC/Dissertation/Experiment/OpenSesame/NAP-FC/NAP-FC_GER_AA/GER_AA_ver-1","yes","no","sans","no","20","no","black","no","Next","yes","768","legacy","42","9","0","/Users/aviadalbert/Documents/Academisch/UoC/Dissertation/Experiment/OpenSesame/NAP-FC/NAP-FC_GER_AA/GER_AA_ver-1/subject-6.csv","xpyriment","Jazzy James","3.1.6","yes","yes","59504085b83f69022b47a751","595041f76c613b022ae3ecdb","no","no","0","j","f","space","NA","space","space","j","1497","3764","15045","NA","32325","15398","1497","2","legacy","1024","1","44100","-16","experiment","zval","23","Fuerstenfeldbruck","1","0","1","Deutsch","Englisch","6","even","Koeln","233226","217892","NA","236991","233222","NA","1611","232995","1612","1611","113688","146017","372657","371152","374155","175406","161713","217892","19510","91728","216220","161479","233226","161717","NA","372657","372657","204188","204185","371148","NAP perception","25","60874","43","yes","1024"
"56.8181818182","yes","56.8181818182","1408.34090909","1408.34090909","white","no","xpyriment","I have read and understood the information shown above","legacy","legacy","0","uniform","0","0","0","undefined","undefined","0","f","1","0","NA","0","0","0","0","0","0","0","0","0","53","53","53","0","0","0","0","0","1","0","0","0","1","53","53","53","53","53","Wed Jun 28 17:53:15 2017","Forced-choice identification task with a practice and an experimental phase","yes","NAP-FC_GER_AA_ver-1.osexp","/Users/aviadalbert/Documents/Academisch/UoC/Dissertation/Experiment/OpenSesame/NAP-FC/NAP-FC_GER_AA/GER_AA_ver-1","yes","no","sans","no","20","no","black","no","Next","yes","768","legacy","43","9","0","/Users/aviadalbert/Documents/Academisch/UoC/Dissertation/Experiment/OpenSesame/NAP-FC/NAP-FC_GER_AA/GER_AA_ver-1/subject-6.csv","xpyriment","Jazzy James","3.1.6","yes","yes","59504085b83f69022b47a751","595041f76c613b022ae3ecdb","no","no","0","j","f","space","NA","space","space","j","1093","3764","15045","NA","32325","15398","1093","2","legacy","1024","1","44100","-16","experiment","jpal","23","Fuerstenfeldbruck","1","0","1","Deutsch","Englisch","6","even","Koeln","233226","217892","NA","236991","233222","NA","1611","232995","1612","1611","113688","146017","375926","374420","377020","175406","161713","217892","19510","91728","216220","161479","233226","161717","NA","375926","375926","204188","204185","374416","NAP perception","25","61967","44","yes","1024"
"57.7777777778","yes","57.7777777778","1398.08888889","1398.08888889","white","no","xpyriment","I have read and understood the information shown above","legacy","legacy","0","uniform","1","0","0","undefined","undefined","1","j","1","0","NA","0","0","0","0","0","0","0","0","0","54","54","54","0","0","0","0","0","1","0","0","0","1","54","54","54","54","54","Wed Jun 28 17:53:15 2017","Forced-choice identification task with a practice and an experimental phase","yes","NAP-FC_GER_AA_ver-1.osexp","/Users/aviadalbert/Documents/Academisch/UoC/Dissertation/Experiment/OpenSesame/NAP-FC/NAP-FC_GER_AA/GER_AA_ver-1","yes","no","sans","no","20","no","black","no","Next","yes","768","legacy","44","9","0","/Users/aviadalbert/Documents/Academisch/UoC/Dissertation/Experiment/OpenSesame/NAP-FC/NAP-FC_GER_AA/GER_AA_ver-1/subject-6.csv","xpyriment","Jazzy James","3.1.6","yes","yes","59504085b83f69022b47a751","595041f76c613b022ae3ecdb","no","no","0","j","f","space","NA","space","space","j","947","3764","15045","NA","32325","15398","947","2","legacy","1024","1","44100","-16","experiment","sepal","23","Fuerstenfeldbruck","1","0","1","Deutsch","Englisch","6","even","Koeln","233226","217892","NA","236991","233222","NA","1611","232995","1612","1611","113688","146017","378789","377286","379737","175406","161713","217892","19510","91728","216220","161479","233226","161717","NA","378789","378789","204188","204185","377282","NAP perception","26","62914","45","yes","1024"
"58.6956521739","yes","58.6956521739","1390.26086957","1390.26086957","white","no","xpyriment","I have read and understood the information shown above","legacy","legacy","0","uniform","1","0","0","undefined","undefined","1","f","1","0","NA","0","0","0","0","0","0","0","0","0","55","55","55","0","0","0","0","0","1","0","0","0","1","55","55","55","55","55","Wed Jun 28 17:53:15 2017","Forced-choice identification task with a practice and an experimental phase","yes","NAP-FC_GER_AA_ver-1.osexp","/Users/aviadalbert/Documents/Academisch/UoC/Dissertation/Experiment/OpenSesame/NAP-FC/NAP-FC_GER_AA/GER_AA_ver-1","yes","no","sans","no","20","no","black","no","Next","yes","768","legacy","45","9","0","/Users/aviadalbert/Documents/Academisch/UoC/Dissertation/Experiment/OpenSesame/NAP-FC/NAP-FC_GER_AA/GER_AA_ver-1/subject-6.csv","xpyriment","Jazzy James","3.1.6","yes","yes","59504085b83f69022b47a751","595041f76c613b022ae3ecdb","no","no","0","f","f","space","NA","space","space","f","1038","3764","15045","NA","32325","15398","1038","2","legacy","1024","1","44100","-16","experiment","sfal","23","Fuerstenfeldbruck","1","0","1","Deutsch","Englisch","6","even","Koeln","233226","217892","NA","236991","233222","NA","1611","232995","1612","1611","113688","146017","381502","379996","382541","175406","161713","217892","19510","91728","216220","161479","233226","161717","NA","381502","381502","204188","204185","379992","NAP perception","27","63952","46","yes","1024"
"59.5744680851","yes","59.5744680851","1386.87234043","1386.87234043","white","no","xpyriment","I have read and understood the information shown above","legacy","legacy","0","uniform","1","0","0","undefined","undefined","1","j","1","0","NA","0","0","0","0","0","0","0","0","0","56","56","56","0","0","0","0","0","1","0","0","0","1","56","56","56","56","56","Wed Jun 28 17:53:15 2017","Forced-choice identification task with a practice and an experimental phase","yes","NAP-FC_GER_AA_ver-1.osexp","/Users/aviadalbert/Documents/Academisch/UoC/Dissertation/Experiment/OpenSesame/NAP-FC/NAP-FC_GER_AA/GER_AA_ver-1","yes","no","sans","no","20","no","black","no","Next","yes","768","legacy","46","9","0","/Users/aviadalbert/Documents/Academisch/UoC/Dissertation/Experiment/OpenSesame/NAP-FC/NAP-FC_GER_AA/GER_AA_ver-1/subject-6.csv","xpyriment","Jazzy James","3.1.6","yes","yes","59504085b83f69022b47a751","595041f76c613b022ae3ecdb","no","no","0","j","f","space","NA","space","space","j","1231","3764","15045","NA","32325","15398","1231","2","legacy","1024","1","44100","-16","experiment","esfal","23","Fuerstenfeldbruck","1","0","1","Deutsch","Englisch","6","even","Koeln","233226","217892","NA","236991","233222","NA","1611","232995","1612","1611","113688","146017","384318","382815","385550","175406","161713","217892","19510","91728","216220","161479","233226","161717","NA","384318","384318","204188","204185","382811","NAP perception","28","65183","47","yes","1024"
"58.3333333333","yes","58.3333333333","1380.8125","1380.8125","white","no","xpyriment","I have read and understood the information shown above","legacy","legacy","0","uniform","0","0","0","undefined","undefined","0","f","1","0","NA","0","0","0","0","0","0","0","0","0","57","57","57","0","0","0","0","0","1","0","0","0","1","57","57","57","57","57","Wed Jun 28 17:53:15 2017","Forced-choice identification task with a practice and an experimental phase","yes","NAP-FC_GER_AA_ver-1.osexp","/Users/aviadalbert/Documents/Academisch/UoC/Dissertation/Experiment/OpenSesame/NAP-FC/NAP-FC_GER_AA/GER_AA_ver-1","yes","no","sans","no","20","no","black","no","Next","yes","768","legacy","47","9","0","/Users/aviadalbert/Documents/Academisch/UoC/Dissertation/Experiment/OpenSesame/NAP-FC/NAP-FC_GER_AA/GER_AA_ver-1/subject-6.csv","xpyriment","Jazzy James","3.1.6","yes","yes","59504085b83f69022b47a751","595041f76c613b022ae3ecdb","no","no","0","j","f","space","NA","space","space","j","1096","3764","15045","NA","32325","15398","1096","2","legacy","1024","1","44100","-16","experiment","lkal","23","Fuerstenfeldbruck","1","0","1","Deutsch","Englisch","6","even","Koeln","233226","217892","NA","236991","233222","NA","1611","232995","1612","1611","113688","146017","387319","385812","388416","175406","161713","217892","19510","91728","216220","161479","233226","161717","NA","387319","387319","204188","204185","385809","NAP perception","28","66279","48","yes","1024"
"57.1428571429","yes","57.1428571429","1374.73469388","1374.73469388","white","no","xpyriment","I have read and understood the information shown above","legacy","legacy","0","uniform","0","0","0","undefined","undefined","0","f","1","0","NA","0","0","0","0","0","0","0","0","0","58","58","58","0","0","0","0","0","1","0","0","0","1","58","58","58","58","58","Wed Jun 28 17:53:15 2017","Forced-choice identification task with a practice and an experimental phase","yes","NAP-FC_GER_AA_ver-1.osexp","/Users/aviadalbert/Documents/Academisch/UoC/Dissertation/Experiment/OpenSesame/NAP-FC/NAP-FC_GER_AA/GER_AA_ver-1","yes","no","sans","no","20","no","black","no","Next","yes","768","legacy","48","9","0","/Users/aviadalbert/Documents/Academisch/UoC/Dissertation/Experiment/OpenSesame/NAP-FC/NAP-FC_GER_AA/GER_AA_ver-1/subject-6.csv","xpyriment","Jazzy James","3.1.6","yes","yes","59504085b83f69022b47a751","595041f76c613b022ae3ecdb","no","no","0","j","f","space","NA","space","space","j","1083","3764","15045","NA","32325","15398","1083","2","legacy","1024","1","44100","-16","experiment","lfal","23","Fuerstenfeldbruck","1","0","1","Deutsch","Englisch","6","even","Koeln","233226","217892","NA","236991","233222","NA","1611","232995","1612","1611","113688","146017","390190","388686","391275","175406","161713","217892","19510","91728","216220","161479","233226","161717","NA","390190","390190","204188","204185","388682","NAP perception","28","67362","49","yes","1024"
"58","yes","58","1363.04","1363.04","white","no","xpyriment","I have read and understood the information shown above","legacy","legacy","0","uniform","1","0","0","undefined","undefined","1","j","1","0","NA","0","0","0","0","0","0","0","0","0","59","59","59","0","0","0","0","0","1","0","0","0","1","59","59","59","59","59","Wed Jun 28 17:53:15 2017","Forced-choice identification task with a practice and an experimental phase","yes","NAP-FC_GER_AA_ver-1.osexp","/Users/aviadalbert/Documents/Academisch/UoC/Dissertation/Experiment/OpenSesame/NAP-FC/NAP-FC_GER_AA/GER_AA_ver-1","yes","no","sans","no","20","no","black","no","Next","yes","768","legacy","49","9","0","/Users/aviadalbert/Documents/Academisch/UoC/Dissertation/Experiment/OpenSesame/NAP-FC/NAP-FC_GER_AA/GER_AA_ver-1/subject-6.csv","xpyriment","Jazzy James","3.1.6","yes","yes","59504085b83f69022b47a751","595041f76c613b022ae3ecdb","no","no","0","j","f","space","NA","space","space","j","790","3764","15045","NA","32325","15398","790","2","legacy","1024","1","44100","-16","experiment","emzal","23","Fuerstenfeldbruck","1","0","1","Deutsch","Englisch","6","even","Koeln","233226","217892","NA","236991","233222","NA","1611","232995","1612","1611","113688","146017","393034","391531","393826","175406","161713","217892","19510","91728","216220","161479","233226","161717","NA","393034","393034","204188","204185","391527","NAP perception","29","68152","50","yes","1024"
"58.8235294118","yes","58.8235294118","1364.19607843","1364.19607843","white","no","xpyriment","I have read and understood the information shown above","legacy","legacy","0","uniform","1","0","0","undefined","undefined","1","f","1","0","NA","0","0","0","0","0","0","0","0","0","60","60","60","0","0","0","0","0","1","0","0","0","1","60","60","60","60","60","Wed Jun 28 17:53:15 2017","Forced-choice identification task with a practice and an experimental phase","yes","NAP-FC_GER_AA_ver-1.osexp","/Users/aviadalbert/Documents/Academisch/UoC/Dissertation/Experiment/OpenSesame/NAP-FC/NAP-FC_GER_AA/GER_AA_ver-1","yes","no","sans","no","20","no","black","no","Next","yes","768","legacy","50","9","0","/Users/aviadalbert/Documents/Academisch/UoC/Dissertation/Experiment/OpenSesame/NAP-FC/NAP-FC_GER_AA/GER_AA_ver-1/subject-6.csv","xpyriment","Jazzy James","3.1.6","yes","yes","59504085b83f69022b47a751","595041f76c613b022ae3ecdb","no","no","0","f","f","space","NA","space","space","f","1422","3764","15045","NA","32325","15398","1422","2","legacy","1024","1","44100","-16","experiment","flal","23","Fuerstenfeldbruck","1","0","1","Deutsch","Englisch","6","even","Koeln","233226","217892","NA","236991","233222","NA","1611","232995","1612","1611","113688","146017","395597","394091","397021","175406","161713","217892","19510","91728","216220","161479","233226","161717","NA","395597","395597","204188","204185","394087","NAP perception","30","69574","51","yes","1024"
"59.6153846154","yes","59.6153846154","1355.03846154","1355.03846154","white","no","xpyriment","I have read and understood the information shown above","legacy","legacy","0","uniform","1","0","0","undefined","undefined","1","f","1","0","NA","0","0","0","0","0","0","0","0","0","61","61","61","0","0","0","0","0","1","0","0","0","1","61","61","61","61","61","Wed Jun 28 17:53:15 2017","Forced-choice identification task with a practice and an experimental phase","yes","NAP-FC_GER_AA_ver-1.osexp","/Users/aviadalbert/Documents/Academisch/UoC/Dissertation/Experiment/OpenSesame/NAP-FC/NAP-FC_GER_AA/GER_AA_ver-1","yes","no","sans","no","20","no","black","no","Next","yes","768","legacy","51","9","0","/Users/aviadalbert/Documents/Academisch/UoC/Dissertation/Experiment/OpenSesame/NAP-FC/NAP-FC_GER_AA/GER_AA_ver-1/subject-6.csv","xpyriment","Jazzy James","3.1.6","yes","yes","59504085b83f69022b47a751","595041f76c613b022ae3ecdb","no","no","0","f","f","space","NA","space","space","f","888","3764","15045","NA","32325","15398","888","2","legacy","1024","1","44100","-16","experiment","ʃmal","23","Fuerstenfeldbruck","1","0","1","Deutsch","Englisch","6","even","Koeln","233226","217892","NA","236991","233222","NA","1611","232995","1612","1611","113688","146017","398786","397282","399676","175406","161713","217892","19510","91728","216220","161479","233226","161717","NA","398785","398785","204188","204185","397278","NAP perception","31","70462","52","yes","1024"
"60.3773584906","yes","60.3773584906","1353.88679245","1353.88679245","white","no","xpyriment","I have read and understood the information shown above","legacy","legacy","0","uniform","1","0","0","undefined","undefined","1","j","1","0","NA","0","0","0","0","0","0","0","0","0","62","62","62","0","0","0","0","0","1","0","0","0","1","62","62","62","62","62","Wed Jun 28 17:53:15 2017","Forced-choice identification task with a practice and an experimental phase","yes","NAP-FC_GER_AA_ver-1.osexp","/Users/aviadalbert/Documents/Academisch/UoC/Dissertation/Experiment/OpenSesame/NAP-FC/NAP-FC_GER_AA/GER_AA_ver-1","yes","no","sans","no","20","no","black","no","Next","yes","768","legacy","52","9","0","/Users/aviadalbert/Documents/Academisch/UoC/Dissertation/Experiment/OpenSesame/NAP-FC/NAP-FC_GER_AA/GER_AA_ver-1/subject-6.csv","xpyriment","Jazzy James","3.1.6","yes","yes","59504085b83f69022b47a751","595041f76c613b022ae3ecdb","no","no","0","j","f","space","NA","space","space","j","1294","3764","15045","NA","32325","15398","1294","2","legacy","1024","1","44100","-16","experiment","nepal","23","Fuerstenfeldbruck","1","0","1","Deutsch","Englisch","6","even","Koeln","233226","217892","NA","236991","233222","NA","1611","232995","1612","1611","113688","146017","401450","399947","402746","175406","161713","217892","19510","91728","216220","161479","233226","161717","NA","401450","401450","204188","204185","399943","NAP perception","32","71756","53","yes","1024"
"61.1111111111","yes","61.1111111111","1348.18518519","1348.18518519","white","no","xpyriment","I have read and understood the information shown above","legacy","legacy","0","uniform","1","0","0","undefined","undefined","1","f","1","0","NA","0","0","0","0","0","0","0","0","0","63","63","63","0","0","0","0","0","1","0","0","0","1","63","63","63","63","63","Wed Jun 28 17:53:15 2017","Forced-choice identification task with a practice and an experimental phase","yes","NAP-FC_GER_AA_ver-1.osexp","/Users/aviadalbert/Documents/Academisch/UoC/Dissertation/Experiment/OpenSesame/NAP-FC/NAP-FC_GER_AA/GER_AA_ver-1","yes","no","sans","no","20","no","black","no","Next","yes","768","legacy","53","9","0","/Users/aviadalbert/Documents/Academisch/UoC/Dissertation/Experiment/OpenSesame/NAP-FC/NAP-FC_GER_AA/GER_AA_ver-1/subject-6.csv","xpyriment","Jazzy James","3.1.6","yes","yes","59504085b83f69022b47a751","595041f76c613b022ae3ecdb","no","no","0","f","f","space","NA","space","space","f","1046","3764","15045","NA","32325","15398","1046","2","legacy","1024","1","44100","-16","experiment","nfal","23","Fuerstenfeldbruck","1","0","1","Deutsch","Englisch","6","even","Koeln","233226","217892","NA","236991","233222","NA","1611","232995","1612","1611","113688","146017","404520","403016","405568","175406","161713","217892","19510","91728","216220","161479","233226","161717","NA","404520","404520","204188","204185","403012","NAP perception","33","72802","54","yes","1024"
"60","yes","60","1348.89090909","1348.89090909","white","no","xpyriment","I have read and understood the information shown above","legacy","legacy","0","uniform","0","0","0","undefined","undefined","0","f","1","0","NA","0","0","0","0","0","0","0","0","0","64","64","64","0","0","0","0","0","1","0","0","0","1","64","64","64","64","64","Wed Jun 28 17:53:15 2017","Forced-choice identification task with a practice and an experimental phase","yes","NAP-FC_GER_AA_ver-1.osexp","/Users/aviadalbert/Documents/Academisch/UoC/Dissertation/Experiment/OpenSesame/NAP-FC/NAP-FC_GER_AA/GER_AA_ver-1","yes","no","sans","no","20","no","black","no","Next","yes","768","legacy","54","9","0","/Users/aviadalbert/Documents/Academisch/UoC/Dissertation/Experiment/OpenSesame/NAP-FC/NAP-FC_GER_AA/GER_AA_ver-1/subject-6.csv","xpyriment","Jazzy James","3.1.6","yes","yes","59504085b83f69022b47a751","595041f76c613b022ae3ecdb","no","no","0","j","f","space","NA","space","space","j","1387","3764","15045","NA","32325","15398","1387","2","legacy","1024","1","44100","-16","experiment","wnal","23","Fuerstenfeldbruck","1","0","1","Deutsch","Englisch","6","even","Koeln","233226","217892","NA","236991","233222","NA","1611","232995","1612","1611","113688","146017","407325","405820","408714","175406","161713","217892","19510","91728","216220","161479","233226","161717","NA","407324","407324","204188","204185","405816","NAP perception","33","74189","55","yes","1024"
"60.7142857143","yes","60.7142857143","1351.58928571","1351.58928571","white","no","xpyriment","I have read and understood the information shown above","legacy","legacy","0","uniform","1","0","0","undefined","undefined","1","j","1","0","NA","0","0","0","0","0","0","0","0","0","65","65","65","0","0","0","0","0","1","0","0","0","1","65","65","65","65","65","Wed Jun 28 17:53:15 2017","Forced-choice identification task with a practice and an experimental phase","yes","NAP-FC_GER_AA_ver-1.osexp","/Users/aviadalbert/Documents/Academisch/UoC/Dissertation/Experiment/OpenSesame/NAP-FC/NAP-FC_GER_AA/GER_AA_ver-1","yes","no","sans","no","20","no","black","no","Next","yes","768","legacy","55","9","0","/Users/aviadalbert/Documents/Academisch/UoC/Dissertation/Experiment/OpenSesame/NAP-FC/NAP-FC_GER_AA/GER_AA_ver-1/subject-6.csv","xpyriment","Jazzy James","3.1.6","yes","yes","59504085b83f69022b47a751","595041f76c613b022ae3ecdb","no","no","0","j","f","space","NA","space","space","j","1500","3764","15045","NA","32325","15398","1500","2","legacy","1024","1","44100","-16","experiment","jefal","23","Fuerstenfeldbruck","1","0","1","Deutsch","Englisch","6","even","Koeln","233226","217892","NA","236991","233222","NA","1611","232995","1612","1611","113688","146017","410477","408973","411979","175406","161713","217892","19510","91728","216220","161479","233226","161717","NA","410476","410477","204188","204185","408969","NAP perception","34","75689","56","yes","1024"
"61.4035087719","yes","61.4035087719","1350.71929825","1350.71929825","white","no","xpyriment","I have read and understood the information shown above","legacy","legacy","0","uniform","1","0","0","undefined","undefined","1","j","1","0","NA","0","0","0","0","0","0","0","0","0","66","66","66","0","0","0","0","0","1","0","0","0","1","66","66","66","66","66","Wed Jun 28 17:53:15 2017","Forced-choice identification task with a practice and an experimental phase","yes","NAP-FC_GER_AA_ver-1.osexp","/Users/aviadalbert/Documents/Academisch/UoC/Dissertation/Experiment/OpenSesame/NAP-FC/NAP-FC_GER_AA/GER_AA_ver-1","yes","no","sans","no","20","no","black","no","Next","yes","768","legacy","56","9","0","/Users/aviadalbert/Documents/Academisch/UoC/Dissertation/Experiment/OpenSesame/NAP-FC/NAP-FC_GER_AA/GER_AA_ver-1/subject-6.csv","xpyriment","Jazzy James","3.1.6","yes","yes","59504085b83f69022b47a751","595041f76c613b022ae3ecdb","no","no","0","j","f","space","NA","space","space","j","1302","3764","15045","NA","32325","15398","1302","2","legacy","1024","1","44100","-16","experiment","enfal","23","Fuerstenfeldbruck","1","0","1","Deutsch","Englisch","6","even","Koeln","233226","217892","NA","236991","233222","NA","1611","232995","1612","1611","113688","146017","413739","412236","415043","175406","161713","217892","19510","91728","216220","161479","233226","161717","NA","413739","413739","204188","204185","412232","NAP perception","35","76991","57","yes","1024"
