"acc","accept_status","accuracy","average_response_time","avg_rt","background","bidi","canvas_backend","checkbox_status","clock_backend","color_backend","compensation","coordinates","correct","correct_block_activation","correct_block_exit","correct_instructions_1","correct_instructions_2","correct_keyboard_response","correct_response","count_block_activation","count_block_exit","count_block_info_QA","count_cont_e_block_message","count_e_block_loop","count_e_block_sequence","count_end_of_experiment","count_experiment","count_experimental_loop","count_form_consent","count_info_forms","count_instructions_1","count_instructions_2","count_keyboard_response","count_listen_message","count_logger","count_p_block_loop","count_p_block_sequence","count_p_feedback","count_pause_feedback","count_personal_details_form_1","count_personal_details_form_2","count_post_loop_blank","count_practice_loop","count_pre_e_block_message","count_pre_p_block_message","count_reset_feedback","count_stimulus_image","count_stimulus_sound","count_timeout_message","count_timeout_sound","count_trial_sequence","datetime","description","disable_garbage_collection","experiment_file","experiment_path","expyriment_opengl","font_bold","font_family","font_italic","font_size","font_underline","foreground","form_clicks","form_response","fullscreen","height","keyboard_backend","live_row","live_row_p_block_loop","live_row_practice_loop","logfile","mouse_backend","opensesame_codename","opensesame_version","osf_always_upload_data","osf_always_upload_experiment","osf_datanode_id","osf_id","practice","pygame_doublebuf","repeat_cycle","response","response_block_activation","response_block_exit","response_block_info_QA","response_instructions_1","response_instructions_2","response_keyboard_response","response_time","response_time_block_activation","response_time_block_exit","response_time_block_info_QA","response_time_instructions_1","response_time_instructions_2","response_time_keyboard_response","round_decimals","sampler_backend","sound_buf_size","sound_channels","sound_freq","sound_sample_size","start","stimulus","subject_age","subject_education","subject_gender","subject_german_native","subject_handedness","subject_language_other","subject_nr","subject_other_native_lang","subject_parity","time_block_activation","time_block_exit","time_block_info_QA","time_cont_e_block_message","time_e_block_loop","time_e_block_sequence","time_end_of_experiment","time_experiment","time_experimental_loop","time_form_consent","time_info_forms","time_instructions_1","time_instructions_2","time_keyboard_response","time_listen_message","time_logger","time_p_block_loop","time_p_block_sequence","time_p_feedback","time_pause_feedback","time_personal_details_form_1","time_personal_details_form_2","time_post_loop_blank","time_practice_loop","time_pre_e_block_message","time_pre_p_block_message","time_reset_feedback","time_stimulus_image","time_stimulus_sound","time_timeout_message","time_timeout_sound","time_trial_sequence","title","total_correct","total_response_time","total_responses","uniform_coordinates","width"
"100","yes","100","1596","1596","white","no","xpyriment","Ich habe die obigen Informationen gelesen und verstanden.","legacy","legacy","0","uniform","1","0","NA","undefined","undefined","1","f","0","0","NA","NA","NA","NA","NA","0","0","0","0","0","0","0","0","0","0","0","NA","NA","0","0","0","0","NA","0","0","0","0","0","0","0","Sat Nov 11 19:20:25 2017","Forced-choice identification task with a practice and an experimental phase","yes","NAP_GER_AA_4blocks_noglides.osexp","/Users/aviadalbert/Documents/Academisch/UoC/Dissertation/Experiment/OpenSesame/NAP-FC/NAP_GER_AA_4blocks_noglides","yes","no","sans","no","20","no","black","no","Weiter","yes","768","legacy","0","0","0","/Users/aviadalbert/Documents/Academisch/UoC/Dissertation/Experiment/OpenSesame/NAP-FC/NAP_GER_AA_4blocks_noglides/subject-46.csv","xpyriment","Jazzy James","3.1.9","yes","yes","59a800d99ad5a1025d81bb03","59a801616c613b0251691de0","yes","no","0","f","f","NA","NA","space","space","f","1596","2834","NA","NA","19434","12697","1596","2","legacy","1024","1","44100","-16","experiment","flal","3","2","0","0","1","niederlaendisch, portugiesisch, englisch","46","","even","139131","NA","NA","NA","NA","NA","NA","1867","NA","1867","1867","106713","126152","143690","142186","145287","141966","139127","NA","NA","35485","95323","NA","138910","NA","139130","NA","143689","143689","NA","NA","142182","NAP perception","1","1596","1","yes","1024"
"100","yes","100","1494","1494","white","no","xpyriment","Ich habe die obigen Informationen gelesen und verstanden.","legacy","legacy","0","uniform","1","0","NA","undefined","undefined","1","j","0","0","NA","NA","NA","NA","NA","0","0","0","0","0","0","1","1","1","0","0","NA","NA","0","0","0","0","NA","0","0","1","1","1","1","1","Sat Nov 11 19:20:25 2017","Forced-choice identification task with a practice and an experimental phase","yes","NAP_GER_AA_4blocks_noglides.osexp","/Users/aviadalbert/Documents/Academisch/UoC/Dissertation/Experiment/OpenSesame/NAP-FC/NAP_GER_AA_4blocks_noglides","yes","no","sans","no","20","no","black","no","Weiter","yes","768","legacy","1","1","0","/Users/aviadalbert/Documents/Academisch/UoC/Dissertation/Experiment/OpenSesame/NAP-FC/NAP_GER_AA_4blocks_noglides/subject-46.csv","xpyriment","Jazzy James","3.1.9","yes","yes","59a800d99ad5a1025d81bb03","59a801616c613b0251691de0","yes","no","0","j","f","NA","NA","space","space","j","1392","2834","NA","NA","19434","12697","1392","2","legacy","1024","1","44100","-16","experiment","lepal","3","2","0","0","1","niederlaendisch, portugiesisch, englisch","46","","even","139131","NA","NA","NA","NA","NA","NA","1867","NA","1867","1867","106713","126152","147052","145548","148445","141966","139127","NA","NA","35485","95323","NA","138910","NA","139130","NA","147052","147052","NA","NA","145543","NAP perception","2","2988","2","yes","1024"
"66.6666666667","yes","66.6666666667","1447.33333333","1447.33333333","white","no","xpyriment","Ich habe die obigen Informationen gelesen und verstanden.","legacy","legacy","0","uniform","0","0","NA","undefined","undefined","0","j","0","0","NA","NA","NA","NA","NA","0","0","0","0","0","0","2","2","2","0","0","NA","NA","0","0","0","0","NA","0","0","2","2","2","2","2","Sat Nov 11 19:20:25 2017","Forced-choice identification task with a practice and an experimental phase","yes","NAP_GER_AA_4blocks_noglides.osexp","/Users/aviadalbert/Documents/Academisch/UoC/Dissertation/Experiment/OpenSesame/NAP-FC/NAP_GER_AA_4blocks_noglides","yes","no","sans","no","20","no","black","no","Weiter","yes","768","legacy","2","2","0","/Users/aviadalbert/Documents/Academisch/UoC/Dissertation/Experiment/OpenSesame/NAP-FC/NAP_GER_AA_4blocks_noglides/subject-46.csv","xpyriment","Jazzy James","3.1.9","yes","yes","59a800d99ad5a1025d81bb03","59a801616c613b0251691de0","yes","no","0","f","f","NA","NA","space","space","f","1354","2834","NA","NA","19434","12697","1354","2","legacy","1024","1","44100","-16","experiment","emtal","3","2","0","0","1","niederlaendisch, portugiesisch, englisch","46","","even","139131","NA","NA","NA","NA","NA","NA","1867","NA","1867","1867","106713","126152","150213","148709","151568","141966","139127","NA","NA","35485","95323","NA","138910","NA","139130","NA","150212","150212","NA","NA","148704","NAP perception","2","4342","3","yes","1024"
"75","yes","75","1475.75","1475.75","white","no","xpyriment","Ich habe die obigen Informationen gelesen und verstanden.","legacy","legacy","0","uniform","1","0","NA","undefined","undefined","1","f","0","0","NA","NA","NA","NA","NA","0","0","0","0","0","0","3","3","3","0","0","NA","NA","0","0","0","0","NA","0","0","3","3","3","3","3","Sat Nov 11 19:20:25 2017","Forced-choice identification task with a practice and an experimental phase","yes","NAP_GER_AA_4blocks_noglides.osexp","/Users/aviadalbert/Documents/Academisch/UoC/Dissertation/Experiment/OpenSesame/NAP-FC/NAP_GER_AA_4blocks_noglides","yes","no","sans","no","20","no","black","no","Weiter","yes","768","legacy","3","3","0","/Users/aviadalbert/Documents/Academisch/UoC/Dissertation/Experiment/OpenSesame/NAP-FC/NAP_GER_AA_4blocks_noglides/subject-46.csv","xpyriment","Jazzy James","3.1.9","yes","yes","59a800d99ad5a1025d81bb03","59a801616c613b0251691de0","yes","no","0","f","f","NA","NA","space","space","f","1561","2834","NA","NA","19434","12697","1561","2","legacy","1024","1","44100","-16","experiment","ʃpal","3","2","0","0","1","niederlaendisch, portugiesisch, englisch","46","","even","139131","NA","NA","NA","NA","NA","NA","1867","NA","1867","1867","106713","126152","153345","151839","154907","141966","139127","NA","NA","35485","95323","NA","138910","NA","139130","NA","153344","153344","NA","NA","151834","NAP perception","3","5903","4","yes","1024"
"80","yes","80","1502.6","1502.6","white","no","xpyriment","Ich habe die obigen Informationen gelesen und verstanden.","legacy","legacy","0","uniform","1","0","NA","undefined","undefined","1","j","0","0","NA","NA","NA","NA","NA","0","0","0","0","0","0","4","4","4","0","0","NA","NA","0","0","0","0","NA","0","0","4","4","4","4","4","Sat Nov 11 19:20:25 2017","Forced-choice identification task with a practice and an experimental phase","yes","NAP_GER_AA_4blocks_noglides.osexp","/Users/aviadalbert/Documents/Academisch/UoC/Dissertation/Experiment/OpenSesame/NAP-FC/NAP_GER_AA_4blocks_noglides","yes","no","sans","no","20","no","black","no","Weiter","yes","768","legacy","4","4","0","/Users/aviadalbert/Documents/Academisch/UoC/Dissertation/Experiment/OpenSesame/NAP-FC/NAP_GER_AA_4blocks_noglides/subject-46.csv","xpyriment","Jazzy James","3.1.9","yes","yes","59a800d99ad5a1025d81bb03","59a801616c613b0251691de0","yes","no","0","j","f","NA","NA","space","space","j","1610","2834","NA","NA","19434","12697","1610","2","legacy","1024","1","44100","-16","experiment","nefal","3","2","0","0","1","niederlaendisch, portugiesisch, englisch","46","","even","139131","NA","NA","NA","NA","NA","NA","1867","NA","1867","1867","106713","126152","156683","155179","158294","141966","139127","NA","NA","35485","95323","NA","138910","NA","139130","NA","156682","156682","NA","NA","155174","NAP perception","4","7513","5","yes","1024"
"83.3333333333","yes","83.3333333333","1505.33333333","1505.33333333","white","no","xpyriment","Ich habe die obigen Informationen gelesen und verstanden.","legacy","legacy","0","uniform","1","0","NA","undefined","undefined","1","f","0","0","NA","NA","NA","NA","NA","0","0","0","0","0","0","5","5","5","0","0","NA","NA","0","0","0","0","NA","0","0","5","5","5","5","5","Sat Nov 11 19:20:25 2017","Forced-choice identification task with a practice and an experimental phase","yes","NAP_GER_AA_4blocks_noglides.osexp","/Users/aviadalbert/Documents/Academisch/UoC/Dissertation/Experiment/OpenSesame/NAP-FC/NAP_GER_AA_4blocks_noglides","yes","no","sans","no","20","no","black","no","Weiter","yes","768","legacy","5","5","0","/Users/aviadalbert/Documents/Academisch/UoC/Dissertation/Experiment/OpenSesame/NAP-FC/NAP_GER_AA_4blocks_noglides/subject-46.csv","xpyriment","Jazzy James","3.1.9","yes","yes","59a800d99ad5a1025d81bb03","59a801616c613b0251691de0","yes","no","0","f","f","NA","NA","space","space","f","1519","2834","NA","NA","19434","12697","1519","2","legacy","1024","1","44100","-16","experiment","sfal","3","2","0","0","1","niederlaendisch, portugiesisch, englisch","46","","even","139131","NA","NA","NA","NA","NA","NA","1867","NA","1867","1867","106713","126152","160061","158557","161581","141966","139127","NA","NA","35485","95323","NA","138910","NA","139130","NA","160061","160061","NA","NA","158553","NAP perception","5","9032","6","yes","1024"
"85.7142857143","yes","85.7142857143","1540.28571429","1540.28571429","white","no","xpyriment","Ich habe die obigen Informationen gelesen und verstanden.","legacy","legacy","0","uniform","1","0","NA","undefined","undefined","1","f","0","0","NA","NA","NA","NA","NA","0","0","0","0","0","0","6","6","6","0","0","NA","NA","0","0","0","0","NA","0","0","6","6","6","6","6","Sat Nov 11 19:20:25 2017","Forced-choice identification task with a practice and an experimental phase","yes","NAP_GER_AA_4blocks_noglides.osexp","/Users/aviadalbert/Documents/Academisch/UoC/Dissertation/Experiment/OpenSesame/NAP-FC/NAP_GER_AA_4blocks_noglides","yes","no","sans","no","20","no","black","no","Weiter","yes","768","legacy","6","6","0","/Users/aviadalbert/Documents/Academisch/UoC/Dissertation/Experiment/OpenSesame/NAP-FC/NAP_GER_AA_4blocks_noglides/subject-46.csv","xpyriment","Jazzy James","3.1.9","yes","yes","59a800d99ad5a1025d81bb03","59a801616c613b0251691de0","yes","no","0","f","f","NA","NA","space","space","f","1750","2834","NA","NA","19434","12697","1750","2","legacy","1024","1","44100","-16","experiment","zmal","3","2","0","0","1","niederlaendisch, portugiesisch, englisch","46","","even","139131","NA","NA","NA","NA","NA","NA","1867","NA","1867","1867","106713","126152","163341","161835","165092","141966","139127","NA","NA","35485","95323","NA","138910","NA","139130","NA","163341","163341","NA","NA","161831","NAP perception","6","10782","7","yes","1024"
"75","yes","75","1622.75","1622.75","white","no","xpyriment","Ich habe die obigen Informationen gelesen und verstanden.","legacy","legacy","0","uniform","0","0","NA","undefined","undefined","0","j","0","0","NA","NA","NA","NA","NA","0","0","0","0","0","0","7","7","7","0","0","NA","NA","0","0","0","0","NA","0","0","7","7","7","7","7","Sat Nov 11 19:20:25 2017","Forced-choice identification task with a practice and an experimental phase","yes","NAP_GER_AA_4blocks_noglides.osexp","/Users/aviadalbert/Documents/Academisch/UoC/Dissertation/Experiment/OpenSesame/NAP-FC/NAP_GER_AA_4blocks_noglides","yes","no","sans","no","20","no","black","no","Weiter","yes","768","legacy","7","7","0","/Users/aviadalbert/Documents/Academisch/UoC/Dissertation/Experiment/OpenSesame/NAP-FC/NAP_GER_AA_4blocks_noglides/subject-46.csv","xpyriment","Jazzy James","3.1.9","yes","yes","59a800d99ad5a1025d81bb03","59a801616c613b0251691de0","yes","no","0","f","f","NA","NA","space","space","f","2200","2834","NA","NA","19434","12697","2200","2","legacy","1024","1","44100","-16","experiment","mesal","3","2","0","0","1","niederlaendisch, portugiesisch, englisch","46","","even","139131","NA","NA","NA","NA","NA","NA","1867","NA","1867","1867","106713","126152","166870","165362","169071","141966","139127","NA","NA","35485","95323","NA","138910","NA","139130","NA","166870","166870","NA","NA","165358","NAP perception","6","12982","8","yes","1024"
"77.7777777778","yes","77.7777777778","1560.11111111","1560.11111111","white","no","xpyriment","Ich habe die obigen Informationen gelesen und verstanden.","legacy","legacy","0","uniform","1","0","NA","undefined","undefined","1","j","0","0","NA","NA","NA","NA","NA","0","0","0","0","0","0","8","8","8","0","0","NA","NA","0","0","0","0","NA","0","0","8","8","8","8","8","Sat Nov 11 19:20:25 2017","Forced-choice identification task with a practice and an experimental phase","yes","NAP_GER_AA_4blocks_noglides.osexp","/Users/aviadalbert/Documents/Academisch/UoC/Dissertation/Experiment/OpenSesame/NAP-FC/NAP_GER_AA_4blocks_noglides","yes","no","sans","no","20","no","black","no","Weiter","yes","768","legacy","8","8","0","/Users/aviadalbert/Documents/Academisch/UoC/Dissertation/Experiment/OpenSesame/NAP-FC/NAP_GER_AA_4blocks_noglides/subject-46.csv","xpyriment","Jazzy James","3.1.9","yes","yes","59a800d99ad5a1025d81bb03","59a801616c613b0251691de0","yes","no","0","j","f","NA","NA","space","space","j","1059","2834","NA","NA","19434","12697","1059","2","legacy","1024","1","44100","-16","experiment","enval","3","2","0","0","1","niederlaendisch, portugiesisch, englisch","46","","even","139131","NA","NA","NA","NA","NA","NA","1867","NA","1867","1867","106713","126152","170873","169367","171933","141966","139127","NA","NA","35485","95323","NA","138910","NA","139130","NA","170873","170873","NA","NA","169363","NAP perception","7","14041","9","yes","1024"
"80","yes","80","1565.4","1565.4","white","no","xpyriment","Ich habe die obigen Informationen gelesen und verstanden.","legacy","legacy","0","uniform","1","0","NA","undefined","undefined","1","f","0","0","NA","NA","NA","NA","NA","0","0","0","0","0","0","9","9","9","0","0","NA","NA","0","0","0","0","NA","0","0","9","9","9","9","9","Sat Nov 11 19:20:25 2017","Forced-choice identification task with a practice and an experimental phase","yes","NAP_GER_AA_4blocks_noglides.osexp","/Users/aviadalbert/Documents/Academisch/UoC/Dissertation/Experiment/OpenSesame/NAP-FC/NAP_GER_AA_4blocks_noglides","yes","no","sans","no","20","no","black","no","Weiter","yes","768","legacy","9","9","0","/Users/aviadalbert/Documents/Academisch/UoC/Dissertation/Experiment/OpenSesame/NAP-FC/NAP_GER_AA_4blocks_noglides/subject-46.csv","xpyriment","Jazzy James","3.1.9","yes","yes","59a800d99ad5a1025d81bb03","59a801616c613b0251691de0","yes","no","0","f","f","NA","NA","space","space","f","1613","2834","NA","NA","19434","12697","1613","2","legacy","1024","1","44100","-16","experiment","vlal","3","2","0","0","1","niederlaendisch, portugiesisch, englisch","46","","even","139131","NA","NA","NA","NA","NA","NA","1867","NA","1867","1867","106713","126152","173705","172199","175319","141966","139127","NA","NA","35485","95323","NA","138910","NA","139130","NA","173704","173705","NA","NA","172195","NAP perception","8","15654","10","yes","1024"
"100","yes","100","1155","1155","white","no","xpyriment","Ich habe die obigen Informationen gelesen und verstanden.","legacy","legacy","0","uniform","1","0","0","undefined","undefined","1","j","2","1","NA","0","1","0","0","0","0","0","0","0","0","10","10","10","0","0","0","NA","0","0","2","0","0","0","2","10","10","10","10","10","Sat Nov 11 19:20:25 2017","Forced-choice identification task with a practice and an experimental phase","yes","NAP_GER_AA_4blocks_noglides.osexp","/Users/aviadalbert/Documents/Academisch/UoC/Dissertation/Experiment/OpenSesame/NAP-FC/NAP_GER_AA_4blocks_noglides","yes","no","sans","no","20","no","black","no","Weiter","yes","768","legacy","0","9","0","/Users/aviadalbert/Documents/Academisch/UoC/Dissertation/Experiment/OpenSesame/NAP-FC/NAP_GER_AA_4blocks_noglides/subject-46.csv","xpyriment","Jazzy James","3.1.9","yes","yes","59a800d99ad5a1025d81bb03","59a801616c613b0251691de0","no","no","0","j","j","space","NA","space","space","j","1155","3706","67089","NA","19434","12697","1155","2","legacy","1024","1","44100","-16","experiment","elpal","3","2","0","0","1","niederlaendisch, portugiesisch, englisch","46","","even","244659","177030","NA","NA","248366","244655","NA","1867","244175","1867","1867","106713","126152","250077","248573","251233","141966","139127","177030","NA","35485","95323","175381","138910","244659","139130","NA","250076","250077","NA","NA","248569","NAP perception","1","1155","1","yes","1024"
"100","yes","100","1429.5","1429.5","white","no","xpyriment","Ich habe die obigen Informationen gelesen und verstanden.","legacy","legacy","0","uniform","1","0","0","undefined","undefined","1","f","2","1","NA","0","1","0","0","0","0","0","0","0","0","11","11","11","0","0","0","NA","0","0","2","0","0","0","2","11","11","11","11","11","Sat Nov 11 19:20:25 2017","Forced-choice identification task with a practice and an experimental phase","yes","NAP_GER_AA_4blocks_noglides.osexp","/Users/aviadalbert/Documents/Academisch/UoC/Dissertation/Experiment/OpenSesame/NAP-FC/NAP_GER_AA_4blocks_noglides","yes","no","sans","no","20","no","black","no","Weiter","yes","768","legacy","1","9","0","/Users/aviadalbert/Documents/Academisch/UoC/Dissertation/Experiment/OpenSesame/NAP-FC/NAP_GER_AA_4blocks_noglides/subject-46.csv","xpyriment","Jazzy James","3.1.9","yes","yes","59a800d99ad5a1025d81bb03","59a801616c613b0251691de0","no","no","0","f","j","space","NA","space","space","f","1704","3706","67089","NA","19434","12697","1704","2","legacy","1024","1","44100","-16","experiment","ʃfal","3","2","0","0","1","niederlaendisch, portugiesisch, englisch","46","","even","244659","177030","NA","NA","248366","244655","NA","1867","244175","1867","1867","106713","126152","253016","251512","254721","141966","139127","177030","NA","35485","95323","175381","138910","244659","139130","NA","253016","253016","NA","NA","251508","NAP perception","2","2859","2","yes","1024"
"66.6666666667","yes","66.6666666667","1527","1527","white","no","xpyriment","Ich habe die obigen Informationen gelesen und verstanden.","legacy","legacy","0","uniform","0","0","0","undefined","undefined","0","f","2","1","NA","0","1","0","0","0","0","0","0","0","0","12","12","12","0","0","0","NA","0","0","2","0","0","0","2","12","12","12","12","12","Sat Nov 11 19:20:25 2017","Forced-choice identification task with a practice and an experimental phase","yes","NAP_GER_AA_4blocks_noglides.osexp","/Users/aviadalbert/Documents/Academisch/UoC/Dissertation/Experiment/OpenSesame/NAP-FC/NAP_GER_AA_4blocks_noglides","yes","no","sans","no","20","no","black","no","Weiter","yes","768","legacy","2","9","0","/Users/aviadalbert/Documents/Academisch/UoC/Dissertation/Experiment/OpenSesame/NAP-FC/NAP_GER_AA_4blocks_noglides/subject-46.csv","xpyriment","Jazzy James","3.1.9","yes","yes","59a800d99ad5a1025d81bb03","59a801616c613b0251691de0","no","no","0","j","j","space","NA","space","space","j","1722","3706","67089","NA","19434","12697","1722","2","legacy","1024","1","44100","-16","experiment","mnal","3","2","0","0","1","niederlaendisch, portugiesisch, englisch","46","","even","244659","177030","NA","NA","248366","244655","NA","1867","244175","1867","1867","106713","126152","256511","255007","258234","141966","139127","177030","NA","35485","95323","175381","138910","244659","139130","NA","256511","256511","NA","NA","255002","NAP perception","2","4581","3","yes","1024"
"75","yes","75","1399","1399","white","no","xpyriment","Ich habe die obigen Informationen gelesen und verstanden.","legacy","legacy","0","uniform","1","0","0","undefined","undefined","1","j","2","1","NA","0","1","0","0","0","0","0","0","0","0","13","13","13","0","0","0","NA","0","0","2","0","0","0","2","13","13","13","13","13","Sat Nov 11 19:20:25 2017","Forced-choice identification task with a practice and an experimental phase","yes","NAP_GER_AA_4blocks_noglides.osexp","/Users/aviadalbert/Documents/Academisch/UoC/Dissertation/Experiment/OpenSesame/NAP-FC/NAP_GER_AA_4blocks_noglides","yes","no","sans","no","20","no","black","no","Weiter","yes","768","legacy","3","9","0","/Users/aviadalbert/Documents/Academisch/UoC/Dissertation/Experiment/OpenSesame/NAP-FC/NAP_GER_AA_4blocks_noglides/subject-46.csv","xpyriment","Jazzy James","3.1.9","yes","yes","59a800d99ad5a1025d81bb03","59a801616c613b0251691de0","no","no","0","j","j","space","NA","space","space","j","1015","3706","67089","NA","19434","12697","1015","2","legacy","1024","1","44100","-16","experiment","elmal","3","2","0","0","1","niederlaendisch, portugiesisch, englisch","46","","even","244659","177030","NA","NA","248366","244655","NA","1867","244175","1867","1867","106713","126152","260003","258500","261019","141966","139127","177030","NA","35485","95323","175381","138910","244659","139130","NA","260003","260003","NA","NA","258496","NAP perception","3","5596","4","yes","1024"
"60","yes","60","1397.4","1397.4","white","no","xpyriment","Ich habe die obigen Informationen gelesen und verstanden.","legacy","legacy","0","uniform","0","0","0","undefined","undefined","0","f","2","1","NA","0","1","0","0","0","0","0","0","0","0","14","14","14","0","0","0","NA","0","0","2","0","0","0","2","14","14","14","14","14","Sat Nov 11 19:20:25 2017","Forced-choice identification task with a practice and an experimental phase","yes","NAP_GER_AA_4blocks_noglides.osexp","/Users/aviadalbert/Documents/Academisch/UoC/Dissertation/Experiment/OpenSesame/NAP-FC/NAP_GER_AA_4blocks_noglides","yes","no","sans","no","20","no","black","no","Weiter","yes","768","legacy","4","9","0","/Users/aviadalbert/Documents/Academisch/UoC/Dissertation/Experiment/OpenSesame/NAP-FC/NAP_GER_AA_4blocks_noglides/subject-46.csv","xpyriment","Jazzy James","3.1.9","yes","yes","59a800d99ad5a1025d81bb03","59a801616c613b0251691de0","no","no","0","j","j","space","NA","space","space","j","1391","3706","67089","NA","19434","12697","1391","2","legacy","1024","1","44100","-16","experiment","npal","3","2","0","0","1","niederlaendisch, portugiesisch, englisch","46","","even","244659","177030","NA","NA","248366","244655","NA","1867","244175","1867","1867","106713","126152","262809","261304","264201","141966","139127","177030","NA","35485","95323","175381","138910","244659","139130","NA","262808","262809","NA","NA","261300","NAP perception","3","6987","5","yes","1024"
"66.6666666667","yes","66.6666666667","1589.5","1589.5","white","no","xpyriment","Ich habe die obigen Informationen gelesen und verstanden.","legacy","legacy","0","uniform","1","0","0","undefined","undefined","1","f","2","1","NA","0","1","0","0","0","0","0","0","0","0","15","15","15","0","0","0","NA","0","0","2","0","0","0","2","15","15","15","15","15","Sat Nov 11 19:20:25 2017","Forced-choice identification task with a practice and an experimental phase","yes","NAP_GER_AA_4blocks_noglides.osexp","/Users/aviadalbert/Documents/Academisch/UoC/Dissertation/Experiment/OpenSesame/NAP-FC/NAP_GER_AA_4blocks_noglides","yes","no","sans","no","20","no","black","no","Weiter","yes","768","legacy","5","9","0","/Users/aviadalbert/Documents/Academisch/UoC/Dissertation/Experiment/OpenSesame/NAP-FC/NAP_GER_AA_4blocks_noglides/subject-46.csv","xpyriment","Jazzy James","3.1.9","yes","yes","59a800d99ad5a1025d81bb03","59a801616c613b0251691de0","no","no","0","f","j","space","NA","space","space","f","2550","3706","67089","NA","19434","12697","2550","2","legacy","1024","1","44100","-16","experiment","mzal","3","2","0","0","1","niederlaendisch, portugiesisch, englisch","46","","even","244659","177030","NA","NA","248366","244655","NA","1867","244175","1867","1867","106713","126152","265973","264468","268524","141966","139127","177030","NA","35485","95323","175381","138910","244659","139130","NA","265973","265973","NA","NA","264463","NAP perception","4","9537","6","yes","1024"
"71.4285714286","yes","71.4285714286","1515.57142857","1515.57142857","white","no","xpyriment","Ich habe die obigen Informationen gelesen und verstanden.","legacy","legacy","0","uniform","1","0","0","undefined","undefined","1","j","2","1","NA","0","1","0","0","0","0","0","0","0","0","16","16","16","0","0","0","NA","0","0","2","0","0","0","2","16","16","16","16","16","Sat Nov 11 19:20:25 2017","Forced-choice identification task with a practice and an experimental phase","yes","NAP_GER_AA_4blocks_noglides.osexp","/Users/aviadalbert/Documents/Academisch/UoC/Dissertation/Experiment/OpenSesame/NAP-FC/NAP_GER_AA_4blocks_noglides","yes","no","sans","no","20","no","black","no","Weiter","yes","768","legacy","6","9","0","/Users/aviadalbert/Documents/Academisch/UoC/Dissertation/Experiment/OpenSesame/NAP-FC/NAP_GER_AA_4blocks_noglides/subject-46.csv","xpyriment","Jazzy James","3.1.9","yes","yes","59a800d99ad5a1025d81bb03","59a801616c613b0251691de0","no","no","0","j","j","space","NA","space","space","j","1072","3706","67089","NA","19434","12697","1072","2","legacy","1024","1","44100","-16","experiment","melal","3","2","0","0","1","niederlaendisch, portugiesisch, englisch","46","","even","244659","177030","NA","NA","248366","244655","NA","1867","244175","1867","1867","106713","126152","270314","268808","271387","141966","139127","177030","NA","35485","95323","175381","138910","244659","139130","NA","270313","270314","NA","NA","268804","NAP perception","5","10609","7","yes","1024"
"62.5","yes","62.5","1601.5","1601.5","white","no","xpyriment","Ich habe die obigen Informationen gelesen und verstanden.","legacy","legacy","0","uniform","0","0","0","undefined","undefined","0","f","2","1","NA","0","1","0","0","0","0","0","0","0","0","17","17","17","0","0","0","NA","0","0","2","0","0","0","2","17","17","17","17","17","Sat Nov 11 19:20:25 2017","Forced-choice identification task with a practice and an experimental phase","yes","NAP_GER_AA_4blocks_noglides.osexp","/Users/aviadalbert/Documents/Academisch/UoC/Dissertation/Experiment/OpenSesame/NAP-FC/NAP_GER_AA_4blocks_noglides","yes","no","sans","no","20","no","black","no","Weiter","yes","768","legacy","7","9","0","/Users/aviadalbert/Documents/Academisch/UoC/Dissertation/Experiment/OpenSesame/NAP-FC/NAP_GER_AA_4blocks_noglides/subject-46.csv","xpyriment","Jazzy James","3.1.9","yes","yes","59a800d99ad5a1025d81bb03","59a801616c613b0251691de0","no","no","0","j","j","space","NA","space","space","j","2203","3706","67089","NA","19434","12697","2203","2","legacy","1024","1","44100","-16","experiment","lfal","3","2","0","0","1","niederlaendisch, portugiesisch, englisch","46","","even","244659","177030","NA","NA","248366","244655","NA","1867","244175","1867","1867","106713","126152","273165","271661","275370","141966","139127","177030","NA","35485","95323","175381","138910","244659","139130","NA","273165","273165","NA","NA","271656","NAP perception","5","12812","8","yes","1024"
"66.6666666667","yes","66.6666666667","1631.55555556","1631.55555556","white","no","xpyriment","Ich habe die obigen Informationen gelesen und verstanden.","legacy","legacy","0","uniform","1","0","0","undefined","undefined","1","f","2","1","NA","0","1","0","0","0","0","0","0","0","0","18","18","18","0","0","0","NA","0","0","2","0","0","0","2","18","18","18","18","18","Sat Nov 11 19:20:25 2017","Forced-choice identification task with a practice and an experimental phase","yes","NAP_GER_AA_4blocks_noglides.osexp","/Users/aviadalbert/Documents/Academisch/UoC/Dissertation/Experiment/OpenSesame/NAP-FC/NAP_GER_AA_4blocks_noglides","yes","no","sans","no","20","no","black","no","Weiter","yes","768","legacy","8","9","0","/Users/aviadalbert/Documents/Academisch/UoC/Dissertation/Experiment/OpenSesame/NAP-FC/NAP_GER_AA_4blocks_noglides/subject-46.csv","xpyriment","Jazzy James","3.1.9","yes","yes","59a800d99ad5a1025d81bb03","59a801616c613b0251691de0","no","no","0","f","j","space","NA","space","space","f","1872","3706","67089","NA","19434","12697","1872","2","legacy","1024","1","44100","-16","experiment","vzal","3","2","0","0","1","niederlaendisch, portugiesisch, englisch","46","","even","244659","177030","NA","NA","248366","244655","NA","1867","244175","1867","1867","106713","126152","277139","275634","279012","141966","139127","177030","NA","35485","95323","175381","138910","244659","139130","NA","277138","277138","NA","NA","275630","NAP perception","6","14684","9","yes","1024"
"70","yes","70","1559","1559","white","no","xpyriment","Ich habe die obigen Informationen gelesen und verstanden.","legacy","legacy","0","uniform","1","0","0","undefined","undefined","1","j","2","1","NA","0","1","0","0","0","0","0","0","0","0","19","19","19","0","0","0","NA","0","0","2","0","0","0","2","19","19","19","19","19","Sat Nov 11 19:20:25 2017","Forced-choice identification task with a practice and an experimental phase","yes","NAP_GER_AA_4blocks_noglides.osexp","/Users/aviadalbert/Documents/Academisch/UoC/Dissertation/Experiment/OpenSesame/NAP-FC/NAP_GER_AA_4blocks_noglides","yes","no","sans","no","20","no","black","no","Weiter","yes","768","legacy","9","9","0","/Users/aviadalbert/Documents/Academisch/UoC/Dissertation/Experiment/OpenSesame/NAP-FC/NAP_GER_AA_4blocks_noglides/subject-46.csv","xpyriment","Jazzy James","3.1.9","yes","yes","59a800d99ad5a1025d81bb03","59a801616c613b0251691de0","no","no","0","j","j","space","NA","space","space","j","906","3706","67089","NA","19434","12697","906","2","legacy","1024","1","44100","-16","experiment","enval","3","2","0","0","1","niederlaendisch, portugiesisch, englisch","46","","even","244659","177030","NA","NA","248366","244655","NA","1867","244175","1867","1867","106713","126152","280793","279285","281700","141966","139127","177030","NA","35485","95323","175381","138910","244659","139130","NA","280792","280793","NA","NA","279281","NAP perception","7","15590","10","yes","1024"
"72.7272727273","yes","72.7272727273","1549.45454545","1549.45454545","white","no","xpyriment","Ich habe die obigen Informationen gelesen und verstanden.","legacy","legacy","0","uniform","1","0","0","undefined","undefined","1","f","2","1","NA","0","1","0","0","0","0","0","0","0","0","20","20","20","0","0","0","NA","0","0","2","0","0","0","2","20","20","20","20","20","Sat Nov 11 19:20:25 2017","Forced-choice identification task with a practice and an experimental phase","yes","NAP_GER_AA_4blocks_noglides.osexp","/Users/aviadalbert/Documents/Academisch/UoC/Dissertation/Experiment/OpenSesame/NAP-FC/NAP_GER_AA_4blocks_noglides","yes","no","sans","no","20","no","black","no","Weiter","yes","768","legacy","10","9","0","/Users/aviadalbert/Documents/Academisch/UoC/Dissertation/Experiment/OpenSesame/NAP-FC/NAP_GER_AA_4blocks_noglides/subject-46.csv","xpyriment","Jazzy James","3.1.9","yes","yes","59a800d99ad5a1025d81bb03","59a801616c613b0251691de0","no","no","0","f","j","space","NA","space","space","f","1454","3706","67089","NA","19434","12697","1454","2","legacy","1024","1","44100","-16","experiment","ʃmal","3","2","0","0","1","niederlaendisch, portugiesisch, englisch","46","","even","244659","177030","NA","NA","248366","244655","NA","1867","244175","1867","1867","106713","126152","283481","281976","284936","141966","139127","177030","NA","35485","95323","175381","138910","244659","139130","NA","283481","283481","NA","NA","281972","NAP perception","8","17044","11","yes","1024"
"66.6666666667","yes","66.6666666667","1574.25","1574.25","white","no","xpyriment","Ich habe die obigen Informationen gelesen und verstanden.","legacy","legacy","0","uniform","0","0","0","undefined","undefined","0","f","2","1","NA","0","1","0","0","0","0","0","0","0","0","21","21","21","0","0","0","NA","0","0","2","0","0","0","2","21","21","21","21","21","Sat Nov 11 19:20:25 2017","Forced-choice identification task with a practice and an experimental phase","yes","NAP_GER_AA_4blocks_noglides.osexp","/Users/aviadalbert/Documents/Academisch/UoC/Dissertation/Experiment/OpenSesame/NAP-FC/NAP_GER_AA_4blocks_noglides","yes","no","sans","no","20","no","black","no","Weiter","yes","768","legacy","11","9","0","/Users/aviadalbert/Documents/Academisch/UoC/Dissertation/Experiment/OpenSesame/NAP-FC/NAP_GER_AA_4blocks_noglides/subject-46.csv","xpyriment","Jazzy James","3.1.9","yes","yes","59a800d99ad5a1025d81bb03","59a801616c613b0251691de0","no","no","0","j","j","space","NA","space","space","j","1847","3706","67089","NA","19434","12697","1847","2","legacy","1024","1","44100","-16","experiment","lmal","3","2","0","0","1","niederlaendisch, portugiesisch, englisch","46","","even","244659","177030","NA","NA","248366","244655","NA","1867","244175","1867","1867","106713","126152","286718","285214","288567","141966","139127","177030","NA","35485","95323","175381","138910","244659","139130","NA","286717","286717","NA","NA","285210","NAP perception","8","18891","12","yes","1024"
"69.2307692308","yes","69.2307692308","1569.69230769","1569.69230769","white","no","xpyriment","Ich habe die obigen Informationen gelesen und verstanden.","legacy","legacy","0","uniform","1","0","0","undefined","undefined","1","j","2","1","NA","0","1","0","0","0","0","0","0","0","0","22","22","22","0","0","0","NA","0","0","2","0","0","0","2","22","22","22","22","22","Sat Nov 11 19:20:25 2017","Forced-choice identification task with a practice and an experimental phase","yes","NAP_GER_AA_4blocks_noglides.osexp","/Users/aviadalbert/Documents/Academisch/UoC/Dissertation/Experiment/OpenSesame/NAP-FC/NAP_GER_AA_4blocks_noglides","yes","no","sans","no","20","no","black","no","Weiter","yes","768","legacy","12","9","0","/Users/aviadalbert/Documents/Academisch/UoC/Dissertation/Experiment/OpenSesame/NAP-FC/NAP_GER_AA_4blocks_noglides/subject-46.csv","xpyriment","Jazzy James","3.1.9","yes","yes","59a800d99ad5a1025d81bb03","59a801616c613b0251691de0","no","no","0","j","j","space","NA","space","space","j","1515","3706","67089","NA","19434","12697","1515","2","legacy","1024","1","44100","-16","experiment","metal","3","2","0","0","1","niederlaendisch, portugiesisch, englisch","46","","even","244659","177030","NA","NA","248366","244655","NA","1867","244175","1867","1867","106713","126152","290352","288848","291868","141966","139127","177030","NA","35485","95323","175381","138910","244659","139130","NA","290351","290352","NA","NA","288844","NAP perception","9","20406","13","yes","1024"
"71.4285714286","yes","71.4285714286","1563.14285714","1563.14285714","white","no","xpyriment","Ich habe die obigen Informationen gelesen und verstanden.","legacy","legacy","0","uniform","1","0","0","undefined","undefined","1","j","2","1","NA","0","1","0","0","0","0","0","0","0","0","23","23","23","0","0","0","NA","0","0","2","0","0","0","2","23","23","23","23","23","Sat Nov 11 19:20:25 2017","Forced-choice identification task with a practice and an experimental phase","yes","NAP_GER_AA_4blocks_noglides.osexp","/Users/aviadalbert/Documents/Academisch/UoC/Dissertation/Experiment/OpenSesame/NAP-FC/NAP_GER_AA_4blocks_noglides","yes","no","sans","no","20","no","black","no","Weiter","yes","768","legacy","13","9","0","/Users/aviadalbert/Documents/Academisch/UoC/Dissertation/Experiment/OpenSesame/NAP-FC/NAP_GER_AA_4blocks_noglides/subject-46.csv","xpyriment","Jazzy James","3.1.9","yes","yes","59a800d99ad5a1025d81bb03","59a801616c613b0251691de0","no","no","0","j","j","space","NA","space","space","j","1478","3706","67089","NA","19434","12697","1478","2","legacy","1024","1","44100","-16","experiment","fetal","3","2","0","0","1","niederlaendisch, portugiesisch, englisch","46","","even","244659","177030","NA","NA","248366","244655","NA","1867","244175","1867","1867","106713","126152","293657","292149","295136","141966","139127","177030","NA","35485","95323","175381","138910","244659","139130","NA","293656","293656","NA","NA","292145","NAP perception","10","21884","14","yes","1024"
"73.3333333333","yes","73.3333333333","1560.93333333","1560.93333333","white","no","xpyriment","Ich habe die obigen Informationen gelesen und verstanden.","legacy","legacy","0","uniform","1","0","0","undefined","undefined","1","f","2","1","NA","0","1","0","0","0","0","0","0","0","0","24","24","24","0","0","0","NA","0","0","2","0","0","0","2","24","24","24","24","24","Sat Nov 11 19:20:25 2017","Forced-choice identification task with a practice and an experimental phase","yes","NAP_GER_AA_4blocks_noglides.osexp","/Users/aviadalbert/Documents/Academisch/UoC/Dissertation/Experiment/OpenSesame/NAP-FC/NAP_GER_AA_4blocks_noglides","yes","no","sans","no","20","no","black","no","Weiter","yes","768","legacy","14","9","0","/Users/aviadalbert/Documents/Academisch/UoC/Dissertation/Experiment/OpenSesame/NAP-FC/NAP_GER_AA_4blocks_noglides/subject-46.csv","xpyriment","Jazzy James","3.1.9","yes","yes","59a800d99ad5a1025d81bb03","59a801616c613b0251691de0","no","no","0","f","j","space","NA","space","space","f","1530","3706","67089","NA","19434","12697","1530","2","legacy","1024","1","44100","-16","experiment","flal","3","2","0","0","1","niederlaendisch, portugiesisch, englisch","46","","even","244659","177030","NA","NA","248366","244655","NA","1867","244175","1867","1867","106713","126152","296908","295400","298439","141966","139127","177030","NA","35485","95323","175381","138910","244659","139130","NA","296908","296908","NA","NA","295396","NAP perception","11","23414","15","yes","1024"
"75","yes","75","1533.6875","1533.6875","white","no","xpyriment","Ich habe die obigen Informationen gelesen und verstanden.","legacy","legacy","0","uniform","1","0","0","undefined","undefined","1","j","2","1","NA","0","1","0","0","0","0","0","0","0","0","25","25","25","0","0","0","NA","0","0","2","0","0","0","2","25","25","25","25","25","Sat Nov 11 19:20:25 2017","Forced-choice identification task with a practice and an experimental phase","yes","NAP_GER_AA_4blocks_noglides.osexp","/Users/aviadalbert/Documents/Academisch/UoC/Dissertation/Experiment/OpenSesame/NAP-FC/NAP_GER_AA_4blocks_noglides","yes","no","sans","no","20","no","black","no","Weiter","yes","768","legacy","15","9","0","/Users/aviadalbert/Documents/Academisch/UoC/Dissertation/Experiment/OpenSesame/NAP-FC/NAP_GER_AA_4blocks_noglides/subject-46.csv","xpyriment","Jazzy James","3.1.9","yes","yes","59a800d99ad5a1025d81bb03","59a801616c613b0251691de0","no","no","0","j","j","space","NA","space","space","j","1125","3706","67089","NA","19434","12697","1125","2","legacy","1024","1","44100","-16","experiment","emlal","3","2","0","0","1","niederlaendisch, portugiesisch, englisch","46","","even","244659","177030","NA","NA","248366","244655","NA","1867","244175","1867","1867","106713","126152","300219","298715","301345","141966","139127","177030","NA","35485","95323","175381","138910","244659","139130","NA","300219","300219","NA","NA","298711","NAP perception","12","24539","16","yes","1024"
"76.4705882353","yes","76.4705882353","1499","1499","white","no","xpyriment","Ich habe die obigen Informationen gelesen und verstanden.","legacy","legacy","0","uniform","1","0","0","undefined","undefined","1","j","2","1","NA","0","1","0","0","0","0","0","0","0","0","26","26","26","0","0","0","NA","0","0","2","0","0","0","2","26","26","26","26","26","Sat Nov 11 19:20:25 2017","Forced-choice identification task with a practice and an experimental phase","yes","NAP_GER_AA_4blocks_noglides.osexp","/Users/aviadalbert/Documents/Academisch/UoC/Dissertation/Experiment/OpenSesame/NAP-FC/NAP_GER_AA_4blocks_noglides","yes","no","sans","no","20","no","black","no","Weiter","yes","768","legacy","16","9","0","/Users/aviadalbert/Documents/Academisch/UoC/Dissertation/Experiment/OpenSesame/NAP-FC/NAP_GER_AA_4blocks_noglides/subject-46.csv","xpyriment","Jazzy James","3.1.9","yes","yes","59a800d99ad5a1025d81bb03","59a801616c613b0251691de0","no","no","0","j","j","space","NA","space","space","j","944","3706","67089","NA","19434","12697","944","2","legacy","1024","1","44100","-16","experiment","zemal","3","2","0","0","1","niederlaendisch, portugiesisch, englisch","46","","even","244659","177030","NA","NA","248366","244655","NA","1867","244175","1867","1867","106713","126152","303112","301608","304057","141966","139127","177030","NA","35485","95323","175381","138910","244659","139130","NA","303111","303111","NA","NA","301604","NAP perception","13","25483","17","yes","1024"
"72.2222222222","yes","72.2222222222","1512.72222222","1512.72222222","white","no","xpyriment","Ich habe die obigen Informationen gelesen und verstanden.","legacy","legacy","0","uniform","0","0","0","undefined","undefined","0","f","2","1","NA","0","1","0","0","0","0","0","0","0","0","27","27","27","0","0","0","NA","0","0","2","0","0","0","2","27","27","27","27","27","Sat Nov 11 19:20:25 2017","Forced-choice identification task with a practice and an experimental phase","yes","NAP_GER_AA_4blocks_noglides.osexp","/Users/aviadalbert/Documents/Academisch/UoC/Dissertation/Experiment/OpenSesame/NAP-FC/NAP_GER_AA_4blocks_noglides","yes","no","sans","no","20","no","black","no","Weiter","yes","768","legacy","17","9","0","/Users/aviadalbert/Documents/Academisch/UoC/Dissertation/Experiment/OpenSesame/NAP-FC/NAP_GER_AA_4blocks_noglides/subject-46.csv","xpyriment","Jazzy James","3.1.9","yes","yes","59a800d99ad5a1025d81bb03","59a801616c613b0251691de0","no","no","0","j","j","space","NA","space","space","j","1746","3706","67089","NA","19434","12697","1746","2","legacy","1024","1","44100","-16","experiment","nmal","3","2","0","0","1","niederlaendisch, portugiesisch, englisch","46","","even","244659","177030","NA","NA","248366","244655","NA","1867","244175","1867","1867","106713","126152","305828","304324","307575","141966","139127","177030","NA","35485","95323","175381","138910","244659","139130","NA","305828","305828","NA","NA","304320","NAP perception","13","27229","18","yes","1024"
"73.6842105263","yes","73.6842105263","1486.94736842","1486.94736842","white","no","xpyriment","Ich habe die obigen Informationen gelesen und verstanden.","legacy","legacy","0","uniform","1","0","0","undefined","undefined","1","j","2","1","NA","0","1","0","0","0","0","0","0","0","0","28","28","28","0","0","0","NA","0","0","2","0","0","0","2","28","28","28","28","28","Sat Nov 11 19:20:25 2017","Forced-choice identification task with a practice and an experimental phase","yes","NAP_GER_AA_4blocks_noglides.osexp","/Users/aviadalbert/Documents/Academisch/UoC/Dissertation/Experiment/OpenSesame/NAP-FC/NAP_GER_AA_4blocks_noglides","yes","no","sans","no","20","no","black","no","Weiter","yes","768","legacy","18","9","0","/Users/aviadalbert/Documents/Academisch/UoC/Dissertation/Experiment/OpenSesame/NAP-FC/NAP_GER_AA_4blocks_noglides/subject-46.csv","xpyriment","Jazzy James","3.1.9","yes","yes","59a800d99ad5a1025d81bb03","59a801616c613b0251691de0","no","no","0","j","j","space","NA","space","space","j","1023","3706","67089","NA","19434","12697","1023","2","legacy","1024","1","44100","-16","experiment","sefal","3","2","0","0","1","niederlaendisch, portugiesisch, englisch","46","","even","244659","177030","NA","NA","248366","244655","NA","1867","244175","1867","1867","106713","126152","309350","307846","310375","141966","139127","177030","NA","35485","95323","175381","138910","244659","139130","NA","309349","309349","NA","NA","307842","NAP perception","14","28252","19","yes","1024"
"75","yes","75","1484.45","1484.45","white","no","xpyriment","Ich habe die obigen Informationen gelesen und verstanden.","legacy","legacy","0","uniform","1","0","0","undefined","undefined","1","f","2","1","NA","0","1","0","0","0","0","0","0","0","0","29","29","29","0","0","0","NA","0","0","2","0","0","0","2","29","29","29","29","29","Sat Nov 11 19:20:25 2017","Forced-choice identification task with a practice and an experimental phase","yes","NAP_GER_AA_4blocks_noglides.osexp","/Users/aviadalbert/Documents/Academisch/UoC/Dissertation/Experiment/OpenSesame/NAP-FC/NAP_GER_AA_4blocks_noglides","yes","no","sans","no","20","no","black","no","Weiter","yes","768","legacy","19","9","0","/Users/aviadalbert/Documents/Academisch/UoC/Dissertation/Experiment/OpenSesame/NAP-FC/NAP_GER_AA_4blocks_noglides/subject-46.csv","xpyriment","Jazzy James","3.1.9","yes","yes","59a800d99ad5a1025d81bb03","59a801616c613b0251691de0","no","no","0","f","j","space","NA","space","space","f","1437","3706","67089","NA","19434","12697","1437","2","legacy","1024","1","44100","-16","experiment","flal","3","2","0","0","1","niederlaendisch, portugiesisch, englisch","46","","even","244659","177030","NA","NA","248366","244655","NA","1867","244175","1867","1867","106713","126152","312152","310645","313591","141966","139127","177030","NA","35485","95323","175381","138910","244659","139130","NA","312152","312152","NA","NA","310641","NAP perception","15","29689","20","yes","1024"
"76.1904761905","yes","76.1904761905","1511.61904762","1511.61904762","white","no","xpyriment","Ich habe die obigen Informationen gelesen und verstanden.","legacy","legacy","0","uniform","1","0","0","undefined","undefined","1","f","2","1","NA","0","1","0","0","0","0","0","0","0","0","30","30","30","0","0","0","NA","0","0","2","0","0","0","2","30","30","30","30","30","Sat Nov 11 19:20:25 2017","Forced-choice identification task with a practice and an experimental phase","yes","NAP_GER_AA_4blocks_noglides.osexp","/Users/aviadalbert/Documents/Academisch/UoC/Dissertation/Experiment/OpenSesame/NAP-FC/NAP_GER_AA_4blocks_noglides","yes","no","sans","no","20","no","black","no","Weiter","yes","768","legacy","20","9","0","/Users/aviadalbert/Documents/Academisch/UoC/Dissertation/Experiment/OpenSesame/NAP-FC/NAP_GER_AA_4blocks_noglides/subject-46.csv","xpyriment","Jazzy James","3.1.9","yes","yes","59a800d99ad5a1025d81bb03","59a801616c613b0251691de0","no","no","0","f","j","space","NA","space","space","f","2055","3706","67089","NA","19434","12697","2055","2","legacy","1024","1","44100","-16","experiment","spal","3","2","0","0","1","niederlaendisch, portugiesisch, englisch","46","","even","244659","177030","NA","NA","248366","244655","NA","1867","244175","1867","1867","106713","126152","315374","313870","317430","141966","139127","177030","NA","35485","95323","175381","138910","244659","139130","NA","315374","315374","NA","NA","313866","NAP perception","16","31744","21","yes","1024"
"77.2727272727","yes","77.2727272727","1532.81818182","1532.81818182","white","no","xpyriment","Ich habe die obigen Informationen gelesen und verstanden.","legacy","legacy","0","uniform","1","0","0","undefined","undefined","1","f","2","1","NA","0","1","0","0","0","0","0","0","0","0","31","31","31","0","0","0","NA","0","0","2","0","0","0","2","31","31","31","31","31","Sat Nov 11 19:20:25 2017","Forced-choice identification task with a practice and an experimental phase","yes","NAP_GER_AA_4blocks_noglides.osexp","/Users/aviadalbert/Documents/Academisch/UoC/Dissertation/Experiment/OpenSesame/NAP-FC/NAP_GER_AA_4blocks_noglides","yes","no","sans","no","20","no","black","no","Weiter","yes","768","legacy","21","9","0","/Users/aviadalbert/Documents/Academisch/UoC/Dissertation/Experiment/OpenSesame/NAP-FC/NAP_GER_AA_4blocks_noglides/subject-46.csv","xpyriment","Jazzy James","3.1.9","yes","yes","59a800d99ad5a1025d81bb03","59a801616c613b0251691de0","no","no","0","f","j","space","NA","space","space","f","1978","3706","67089","NA","19434","12697","1978","2","legacy","1024","1","44100","-16","experiment","smal","3","2","0","0","1","niederlaendisch, portugiesisch, englisch","46","","even","244659","177030","NA","NA","248366","244655","NA","1867","244175","1867","1867","106713","126152","319216","317711","321196","141966","139127","177030","NA","35485","95323","175381","138910","244659","139130","NA","319215","319215","NA","NA","317707","NAP perception","17","33722","22","yes","1024"
"73.9130434783","yes","73.9130434783","1550.69565217","1550.69565217","white","no","xpyriment","Ich habe die obigen Informationen gelesen und verstanden.","legacy","legacy","0","uniform","0","0","0","undefined","undefined","0","f","2","1","NA","0","1","0","0","0","0","0","0","0","0","32","32","32","0","0","0","NA","0","0","2","0","0","0","2","32","32","32","32","32","Sat Nov 11 19:20:25 2017","Forced-choice identification task with a practice and an experimental phase","yes","NAP_GER_AA_4blocks_noglides.osexp","/Users/aviadalbert/Documents/Academisch/UoC/Dissertation/Experiment/OpenSesame/NAP-FC/NAP_GER_AA_4blocks_noglides","yes","no","sans","no","20","no","black","no","Weiter","yes","768","legacy","22","9","0","/Users/aviadalbert/Documents/Academisch/UoC/Dissertation/Experiment/OpenSesame/NAP-FC/NAP_GER_AA_4blocks_noglides/subject-46.csv","xpyriment","Jazzy James","3.1.9","yes","yes","59a800d99ad5a1025d81bb03","59a801616c613b0251691de0","no","no","0","j","j","space","NA","space","space","j","1944","3706","67089","NA","19434","12697","1944","2","legacy","1024","1","44100","-16","experiment","ʃpal","3","2","0","0","1","niederlaendisch, portugiesisch, englisch","46","","even","244659","177030","NA","NA","248366","244655","NA","1867","244175","1867","1867","106713","126152","322974","321466","324919","141966","139127","177030","NA","35485","95323","175381","138910","244659","139130","NA","322973","322974","NA","NA","321462","NAP perception","17","35666","23","yes","1024"
"70.8333333333","yes","70.8333333333","1577.375","1577.375","white","no","xpyriment","Ich habe die obigen Informationen gelesen und verstanden.","legacy","legacy","0","uniform","0","0","0","undefined","undefined","0","f","2","1","NA","0","1","0","0","0","0","0","0","0","0","33","33","33","0","0","0","NA","0","0","2","0","0","0","2","33","33","33","33","33","Sat Nov 11 19:20:25 2017","Forced-choice identification task with a practice and an experimental phase","yes","NAP_GER_AA_4blocks_noglides.osexp","/Users/aviadalbert/Documents/Academisch/UoC/Dissertation/Experiment/OpenSesame/NAP-FC/NAP_GER_AA_4blocks_noglides","yes","no","sans","no","20","no","black","no","Weiter","yes","768","legacy","23","9","0","/Users/aviadalbert/Documents/Academisch/UoC/Dissertation/Experiment/OpenSesame/NAP-FC/NAP_GER_AA_4blocks_noglides/subject-46.csv","xpyriment","Jazzy James","3.1.9","yes","yes","59a800d99ad5a1025d81bb03","59a801616c613b0251691de0","no","no","0","j","j","space","NA","space","space","j","2191","3706","67089","NA","19434","12697","2191","2","legacy","1024","1","44100","-16","experiment","sfal","3","2","0","0","1","niederlaendisch, portugiesisch, englisch","46","","even","244659","177030","NA","NA","248366","244655","NA","1867","244175","1867","1867","106713","126152","326695","325190","328887","141966","139127","177030","NA","35485","95323","175381","138910","244659","139130","NA","326695","326695","NA","NA","325186","NAP perception","17","37857","24","yes","1024"
"68","yes","68","1573.08","1573.08","white","no","xpyriment","Ich habe die obigen Informationen gelesen und verstanden.","legacy","legacy","0","uniform","0","0","0","undefined","undefined","0","f","2","1","NA","0","1","0","0","0","0","0","0","0","0","34","34","34","0","0","0","NA","0","0","2","0","0","0","2","34","34","34","34","34","Sat Nov 11 19:20:25 2017","Forced-choice identification task with a practice and an experimental phase","yes","NAP_GER_AA_4blocks_noglides.osexp","/Users/aviadalbert/Documents/Academisch/UoC/Dissertation/Experiment/OpenSesame/NAP-FC/NAP_GER_AA_4blocks_noglides","yes","no","sans","no","20","no","black","no","Weiter","yes","768","legacy","24","9","0","/Users/aviadalbert/Documents/Academisch/UoC/Dissertation/Experiment/OpenSesame/NAP-FC/NAP_GER_AA_4blocks_noglides/subject-46.csv","xpyriment","Jazzy James","3.1.9","yes","yes","59a800d99ad5a1025d81bb03","59a801616c613b0251691de0","no","no","0","j","j","space","NA","space","space","j","1470","3706","67089","NA","19434","12697","1470","2","legacy","1024","1","44100","-16","experiment","mzal","3","2","0","0","1","niederlaendisch, portugiesisch, englisch","46","","even","244659","177030","NA","NA","248366","244655","NA","1867","244175","1867","1867","106713","126152","330671","329167","332143","141966","139127","177030","NA","35485","95323","175381","138910","244659","139130","NA","330671","330671","NA","NA","329163","NAP perception","17","39327","25","yes","1024"
"65.3846153846","yes","65.3846153846","1577.65384615","1577.65384615","white","no","xpyriment","Ich habe die obigen Informationen gelesen und verstanden.","legacy","legacy","0","uniform","0","0","0","undefined","undefined","0","f","2","1","NA","0","1","0","0","0","0","0","0","0","0","35","35","35","0","0","0","NA","0","0","2","0","0","0","2","35","35","35","35","35","Sat Nov 11 19:20:25 2017","Forced-choice identification task with a practice and an experimental phase","yes","NAP_GER_AA_4blocks_noglides.osexp","/Users/aviadalbert/Documents/Academisch/UoC/Dissertation/Experiment/OpenSesame/NAP-FC/NAP_GER_AA_4blocks_noglides","yes","no","sans","no","20","no","black","no","Weiter","yes","768","legacy","25","9","0","/Users/aviadalbert/Documents/Academisch/UoC/Dissertation/Experiment/OpenSesame/NAP-FC/NAP_GER_AA_4blocks_noglides/subject-46.csv","xpyriment","Jazzy James","3.1.9","yes","yes","59a800d99ad5a1025d81bb03","59a801616c613b0251691de0","no","no","0","j","j","space","NA","space","space","j","1692","3706","67089","NA","19434","12697","1692","2","legacy","1024","1","44100","-16","experiment","npal","3","2","0","0","1","niederlaendisch, portugiesisch, englisch","46","","even","244659","177030","NA","NA","248366","244655","NA","1867","244175","1867","1867","106713","126152","333926","332418","335619","141966","139127","177030","NA","35485","95323","175381","138910","244659","139130","NA","333925","333925","NA","NA","332414","NAP perception","17","41019","26","yes","1024"
"66.6666666667","yes","66.6666666667","1577.14814815","1577.14814815","white","no","xpyriment","Ich habe die obigen Informationen gelesen und verstanden.","legacy","legacy","0","uniform","1","0","0","undefined","undefined","1","j","2","1","NA","0","1","0","0","0","0","0","0","0","0","36","36","36","0","0","0","NA","0","0","2","0","0","0","2","36","36","36","36","36","Sat Nov 11 19:20:25 2017","Forced-choice identification task with a practice and an experimental phase","yes","NAP_GER_AA_4blocks_noglides.osexp","/Users/aviadalbert/Documents/Academisch/UoC/Dissertation/Experiment/OpenSesame/NAP-FC/NAP_GER_AA_4blocks_noglides","yes","no","sans","no","20","no","black","no","Weiter","yes","768","legacy","26","9","0","/Users/aviadalbert/Documents/Academisch/UoC/Dissertation/Experiment/OpenSesame/NAP-FC/NAP_GER_AA_4blocks_noglides/subject-46.csv","xpyriment","Jazzy James","3.1.9","yes","yes","59a800d99ad5a1025d81bb03","59a801616c613b0251691de0","no","no","0","j","j","space","NA","space","space","j","1564","3706","67089","NA","19434","12697","1564","2","legacy","1024","1","44100","-16","experiment","neval","3","2","0","0","1","niederlaendisch, portugiesisch, englisch","46","","even","244659","177030","NA","NA","248366","244655","NA","1867","244175","1867","1867","106713","126152","337398","335894","338963","141966","139127","177030","NA","35485","95323","175381","138910","244659","139130","NA","337398","337398","NA","NA","335890","NAP perception","18","42583","27","yes","1024"
"67.8571428571","yes","67.8571428571","1564","1564","white","no","xpyriment","Ich habe die obigen Informationen gelesen und verstanden.","legacy","legacy","0","uniform","1","0","0","undefined","undefined","1","j","2","1","NA","0","1","0","0","0","0","0","0","0","0","37","37","37","0","0","0","NA","0","0","2","0","0","0","2","37","37","37","37","37","Sat Nov 11 19:20:25 2017","Forced-choice identification task with a practice and an experimental phase","yes","NAP_GER_AA_4blocks_noglides.osexp","/Users/aviadalbert/Documents/Academisch/UoC/Dissertation/Experiment/OpenSesame/NAP-FC/NAP_GER_AA_4blocks_noglides","yes","no","sans","no","20","no","black","no","Weiter","yes","768","legacy","27","9","0","/Users/aviadalbert/Documents/Academisch/UoC/Dissertation/Experiment/OpenSesame/NAP-FC/NAP_GER_AA_4blocks_noglides/subject-46.csv","xpyriment","Jazzy James","3.1.9","yes","yes","59a800d99ad5a1025d81bb03","59a801616c613b0251691de0","no","no","0","j","j","space","NA","space","space","j","1209","3706","67089","NA","19434","12697","1209","2","legacy","1024","1","44100","-16","experiment","eʃpal","3","2","0","0","1","niederlaendisch, portugiesisch, englisch","46","","even","244659","177030","NA","NA","248366","244655","NA","1867","244175","1867","1867","106713","126152","340742","339237","341952","141966","139127","177030","NA","35485","95323","175381","138910","244659","139130","NA","340741","340741","NA","NA","339233","NAP perception","19","43792","28","yes","1024"
"68.9655172414","yes","68.9655172414","1554.48275862","1554.48275862","white","no","xpyriment","Ich habe die obigen Informationen gelesen und verstanden.","legacy","legacy","0","uniform","1","0","0","undefined","undefined","1","j","2","1","NA","0","1","0","0","0","0","0","0","0","0","38","38","38","0","0","0","NA","0","0","2","0","0","0","2","38","38","38","38","38","Sat Nov 11 19:20:25 2017","Forced-choice identification task with a practice and an experimental phase","yes","NAP_GER_AA_4blocks_noglides.osexp","/Users/aviadalbert/Documents/Academisch/UoC/Dissertation/Experiment/OpenSesame/NAP-FC/NAP_GER_AA_4blocks_noglides","yes","no","sans","no","20","no","black","no","Weiter","yes","768","legacy","28","9","0","/Users/aviadalbert/Documents/Academisch/UoC/Dissertation/Experiment/OpenSesame/NAP-FC/NAP_GER_AA_4blocks_noglides/subject-46.csv","xpyriment","Jazzy James","3.1.9","yes","yes","59a800d99ad5a1025d81bb03","59a801616c613b0251691de0","no","no","0","j","j","space","NA","space","space","j","1288","3706","67089","NA","19434","12697","1288","2","legacy","1024","1","44100","-16","experiment","eftal","3","2","0","0","1","niederlaendisch, portugiesisch, englisch","46","","even","244659","177030","NA","NA","248366","244655","NA","1867","244175","1867","1867","106713","126152","343727","342222","345016","141966","139127","177030","NA","35485","95323","175381","138910","244659","139130","NA","343726","343727","NA","NA","342218","NAP perception","20","45080","29","yes","1024"
"70","yes","70","1585.83333333","1585.83333333","white","no","xpyriment","Ich habe die obigen Informationen gelesen und verstanden.","legacy","legacy","0","uniform","1","0","0","undefined","undefined","1","f","2","1","NA","0","1","0","0","0","0","0","0","0","0","39","39","39","0","0","0","NA","0","0","2","0","0","0","2","39","39","39","39","39","Sat Nov 11 19:20:25 2017","Forced-choice identification task with a practice and an experimental phase","yes","NAP_GER_AA_4blocks_noglides.osexp","/Users/aviadalbert/Documents/Academisch/UoC/Dissertation/Experiment/OpenSesame/NAP-FC/NAP_GER_AA_4blocks_noglides","yes","no","sans","no","20","no","black","no","Weiter","yes","768","legacy","29","9","0","/Users/aviadalbert/Documents/Academisch/UoC/Dissertation/Experiment/OpenSesame/NAP-FC/NAP_GER_AA_4blocks_noglides/subject-46.csv","xpyriment","Jazzy James","3.1.9","yes","yes","59a800d99ad5a1025d81bb03","59a801616c613b0251691de0","no","no","0","f","j","space","NA","space","space","f","2495","3706","67089","NA","19434","12697","2495","2","legacy","1024","1","44100","-16","experiment","msal","3","2","0","0","1","niederlaendisch, portugiesisch, englisch","46","","even","244659","177030","NA","NA","248366","244655","NA","1867","244175","1867","1867","106713","126152","346788","345284","349285","141966","139127","177030","NA","35485","95323","175381","138910","244659","139130","NA","346788","346788","NA","NA","345280","NAP perception","21","47575","30","yes","1024"
"70.9677419355","yes","70.9677419355","1580.87096774","1580.87096774","white","no","xpyriment","Ich habe die obigen Informationen gelesen und verstanden.","legacy","legacy","0","uniform","1","0","0","undefined","undefined","1","j","2","1","NA","0","1","0","0","0","0","0","0","0","0","40","40","40","0","0","0","NA","0","0","2","0","0","0","2","40","40","40","40","40","Sat Nov 11 19:20:25 2017","Forced-choice identification task with a practice and an experimental phase","yes","NAP_GER_AA_4blocks_noglides.osexp","/Users/aviadalbert/Documents/Academisch/UoC/Dissertation/Experiment/OpenSesame/NAP-FC/NAP_GER_AA_4blocks_noglides","yes","no","sans","no","20","no","black","no","Weiter","yes","768","legacy","30","9","0","/Users/aviadalbert/Documents/Academisch/UoC/Dissertation/Experiment/OpenSesame/NAP-FC/NAP_GER_AA_4blocks_noglides/subject-46.csv","xpyriment","Jazzy James","3.1.9","yes","yes","59a800d99ad5a1025d81bb03","59a801616c613b0251691de0","no","no","0","j","j","space","NA","space","space","j","1432","3706","67089","NA","19434","12697","1432","2","legacy","1024","1","44100","-16","experiment","emtal","3","2","0","0","1","niederlaendisch, portugiesisch, englisch","46","","even","244659","177030","NA","NA","248366","244655","NA","1867","244175","1867","1867","106713","126152","351047","349542","352481","141966","139127","177030","NA","35485","95323","175381","138910","244659","139130","NA","351047","351047","NA","NA","349538","NAP perception","22","49007","31","yes","1024"
"71.875","yes","71.875","1566.59375","1566.59375","white","no","xpyriment","Ich habe die obigen Informationen gelesen und verstanden.","legacy","legacy","0","uniform","1","0","0","undefined","undefined","1","f","2","1","NA","0","1","0","0","0","0","0","0","0","0","41","41","41","0","0","0","NA","0","0","2","0","0","0","2","41","41","41","41","41","Sat Nov 11 19:20:25 2017","Forced-choice identification task with a practice and an experimental phase","yes","NAP_GER_AA_4blocks_noglides.osexp","/Users/aviadalbert/Documents/Academisch/UoC/Dissertation/Experiment/OpenSesame/NAP-FC/NAP_GER_AA_4blocks_noglides","yes","no","sans","no","20","no","black","no","Weiter","yes","768","legacy","31","9","0","/Users/aviadalbert/Documents/Academisch/UoC/Dissertation/Experiment/OpenSesame/NAP-FC/NAP_GER_AA_4blocks_noglides/subject-46.csv","xpyriment","Jazzy James","3.1.9","yes","yes","59a800d99ad5a1025d81bb03","59a801616c613b0251691de0","no","no","0","f","j","space","NA","space","space","f","1124","3706","67089","NA","19434","12697","1124","2","legacy","1024","1","44100","-16","experiment","fsal","3","2","0","0","1","niederlaendisch, portugiesisch, englisch","46","","even","244659","177030","NA","NA","248366","244655","NA","1867","244175","1867","1867","106713","126152","354274","352769","355400","141966","139127","177030","NA","35485","95323","175381","138910","244659","139130","NA","354274","354274","NA","NA","352765","NAP perception","23","50131","32","yes","1024"
"72.7272727273","yes","72.7272727273","1547.66666667","1547.66666667","white","no","xpyriment","Ich habe die obigen Informationen gelesen und verstanden.","legacy","legacy","0","uniform","1","0","0","undefined","undefined","1","j","2","1","NA","0","1","0","0","0","0","0","0","0","0","42","42","42","0","0","0","NA","0","0","2","0","0","0","2","42","42","42","42","42","Sat Nov 11 19:20:25 2017","Forced-choice identification task with a practice and an experimental phase","yes","NAP_GER_AA_4blocks_noglides.osexp","/Users/aviadalbert/Documents/Academisch/UoC/Dissertation/Experiment/OpenSesame/NAP-FC/NAP_GER_AA_4blocks_noglides","yes","no","sans","no","20","no","black","no","Weiter","yes","768","legacy","32","9","0","/Users/aviadalbert/Documents/Academisch/UoC/Dissertation/Experiment/OpenSesame/NAP-FC/NAP_GER_AA_4blocks_noglides/subject-46.csv","xpyriment","Jazzy James","3.1.9","yes","yes","59a800d99ad5a1025d81bb03","59a801616c613b0251691de0","no","no","0","j","j","space","NA","space","space","j","942","3706","67089","NA","19434","12697","942","2","legacy","1024","1","44100","-16","experiment","esfal","3","2","0","0","1","niederlaendisch, portugiesisch, englisch","46","","even","244659","177030","NA","NA","248366","244655","NA","1867","244175","1867","1867","106713","126152","357190","355685","358133","141966","139127","177030","NA","35485","95323","175381","138910","244659","139130","NA","357189","357190","NA","NA","355681","NAP perception","24","51073","33","yes","1024"
"73.5294117647","yes","73.5294117647","1535.76470588","1535.76470588","white","no","xpyriment","Ich habe die obigen Informationen gelesen und verstanden.","legacy","legacy","0","uniform","1","0","0","undefined","undefined","1","j","2","1","NA","0","1","0","0","0","0","0","0","0","0","43","43","43","0","0","0","NA","0","0","2","0","0","0","2","43","43","43","43","43","Sat Nov 11 19:20:25 2017","Forced-choice identification task with a practice and an experimental phase","yes","NAP_GER_AA_4blocks_noglides.osexp","/Users/aviadalbert/Documents/Academisch/UoC/Dissertation/Experiment/OpenSesame/NAP-FC/NAP_GER_AA_4blocks_noglides","yes","no","sans","no","20","no","black","no","Weiter","yes","768","legacy","33","9","0","/Users/aviadalbert/Documents/Academisch/UoC/Dissertation/Experiment/OpenSesame/NAP-FC/NAP_GER_AA_4blocks_noglides/subject-46.csv","xpyriment","Jazzy James","3.1.9","yes","yes","59a800d99ad5a1025d81bb03","59a801616c613b0251691de0","no","no","0","j","j","space","NA","space","space","j","1143","3706","67089","NA","19434","12697","1143","2","legacy","1024","1","44100","-16","experiment","ʃepal","3","2","0","0","1","niederlaendisch, portugiesisch, englisch","46","","even","244659","177030","NA","NA","248366","244655","NA","1867","244175","1867","1867","106713","126152","359909","358402","361054","141966","139127","177030","NA","35485","95323","175381","138910","244659","139130","NA","359909","359909","NA","NA","358398","NAP perception","25","52216","34","yes","1024"
"71.4285714286","yes","71.4285714286","1539.48571429","1539.48571429","white","no","xpyriment","Ich habe die obigen Informationen gelesen und verstanden.","legacy","legacy","0","uniform","0","0","0","undefined","undefined","0","f","2","1","NA","0","1","0","0","0","0","0","0","0","0","44","44","44","0","0","0","NA","0","0","2","0","0","0","2","44","44","44","44","44","Sat Nov 11 19:20:25 2017","Forced-choice identification task with a practice and an experimental phase","yes","NAP_GER_AA_4blocks_noglides.osexp","/Users/aviadalbert/Documents/Academisch/UoC/Dissertation/Experiment/OpenSesame/NAP-FC/NAP_GER_AA_4blocks_noglides","yes","no","sans","no","20","no","black","no","Weiter","yes","768","legacy","34","9","0","/Users/aviadalbert/Documents/Academisch/UoC/Dissertation/Experiment/OpenSesame/NAP-FC/NAP_GER_AA_4blocks_noglides/subject-46.csv","xpyriment","Jazzy James","3.1.9","yes","yes","59a800d99ad5a1025d81bb03","59a801616c613b0251691de0","no","no","0","j","j","space","NA","space","space","j","1666","3706","67089","NA","19434","12697","1666","2","legacy","1024","1","44100","-16","experiment","nfal","3","2","0","0","1","niederlaendisch, portugiesisch, englisch","46","","even","244659","177030","NA","NA","248366","244655","NA","1867","244175","1867","1867","106713","126152","362844","361337","364512","141966","139127","177030","NA","35485","95323","175381","138910","244659","139130","NA","362844","362844","NA","NA","361333","NAP perception","25","53882","35","yes","1024"
"72.2222222222","yes","72.2222222222","1560.08333333","1560.08333333","white","no","xpyriment","Ich habe die obigen Informationen gelesen und verstanden.","legacy","legacy","0","uniform","1","0","0","undefined","undefined","1","f","2","1","NA","0","1","0","0","0","0","0","0","0","0","45","45","45","0","0","0","NA","0","0","2","0","0","0","2","45","45","45","45","45","Sat Nov 11 19:20:25 2017","Forced-choice identification task with a practice and an experimental phase","yes","NAP_GER_AA_4blocks_noglides.osexp","/Users/aviadalbert/Documents/Academisch/UoC/Dissertation/Experiment/OpenSesame/NAP-FC/NAP_GER_AA_4blocks_noglides","yes","no","sans","no","20","no","black","no","Weiter","yes","768","legacy","35","9","0","/Users/aviadalbert/Documents/Academisch/UoC/Dissertation/Experiment/OpenSesame/NAP-FC/NAP_GER_AA_4blocks_noglides/subject-46.csv","xpyriment","Jazzy James","3.1.9","yes","yes","59a800d99ad5a1025d81bb03","59a801616c613b0251691de0","no","no","0","f","j","space","NA","space","space","f","2281","3706","67089","NA","19434","12697","2281","2","legacy","1024","1","44100","-16","experiment","lpal","3","2","0","0","1","niederlaendisch, portugiesisch, englisch","46","","even","244659","177030","NA","NA","248366","244655","NA","1867","244175","1867","1867","106713","126152","366287","364783","368570","141966","139127","177030","NA","35485","95323","175381","138910","244659","139130","NA","366286","366286","NA","NA","364778","NAP perception","26","56163","36","yes","1024"
"72.972972973","yes","72.972972973","1549.08108108","1549.08108108","white","no","xpyriment","Ich habe die obigen Informationen gelesen und verstanden.","legacy","legacy","0","uniform","1","0","0","undefined","undefined","1","j","2","1","NA","0","1","0","0","0","0","0","0","0","0","46","46","46","0","0","0","NA","0","0","2","0","0","0","2","46","46","46","46","46","Sat Nov 11 19:20:25 2017","Forced-choice identification task with a practice and an experimental phase","yes","NAP_GER_AA_4blocks_noglides.osexp","/Users/aviadalbert/Documents/Academisch/UoC/Dissertation/Experiment/OpenSesame/NAP-FC/NAP_GER_AA_4blocks_noglides","yes","no","sans","no","20","no","black","no","Weiter","yes","768","legacy","36","9","0","/Users/aviadalbert/Documents/Academisch/UoC/Dissertation/Experiment/OpenSesame/NAP-FC/NAP_GER_AA_4blocks_noglides/subject-46.csv","xpyriment","Jazzy James","3.1.9","yes","yes","59a800d99ad5a1025d81bb03","59a801616c613b0251691de0","no","no","0","j","j","space","NA","space","space","j","1153","3706","67089","NA","19434","12697","1153","2","legacy","1024","1","44100","-16","experiment","nepal","3","2","0","0","1","niederlaendisch, portugiesisch, englisch","46","","even","244659","177030","NA","NA","248366","244655","NA","1867","244175","1867","1867","106713","126152","370347","368842","371502","141966","139127","177030","NA","35485","95323","175381","138910","244659","139130","NA","370347","370347","NA","NA","368838","NAP perception","27","57316","37","yes","1024"
"73.6842105263","yes","73.6842105263","1537.89473684","1537.89473684","white","no","xpyriment","Ich habe die obigen Informationen gelesen und verstanden.","legacy","legacy","0","uniform","1","0","0","undefined","undefined","1","f","2","1","NA","0","1","0","0","0","0","0","0","0","0","47","47","47","0","0","0","NA","0","0","2","0","0","0","2","47","47","47","47","47","Sat Nov 11 19:20:25 2017","Forced-choice identification task with a practice and an experimental phase","yes","NAP_GER_AA_4blocks_noglides.osexp","/Users/aviadalbert/Documents/Academisch/UoC/Dissertation/Experiment/OpenSesame/NAP-FC/NAP_GER_AA_4blocks_noglides","yes","no","sans","no","20","no","black","no","Weiter","yes","768","legacy","37","9","0","/Users/aviadalbert/Documents/Academisch/UoC/Dissertation/Experiment/OpenSesame/NAP-FC/NAP_GER_AA_4blocks_noglides/subject-46.csv","xpyriment","Jazzy James","3.1.9","yes","yes","59a800d99ad5a1025d81bb03","59a801616c613b0251691de0","no","no","0","f","j","space","NA","space","space","f","1124","3706","67089","NA","19434","12697","1124","2","legacy","1024","1","44100","-16","experiment","vlal","3","2","0","0","1","niederlaendisch, portugiesisch, englisch","46","","even","244659","177030","NA","NA","248366","244655","NA","1867","244175","1867","1867","106713","126152","373286","371782","374412","141966","139127","177030","NA","35485","95323","175381","138910","244659","139130","NA","373285","373285","NA","NA","371777","NAP perception","28","58440","38","yes","1024"
"74.358974359","yes","74.358974359","1547.02564103","1547.02564103","white","no","xpyriment","Ich habe die obigen Informationen gelesen und verstanden.","legacy","legacy","0","uniform","1","0","0","undefined","undefined","1","j","2","1","NA","0","1","0","0","0","0","0","0","0","0","48","48","48","0","0","0","NA","0","0","2","0","0","0","2","48","48","48","48","48","Sat Nov 11 19:20:25 2017","Forced-choice identification task with a practice and an experimental phase","yes","NAP_GER_AA_4blocks_noglides.osexp","/Users/aviadalbert/Documents/Academisch/UoC/Dissertation/Experiment/OpenSesame/NAP-FC/NAP_GER_AA_4blocks_noglides","yes","no","sans","no","20","no","black","no","Weiter","yes","768","legacy","38","9","0","/Users/aviadalbert/Documents/Academisch/UoC/Dissertation/Experiment/OpenSesame/NAP-FC/NAP_GER_AA_4blocks_noglides/subject-46.csv","xpyriment","Jazzy James","3.1.9","yes","yes","59a800d99ad5a1025d81bb03","59a801616c613b0251691de0","no","no","0","j","j","space","NA","space","space","j","1894","3706","67089","NA","19434","12697","1894","2","legacy","1024","1","44100","-16","experiment","evzal","3","2","0","0","1","niederlaendisch, portugiesisch, englisch","46","","even","244659","177030","NA","NA","248366","244655","NA","1867","244175","1867","1867","106713","126152","376196","374690","378092","141966","139127","177030","NA","35485","95323","175381","138910","244659","139130","NA","376196","376196","NA","NA","374685","NAP perception","29","60334","39","yes","1024"
"75","yes","75","1540.775","1540.775","white","no","xpyriment","Ich habe die obigen Informationen gelesen und verstanden.","legacy","legacy","0","uniform","1","0","0","undefined","undefined","1","j","2","1","NA","0","1","0","0","0","0","0","0","0","0","49","49","49","0","0","0","NA","0","0","2","0","0","0","2","49","49","49","49","49","Sat Nov 11 19:20:25 2017","Forced-choice identification task with a practice and an experimental phase","yes","NAP_GER_AA_4blocks_noglides.osexp","/Users/aviadalbert/Documents/Academisch/UoC/Dissertation/Experiment/OpenSesame/NAP-FC/NAP_GER_AA_4blocks_noglides","yes","no","sans","no","20","no","black","no","Weiter","yes","768","legacy","39","9","0","/Users/aviadalbert/Documents/Academisch/UoC/Dissertation/Experiment/OpenSesame/NAP-FC/NAP_GER_AA_4blocks_noglides/subject-46.csv","xpyriment","Jazzy James","3.1.9","yes","yes","59a800d99ad5a1025d81bb03","59a801616c613b0251691de0","no","no","0","j","j","space","NA","space","space","j","1297","3706","67089","NA","19434","12697","1297","2","legacy","1024","1","44100","-16","experiment","emsal","3","2","0","0","1","niederlaendisch, portugiesisch, englisch","46","","even","244659","177030","NA","NA","248366","244655","NA","1867","244175","1867","1867","106713","126152","379877","378368","381176","141966","139127","177030","NA","35485","95323","175381","138910","244659","139130","NA","379876","379877","NA","NA","378363","NAP perception","30","61631","40","yes","1024"
"75.6097560976","yes","75.6097560976","1536.2195122","1536.2195122","white","no","xpyriment","Ich habe die obigen Informationen gelesen und verstanden.","legacy","legacy","0","uniform","1","0","0","undefined","undefined","1","j","2","1","NA","0","1","0","0","0","0","0","0","0","0","50","50","50","0","0","0","NA","0","0","2","0","0","0","2","50","50","50","50","50","Sat Nov 11 19:20:25 2017","Forced-choice identification task with a practice and an experimental phase","yes","NAP_GER_AA_4blocks_noglides.osexp","/Users/aviadalbert/Documents/Academisch/UoC/Dissertation/Experiment/OpenSesame/NAP-FC/NAP_GER_AA_4blocks_noglides","yes","no","sans","no","20","no","black","no","Weiter","yes","768","legacy","40","9","0","/Users/aviadalbert/Documents/Academisch/UoC/Dissertation/Experiment/OpenSesame/NAP-FC/NAP_GER_AA_4blocks_noglides/subject-46.csv","xpyriment","Jazzy James","3.1.9","yes","yes","59a800d99ad5a1025d81bb03","59a801616c613b0251691de0","no","no","0","j","j","space","NA","space","space","j","1354","3706","67089","NA","19434","12697","1354","2","legacy","1024","1","44100","-16","experiment","semal","3","2","0","0","1","niederlaendisch, portugiesisch, englisch","46","","even","244659","177030","NA","NA","248366","244655","NA","1867","244175","1867","1867","106713","126152","382971","381466","384327","141966","139127","177030","NA","35485","95323","175381","138910","244659","139130","NA","382971","382971","NA","NA","381462","NAP perception","31","62985","41","yes","1024"
"76.1904761905","yes","76.1904761905","1545.38095238","1545.38095238","white","no","xpyriment","Ich habe die obigen Informationen gelesen und verstanden.","legacy","legacy","0","uniform","1","0","0","undefined","undefined","1","f","2","1","NA","0","1","0","0","0","0","0","0","0","0","51","51","51","0","0","0","NA","0","0","2","0","0","0","2","51","51","51","51","51","Sat Nov 11 19:20:25 2017","Forced-choice identification task with a practice and an experimental phase","yes","NAP_GER_AA_4blocks_noglides.osexp","/Users/aviadalbert/Documents/Academisch/UoC/Dissertation/Experiment/OpenSesame/NAP-FC/NAP_GER_AA_4blocks_noglides","yes","no","sans","no","20","no","black","no","Weiter","yes","768","legacy","41","9","0","/Users/aviadalbert/Documents/Academisch/UoC/Dissertation/Experiment/OpenSesame/NAP-FC/NAP_GER_AA_4blocks_noglides/subject-46.csv","xpyriment","Jazzy James","3.1.9","yes","yes","59a800d99ad5a1025d81bb03","59a801616c613b0251691de0","no","no","0","f","j","space","NA","space","space","f","1921","3706","67089","NA","19434","12697","1921","2","legacy","1024","1","44100","-16","experiment","nfal","3","2","0","0","1","niederlaendisch, portugiesisch, englisch","46","","even","244659","177030","NA","NA","248366","244655","NA","1867","244175","1867","1867","106713","126152","386104","384599","388027","141966","139127","177030","NA","35485","95323","175381","138910","244659","139130","NA","386104","386104","NA","NA","384595","NAP perception","32","64906","42","yes","1024"
"76.7441860465","yes","76.7441860465","1544.41860465","1544.41860465","white","no","xpyriment","Ich habe die obigen Informationen gelesen und verstanden.","legacy","legacy","0","uniform","1","0","0","undefined","undefined","1","f","2","1","NA","0","1","0","0","0","0","0","0","0","0","52","52","52","0","0","0","NA","0","0","2","0","0","0","2","52","52","52","52","52","Sat Nov 11 19:20:25 2017","Forced-choice identification task with a practice and an experimental phase","yes","NAP_GER_AA_4blocks_noglides.osexp","/Users/aviadalbert/Documents/Academisch/UoC/Dissertation/Experiment/OpenSesame/NAP-FC/NAP_GER_AA_4blocks_noglides","yes","no","sans","no","20","no","black","no","Weiter","yes","768","legacy","42","9","0","/Users/aviadalbert/Documents/Academisch/UoC/Dissertation/Experiment/OpenSesame/NAP-FC/NAP_GER_AA_4blocks_noglides/subject-46.csv","xpyriment","Jazzy James","3.1.9","yes","yes","59a800d99ad5a1025d81bb03","59a801616c613b0251691de0","no","no","0","f","j","space","NA","space","space","f","1504","3706","67089","NA","19434","12697","1504","2","legacy","1024","1","44100","-16","experiment","mlal","3","2","0","0","1","niederlaendisch, portugiesisch, englisch","46","","even","244659","177030","NA","NA","248366","244655","NA","1867","244175","1867","1867","106713","126152","389804","388296","391310","141966","139127","177030","NA","35485","95323","175381","138910","244659","139130","NA","389804","389804","NA","NA","388292","NAP perception","33","66410","43","yes","1024"
"77.2727272727","yes","77.2727272727","1528","1528","white","no","xpyriment","Ich habe die obigen Informationen gelesen und verstanden.","legacy","legacy","0","uniform","1","0","0","undefined","undefined","1","j","2","1","NA","0","1","0","0","0","0","0","0","0","0","53","53","53","0","0","0","NA","0","0","2","0","0","0","2","53","53","53","53","53","Sat Nov 11 19:20:25 2017","Forced-choice identification task with a practice and an experimental phase","yes","NAP_GER_AA_4blocks_noglides.osexp","/Users/aviadalbert/Documents/Academisch/UoC/Dissertation/Experiment/OpenSesame/NAP-FC/NAP_GER_AA_4blocks_noglides","yes","no","sans","no","20","no","black","no","Weiter","yes","768","legacy","43","9","0","/Users/aviadalbert/Documents/Academisch/UoC/Dissertation/Experiment/OpenSesame/NAP-FC/NAP_GER_AA_4blocks_noglides/subject-46.csv","xpyriment","Jazzy James","3.1.9","yes","yes","59a800d99ad5a1025d81bb03","59a801616c613b0251691de0","no","no","0","j","j","space","NA","space","space","j","822","3706","67089","NA","19434","12697","822","2","legacy","1024","1","44100","-16","experiment","zeval","3","2","0","0","1","niederlaendisch, portugiesisch, englisch","46","","even","244659","177030","NA","NA","248366","244655","NA","1867","244175","1867","1867","106713","126152","393089","391582","393913","141966","139127","177030","NA","35485","95323","175381","138910","244659","139130","NA","393089","393089","NA","NA","391577","NAP perception","34","67232","44","yes","1024"
"77.7777777778","yes","77.7777777778","1522.6","1522.6","white","no","xpyriment","Ich habe die obigen Informationen gelesen und verstanden.","legacy","legacy","0","uniform","1","0","0","undefined","undefined","1","j","2","1","NA","0","1","0","0","0","0","0","0","0","0","54","54","54","0","0","0","NA","0","0","2","0","0","0","2","54","54","54","54","54","Sat Nov 11 19:20:25 2017","Forced-choice identification task with a practice and an experimental phase","yes","NAP_GER_AA_4blocks_noglides.osexp","/Users/aviadalbert/Documents/Academisch/UoC/Dissertation/Experiment/OpenSesame/NAP-FC/NAP_GER_AA_4blocks_noglides","yes","no","sans","no","20","no","black","no","Weiter","yes","768","legacy","44","9","0","/Users/aviadalbert/Documents/Academisch/UoC/Dissertation/Experiment/OpenSesame/NAP-FC/NAP_GER_AA_4blocks_noglides/subject-46.csv","xpyriment","Jazzy James","3.1.9","yes","yes","59a800d99ad5a1025d81bb03","59a801616c613b0251691de0","no","no","0","j","j","space","NA","space","space","j","1285","3706","67089","NA","19434","12697","1285","2","legacy","1024","1","44100","-16","experiment","enfal","3","2","0","0","1","niederlaendisch, portugiesisch, englisch","46","","even","244659","177030","NA","NA","248366","244655","NA","1867","244175","1867","1867","106713","126152","395704","394197","396991","141966","139127","177030","NA","35485","95323","175381","138910","244659","139130","NA","395704","395704","NA","NA","394193","NAP perception","35","68517","45","yes","1024"
"78.2608695652","yes","78.2608695652","1511.10869565","1511.10869565","white","no","xpyriment","Ich habe die obigen Informationen gelesen und verstanden.","legacy","legacy","0","uniform","1","0","0","undefined","undefined","1","j","2","1","NA","0","1","0","0","0","0","0","0","0","0","55","55","55","0","0","0","NA","0","0","2","0","0","0","2","55","55","55","55","55","Sat Nov 11 19:20:25 2017","Forced-choice identification task with a practice and an experimental phase","yes","NAP_GER_AA_4blocks_noglides.osexp","/Users/aviadalbert/Documents/Academisch/UoC/Dissertation/Experiment/OpenSesame/NAP-FC/NAP_GER_AA_4blocks_noglides","yes","no","sans","no","20","no","black","no","Weiter","yes","768","legacy","45","9","0","/Users/aviadalbert/Documents/Academisch/UoC/Dissertation/Experiment/OpenSesame/NAP-FC/NAP_GER_AA_4blocks_noglides/subject-46.csv","xpyriment","Jazzy James","3.1.9","yes","yes","59a800d99ad5a1025d81bb03","59a801616c613b0251691de0","no","no","0","j","j","space","NA","space","space","j","994","3706","67089","NA","19434","12697","994","2","legacy","1024","1","44100","-16","experiment","enmal","3","2","0","0","1","niederlaendisch, portugiesisch, englisch","46","","even","244659","177030","NA","NA","248366","244655","NA","1867","244175","1867","1867","106713","126152","398771","397267","399767","141966","139127","177030","NA","35485","95323","175381","138910","244659","139130","NA","398770","398771","NA","NA","397263","NAP perception","36","69511","46","yes","1024"
"78.7234042553","yes","78.7234042553","1508.59574468","1508.59574468","white","no","xpyriment","Ich habe die obigen Informationen gelesen und verstanden.","legacy","legacy","0","uniform","1","0","0","undefined","undefined","1","j","2","1","NA","0","1","0","0","0","0","0","0","0","0","56","56","56","0","0","0","NA","0","0","2","0","0","0","2","56","56","56","56","56","Sat Nov 11 19:20:25 2017","Forced-choice identification task with a practice and an experimental phase","yes","NAP_GER_AA_4blocks_noglides.osexp","/Users/aviadalbert/Documents/Academisch/UoC/Dissertation/Experiment/OpenSesame/NAP-FC/NAP_GER_AA_4blocks_noglides","yes","no","sans","no","20","no","black","no","Weiter","yes","768","legacy","46","9","0","/Users/aviadalbert/Documents/Academisch/UoC/Dissertation/Experiment/OpenSesame/NAP-FC/NAP_GER_AA_4blocks_noglides/subject-46.csv","xpyriment","Jazzy James","3.1.9","yes","yes","59a800d99ad5a1025d81bb03","59a801616c613b0251691de0","no","no","0","j","j","space","NA","space","space","j","1393","3706","67089","NA","19434","12697","1393","2","legacy","1024","1","44100","-16","experiment","mezal","3","2","0","0","1","niederlaendisch, portugiesisch, englisch","46","","even","244659","177030","NA","NA","248366","244655","NA","1867","244175","1867","1867","106713","126152","401552","400046","402946","141966","139127","177030","NA","35485","95323","175381","138910","244659","139130","NA","401552","401552","NA","NA","400041","NAP perception","37","70904","47","yes","1024"
"79.1666666667","yes","79.1666666667","1517.45833333","1517.45833333","white","no","xpyriment","Ich habe die obigen Informationen gelesen und verstanden.","legacy","legacy","0","uniform","1","0","0","undefined","undefined","1","j","2","1","NA","0","1","0","0","0","0","0","0","0","0","57","57","57","0","0","0","NA","0","0","2","0","0","0","2","57","57","57","57","57","Sat Nov 11 19:20:25 2017","Forced-choice identification task with a practice and an experimental phase","yes","NAP_GER_AA_4blocks_noglides.osexp","/Users/aviadalbert/Documents/Academisch/UoC/Dissertation/Experiment/OpenSesame/NAP-FC/NAP_GER_AA_4blocks_noglides","yes","no","sans","no","20","no","black","no","Weiter","yes","768","legacy","47","9","0","/Users/aviadalbert/Documents/Academisch/UoC/Dissertation/Experiment/OpenSesame/NAP-FC/NAP_GER_AA_4blocks_noglides/subject-46.csv","xpyriment","Jazzy James","3.1.9","yes","yes","59a800d99ad5a1025d81bb03","59a801616c613b0251691de0","no","no","0","j","j","space","NA","space","space","j","1934","3706","67089","NA","19434","12697","1934","2","legacy","1024","1","44100","-16","experiment","efsal","3","2","0","0","1","niederlaendisch, portugiesisch, englisch","46","","even","244659","177030","NA","NA","248366","244655","NA","1867","244175","1867","1867","106713","126152","404734","403227","406670","141966","139127","177030","NA","35485","95323","175381","138910","244659","139130","NA","404734","404734","NA","NA","403223","NAP perception","38","72838","48","yes","1024"
"79.5918367347","yes","79.5918367347","1508.93877551","1508.93877551","white","no","xpyriment","Ich habe die obigen Informationen gelesen und verstanden.","legacy","legacy","0","uniform","1","0","0","undefined","undefined","1","f","2","1","NA","0","1","0","0","0","0","0","0","0","0","58","58","58","0","0","0","NA","0","0","2","0","0","0","2","58","58","58","58","58","Sat Nov 11 19:20:25 2017","Forced-choice identification task with a practice and an experimental phase","yes","NAP_GER_AA_4blocks_noglides.osexp","/Users/aviadalbert/Documents/Academisch/UoC/Dissertation/Experiment/OpenSesame/NAP-FC/NAP_GER_AA_4blocks_noglides","yes","no","sans","no","20","no","black","no","Weiter","yes","768","legacy","48","9","0","/Users/aviadalbert/Documents/Academisch/UoC/Dissertation/Experiment/OpenSesame/NAP-FC/NAP_GER_AA_4blocks_noglides/subject-46.csv","xpyriment","Jazzy James","3.1.9","yes","yes","59a800d99ad5a1025d81bb03","59a801616c613b0251691de0","no","no","0","f","j","space","NA","space","space","f","1100","3706","67089","NA","19434","12697","1100","2","legacy","1024","1","44100","-16","experiment","smal","3","2","0","0","1","niederlaendisch, portugiesisch, englisch","46","","even","244659","177030","NA","NA","248366","244655","NA","1867","244175","1867","1867","106713","126152","408443","406939","409545","141966","139127","177030","NA","35485","95323","175381","138910","244659","139130","NA","408442","408442","NA","NA","406935","NAP perception","39","73938","49","yes","1024"
"80","yes","80","1496.24","1496.24","white","no","xpyriment","Ich habe die obigen Informationen gelesen und verstanden.","legacy","legacy","0","uniform","1","0","0","undefined","undefined","1","j","2","1","NA","0","1","0","0","0","0","0","0","0","0","59","59","59","0","0","0","NA","0","0","2","0","0","0","2","59","59","59","59","59","Sat Nov 11 19:20:25 2017","Forced-choice identification task with a practice and an experimental phase","yes","NAP_GER_AA_4blocks_noglides.osexp","/Users/aviadalbert/Documents/Academisch/UoC/Dissertation/Experiment/OpenSesame/NAP-FC/NAP_GER_AA_4blocks_noglides","yes","no","sans","no","20","no","black","no","Weiter","yes","768","legacy","49","9","0","/Users/aviadalbert/Documents/Academisch/UoC/Dissertation/Experiment/OpenSesame/NAP-FC/NAP_GER_AA_4blocks_noglides/subject-46.csv","xpyriment","Jazzy James","3.1.9","yes","yes","59a800d99ad5a1025d81bb03","59a801616c613b0251691de0","no","no","0","j","j","space","NA","space","space","j","874","3706","67089","NA","19434","12697","874","2","legacy","1024","1","44100","-16","experiment","fesal","3","2","0","0","1","niederlaendisch, portugiesisch, englisch","46","","even","244659","177030","NA","NA","248366","244655","NA","1867","244175","1867","1867","106713","126152","411344","409840","412220","141966","139127","177030","NA","35485","95323","175381","138910","244659","139130","NA","411343","411343","NA","NA","409836","NAP perception","40","74812","50","yes","1024"
"80.3921568627","yes","80.3921568627","1496.88235294","1496.88235294","white","no","xpyriment","Ich habe die obigen Informationen gelesen und verstanden.","legacy","legacy","0","uniform","1","0","0","undefined","undefined","1","f","2","1","NA","0","1","0","0","0","0","0","0","0","0","60","60","60","0","0","0","NA","0","0","2","0","0","0","2","60","60","60","60","60","Sat Nov 11 19:20:25 2017","Forced-choice identification task with a practice and an experimental phase","yes","NAP_GER_AA_4blocks_noglides.osexp","/Users/aviadalbert/Documents/Academisch/UoC/Dissertation/Experiment/OpenSesame/NAP-FC/NAP_GER_AA_4blocks_noglides","yes","no","sans","no","20","no","black","no","Weiter","yes","768","legacy","50","9","0","/Users/aviadalbert/Documents/Academisch/UoC/Dissertation/Experiment/OpenSesame/NAP-FC/NAP_GER_AA_4blocks_noglides/subject-46.csv","xpyriment","Jazzy James","3.1.9","yes","yes","59a800d99ad5a1025d81bb03","59a801616c613b0251691de0","no","no","0","f","j","space","NA","space","space","f","1529","3706","67089","NA","19434","12697","1529","2","legacy","1024","1","44100","-16","experiment","ftal","3","2","0","0","1","niederlaendisch, portugiesisch, englisch","46","","even","244659","177030","NA","NA","248366","244655","NA","1867","244175","1867","1867","106713","126152","413993","412489","415524","141966","139127","177030","NA","35485","95323","175381","138910","244659","139130","NA","413993","413993","NA","NA","412485","NAP perception","41","76341","51","yes","1024"
"80.7692307692","yes","80.7692307692","1494.07692308","1494.07692308","white","no","xpyriment","Ich habe die obigen Informationen gelesen und verstanden.","legacy","legacy","0","uniform","1","0","0","undefined","undefined","1","j","2","1","NA","0","1","0","0","0","0","0","0","0","0","61","61","61","0","0","0","NA","0","0","2","0","0","0","2","61","61","61","61","61","Sat Nov 11 19:20:25 2017","Forced-choice identification task with a practice and an experimental phase","yes","NAP_GER_AA_4blocks_noglides.osexp","/Users/aviadalbert/Documents/Academisch/UoC/Dissertation/Experiment/OpenSesame/NAP-FC/NAP_GER_AA_4blocks_noglides","yes","no","sans","no","20","no","black","no","Weiter","yes","768","legacy","51","9","0","/Users/aviadalbert/Documents/Academisch/UoC/Dissertation/Experiment/OpenSesame/NAP-FC/NAP_GER_AA_4blocks_noglides/subject-46.csv","xpyriment","Jazzy James","3.1.9","yes","yes","59a800d99ad5a1025d81bb03","59a801616c613b0251691de0","no","no","0","j","j","space","NA","space","space","j","1351","3706","67089","NA","19434","12697","1351","2","legacy","1024","1","44100","-16","experiment","ezmal","3","2","0","0","1","niederlaendisch, portugiesisch, englisch","46","","even","244659","177030","NA","NA","248366","244655","NA","1867","244175","1867","1867","106713","126152","417298","415794","418651","141966","139127","177030","NA","35485","95323","175381","138910","244659","139130","NA","417297","417297","NA","NA","415790","NAP perception","42","77692","52","yes","1024"
"81.1320754717","yes","81.1320754717","1498.22641509","1498.22641509","white","no","xpyriment","Ich habe die obigen Informationen gelesen und verstanden.","legacy","legacy","0","uniform","1","0","0","undefined","undefined","1","f","2","1","NA","0","1","0","0","0","0","0","0","0","0","62","62","62","0","0","0","NA","0","0","2","0","0","0","2","62","62","62","62","62","Sat Nov 11 19:20:25 2017","Forced-choice identification task with a practice and an experimental phase","yes","NAP_GER_AA_4blocks_noglides.osexp","/Users/aviadalbert/Documents/Academisch/UoC/Dissertation/Experiment/OpenSesame/NAP-FC/NAP_GER_AA_4blocks_noglides","yes","no","sans","no","20","no","black","no","Weiter","yes","768","legacy","52","9","0","/Users/aviadalbert/Documents/Academisch/UoC/Dissertation/Experiment/OpenSesame/NAP-FC/NAP_GER_AA_4blocks_noglides/subject-46.csv","xpyriment","Jazzy James","3.1.9","yes","yes","59a800d99ad5a1025d81bb03","59a801616c613b0251691de0","no","no","0","f","j","space","NA","space","space","f","1714","3706","67089","NA","19434","12697","1714","2","legacy","1024","1","44100","-16","experiment","nmal","3","2","0","0","1","niederlaendisch, portugiesisch, englisch","46","","even","244659","177030","NA","NA","248366","244655","NA","1867","244175","1867","1867","106713","126152","420431","418926","422147","141966","139127","177030","NA","35485","95323","175381","138910","244659","139130","NA","420431","420431","NA","NA","418922","NAP perception","43","79406","53","yes","1024"
"81.4814814815","yes","81.4814814815","1494.7037037","1494.7037037","white","no","xpyriment","Ich habe die obigen Informationen gelesen und verstanden.","legacy","legacy","0","uniform","1","0","0","undefined","undefined","1","f","2","1","NA","0","1","0","0","0","0","0","0","0","0","63","63","63","0","0","0","NA","0","0","2","0","0","0","2","63","63","63","63","63","Sat Nov 11 19:20:25 2017","Forced-choice identification task with a practice and an experimental phase","yes","NAP_GER_AA_4blocks_noglides.osexp","/Users/aviadalbert/Documents/Academisch/UoC/Dissertation/Experiment/OpenSesame/NAP-FC/NAP_GER_AA_4blocks_noglides","yes","no","sans","no","20","no","black","no","Weiter","yes","768","legacy","53","9","0","/Users/aviadalbert/Documents/Academisch/UoC/Dissertation/Experiment/OpenSesame/NAP-FC/NAP_GER_AA_4blocks_noglides/subject-46.csv","xpyriment","Jazzy James","3.1.9","yes","yes","59a800d99ad5a1025d81bb03","59a801616c613b0251691de0","no","no","0","f","j","space","NA","space","space","f","1308","3706","67089","NA","19434","12697","1308","2","legacy","1024","1","44100","-16","experiment","mtal","3","2","0","0","1","niederlaendisch, portugiesisch, englisch","46","","even","244659","177030","NA","NA","248366","244655","NA","1867","244175","1867","1867","106713","126152","423917","422412","425227","141966","139127","177030","NA","35485","95323","175381","138910","244659","139130","NA","423916","423916","NA","NA","422407","NAP perception","44","80714","54","yes","1024"
"81.8181818182","yes","81.8181818182","1487.54545455","1487.54545455","white","no","xpyriment","Ich habe die obigen Informationen gelesen und verstanden.","legacy","legacy","0","uniform","1","0","0","undefined","undefined","1","f","2","1","NA","0","1","0","0","0","0","0","0","0","0","64","64","64","0","0","0","NA","0","0","2","0","0","0","2","64","64","64","64","64","Sat Nov 11 19:20:25 2017","Forced-choice identification task with a practice and an experimental phase","yes","NAP_GER_AA_4blocks_noglides.osexp","/Users/aviadalbert/Documents/Academisch/UoC/Dissertation/Experiment/OpenSesame/NAP-FC/NAP_GER_AA_4blocks_noglides","yes","no","sans","no","20","no","black","no","Weiter","yes","768","legacy","54","9","0","/Users/aviadalbert/Documents/Academisch/UoC/Dissertation/Experiment/OpenSesame/NAP-FC/NAP_GER_AA_4blocks_noglides/subject-46.csv","xpyriment","Jazzy James","3.1.9","yes","yes","59a800d99ad5a1025d81bb03","59a801616c613b0251691de0","no","no","0","f","j","space","NA","space","space","f","1101","3706","67089","NA","19434","12697","1101","2","legacy","1024","1","44100","-16","experiment","zmal","3","2","0","0","1","niederlaendisch, portugiesisch, englisch","46","","even","244659","177030","NA","NA","248366","244655","NA","1867","244175","1867","1867","106713","126152","427022","425518","428125","141966","139127","177030","NA","35485","95323","175381","138910","244659","139130","NA","427021","427021","NA","NA","425513","NAP perception","45","81815","55","yes","1024"
