"acc","accept_status","accuracy","average_response_time","avg_rt","background","bidi","canvas_backend","checkbox_status","clock_backend","color_backend","compensation","coordinates","correct","correct_block_activation","correct_block_exit","correct_instructions_1","correct_instructions_2","correct_keyboard_response","correct_response","count_block_activation","count_block_exit","count_block_info_QA","count_cont_e_block_message","count_e_block_loop","count_e_block_sequence","count_end_of_experiment","count_experiment","count_experimental_loop","count_form_consent","count_info_forms","count_instructions_1","count_instructions_2","count_keyboard_response","count_listen_message","count_logger","count_p_block_loop","count_p_block_sequence","count_p_feedback","count_pause_feedback","count_personal_details_form_1","count_personal_details_form_2","count_post_loop_blank","count_practice_loop","count_pre_e_block_message","count_pre_p_block_message","count_reset_feedback","count_stimulus_image","count_stimulus_sound","count_timeout_message","count_timeout_sound","count_trial_sequence","datetime","description","disable_garbage_collection","experiment_file","experiment_path","expyriment_opengl","font_bold","font_family","font_italic","font_size","font_underline","foreground","form_clicks","form_response","fullscreen","height","keyboard_backend","live_row","live_row_p_block_loop","live_row_practice_loop","logfile","mouse_backend","opensesame_codename","opensesame_version","osf_always_upload_data","osf_always_upload_experiment","osf_datanode_id","osf_id","practice","pygame_doublebuf","repeat_cycle","response","response_block_activation","response_block_exit","response_block_info_QA","response_instructions_1","response_instructions_2","response_keyboard_response","response_time","response_time_block_activation","response_time_block_exit","response_time_block_info_QA","response_time_instructions_1","response_time_instructions_2","response_time_keyboard_response","round_decimals","sampler_backend","sound_buf_size","sound_channels","sound_freq","sound_sample_size","start","stimulus","subject_age","subject_education","subject_gender","subject_german_native","subject_handedness","subject_language_other","subject_nr","subject_other_native_lang","subject_parity","time_block_activation","time_block_exit","time_block_info_QA","time_cont_e_block_message","time_e_block_loop","time_e_block_sequence","time_end_of_experiment","time_experiment","time_experimental_loop","time_form_consent","time_info_forms","time_instructions_1","time_instructions_2","time_keyboard_response","time_listen_message","time_logger","time_p_block_loop","time_p_block_sequence","time_p_feedback","time_pause_feedback","time_personal_details_form_1","time_personal_details_form_2","time_post_loop_blank","time_practice_loop","time_pre_e_block_message","time_pre_p_block_message","time_reset_feedback","time_stimulus_image","time_stimulus_sound","time_timeout_message","time_timeout_sound","time_trial_sequence","title","total_correct","total_response_time","total_responses","uniform_coordinates","width"
"100","yes","100","2043","2043","white","no","xpyriment","Ich habe die obigen Informationen gelesen und verstanden.","legacy","legacy","0","uniform","1","0","NA","undefined","undefined","1","f","0","0","NA","NA","NA","NA","NA","0","0","0","0","0","0","0","0","0","0","0","NA","NA","0","0","0","0","NA","0","0","0","0","0","0","0","Wed Oct  4 21:13:35 2017","Forced-choice identification task with a practice and an experimental phase","yes","NAP_GER_AA_4blocks_noglides.osexp","/Users/aviadalbert/Documents/Academisch/UoC/Dissertation/Experiment/OpenSesame/NAP-FC/NAP_GER_AA_4blocks_noglides","yes","no","sans","no","20","no","black","no","Weiter","yes","768","legacy","0","0","0","/Users/aviadalbert/Documents/Academisch/UoC/Dissertation/Experiment/OpenSesame/NAP-FC/NAP_GER_AA_4blocks_noglides/subject-9.csv","xpyriment","Jazzy James","3.1.9","yes","yes","59a800d99ad5a1025d81bb03","59a801616c613b0251691de0","yes","no","0","f","f","NA","NA","space","space","f","2043","15656","NA","NA","41912","11052","2043","2","legacy","1024","1","44100","-16","experiment","flal","4","0","0","0","1","Englisch, Italienisch","9","","odd","1884466","NA","NA","NA","NA","NA","NA","1755266","NA","1755266","1755266","1831202","1873119","1901859","1900353","1903903","1900123","1884462","NA","NA","1772781","1816555","NA","1884236","NA","1884466","NA","1901859","1901859","NA","NA","1900349","NAP perception","1","2043","1","yes","1024"
"100","yes","100","1613.5","1613.5","white","no","xpyriment","Ich habe die obigen Informationen gelesen und verstanden.","legacy","legacy","0","uniform","1","0","NA","undefined","undefined","1","j","0","0","NA","NA","NA","NA","NA","0","0","0","0","0","0","1","1","1","0","0","NA","NA","0","0","0","0","NA","0","0","1","1","1","1","1","Wed Oct  4 21:13:35 2017","Forced-choice identification task with a practice and an experimental phase","yes","NAP_GER_AA_4blocks_noglides.osexp","/Users/aviadalbert/Documents/Academisch/UoC/Dissertation/Experiment/OpenSesame/NAP-FC/NAP_GER_AA_4blocks_noglides","yes","no","sans","no","20","no","black","no","Weiter","yes","768","legacy","1","1","0","/Users/aviadalbert/Documents/Academisch/UoC/Dissertation/Experiment/OpenSesame/NAP-FC/NAP_GER_AA_4blocks_noglides/subject-9.csv","xpyriment","Jazzy James","3.1.9","yes","yes","59a800d99ad5a1025d81bb03","59a801616c613b0251691de0","yes","no","0","j","f","NA","NA","space","space","j","1184","15656","NA","NA","41912","11052","1184","2","legacy","1024","1","44100","-16","experiment","lepal","4","0","0","0","1","Englisch, Italienisch","9","","odd","1884466","NA","NA","NA","NA","NA","NA","1755266","NA","1755266","1755266","1831202","1873119","1905685","1904182","1906870","1900123","1884462","NA","NA","1772781","1816555","NA","1884236","NA","1884466","NA","1905685","1905685","NA","NA","1904178","NAP perception","2","3227","2","yes","1024"
"100","yes","100","1419","1419","white","no","xpyriment","Ich habe die obigen Informationen gelesen und verstanden.","legacy","legacy","0","uniform","1","0","NA","undefined","undefined","1","j","0","0","NA","NA","NA","NA","NA","0","0","0","0","0","0","2","2","2","0","0","NA","NA","0","0","0","0","NA","0","0","2","2","2","2","2","Wed Oct  4 21:13:35 2017","Forced-choice identification task with a practice and an experimental phase","yes","NAP_GER_AA_4blocks_noglides.osexp","/Users/aviadalbert/Documents/Academisch/UoC/Dissertation/Experiment/OpenSesame/NAP-FC/NAP_GER_AA_4blocks_noglides","yes","no","sans","no","20","no","black","no","Weiter","yes","768","legacy","2","2","0","/Users/aviadalbert/Documents/Academisch/UoC/Dissertation/Experiment/OpenSesame/NAP-FC/NAP_GER_AA_4blocks_noglides/subject-9.csv","xpyriment","Jazzy James","3.1.9","yes","yes","59a800d99ad5a1025d81bb03","59a801616c613b0251691de0","yes","no","0","j","f","NA","NA","space","space","j","1030","15656","NA","NA","41912","11052","1030","2","legacy","1024","1","44100","-16","experiment","emtal","4","0","0","0","1","Englisch, Italienisch","9","","odd","1884466","NA","NA","NA","NA","NA","NA","1755266","NA","1755266","1755266","1831202","1873119","1908658","1907151","1909689","1900123","1884462","NA","NA","1772781","1816555","NA","1884236","NA","1884466","NA","1908658","1908658","NA","NA","1907147","NAP perception","3","4257","3","yes","1024"
"100","yes","100","1277.5","1277.5","white","no","xpyriment","Ich habe die obigen Informationen gelesen und verstanden.","legacy","legacy","0","uniform","1","0","NA","undefined","undefined","1","f","0","0","NA","NA","NA","NA","NA","0","0","0","0","0","0","3","3","3","0","0","NA","NA","0","0","0","0","NA","0","0","3","3","3","3","3","Wed Oct  4 21:13:35 2017","Forced-choice identification task with a practice and an experimental phase","yes","NAP_GER_AA_4blocks_noglides.osexp","/Users/aviadalbert/Documents/Academisch/UoC/Dissertation/Experiment/OpenSesame/NAP-FC/NAP_GER_AA_4blocks_noglides","yes","no","sans","no","20","no","black","no","Weiter","yes","768","legacy","3","3","0","/Users/aviadalbert/Documents/Academisch/UoC/Dissertation/Experiment/OpenSesame/NAP-FC/NAP_GER_AA_4blocks_noglides/subject-9.csv","xpyriment","Jazzy James","3.1.9","yes","yes","59a800d99ad5a1025d81bb03","59a801616c613b0251691de0","yes","no","0","f","f","NA","NA","space","space","f","853","15656","NA","NA","41912","11052","853","2","legacy","1024","1","44100","-16","experiment","ﾊパal","4","0","0","0","1","Englisch, Italienisch","9","","odd","1884466","NA","NA","NA","NA","NA","NA","1755266","NA","1755266","1755266","1831202","1873119","1911477","1909973","1912331","1900123","1884462","NA","NA","1772781","1816555","NA","1884236","NA","1884466","NA","1911477","1911477","NA","NA","1909969","NAP perception","4","5110","4","yes","1024"
"100","yes","100","1362.2","1362.2","white","no","xpyriment","Ich habe die obigen Informationen gelesen und verstanden.","legacy","legacy","0","uniform","1","0","NA","undefined","undefined","1","j","0","0","NA","NA","NA","NA","NA","0","0","0","0","0","0","4","4","4","0","0","NA","NA","0","0","0","0","NA","0","0","4","4","4","4","4","Wed Oct  4 21:13:35 2017","Forced-choice identification task with a practice and an experimental phase","yes","NAP_GER_AA_4blocks_noglides.osexp","/Users/aviadalbert/Documents/Academisch/UoC/Dissertation/Experiment/OpenSesame/NAP-FC/NAP_GER_AA_4blocks_noglides","yes","no","sans","no","20","no","black","no","Weiter","yes","768","legacy","4","4","0","/Users/aviadalbert/Documents/Academisch/UoC/Dissertation/Experiment/OpenSesame/NAP-FC/NAP_GER_AA_4blocks_noglides/subject-9.csv","xpyriment","Jazzy James","3.1.9","yes","yes","59a800d99ad5a1025d81bb03","59a801616c613b0251691de0","yes","no","0","j","f","NA","NA","space","space","j","1701","15656","NA","NA","41912","11052","1701","2","legacy","1024","1","44100","-16","experiment","nefal","4","0","0","0","1","Englisch, Italienisch","9","","odd","1884466","NA","NA","NA","NA","NA","NA","1755266","NA","1755266","1755266","1831202","1873119","1914095","1912592","1915798","1900123","1884462","NA","NA","1772781","1816555","NA","1884236","NA","1884466","NA","1914095","1914095","NA","NA","1912588","NAP perception","5","6811","5","yes","1024"
"83.3333333333","yes","83.3333333333","1462.33333333","1462.33333333","white","no","xpyriment","Ich habe die obigen Informationen gelesen und verstanden.","legacy","legacy","0","uniform","0","0","NA","undefined","undefined","0","f","0","0","NA","NA","NA","NA","NA","0","0","0","0","0","0","5","5","5","0","0","NA","NA","0","0","0","0","NA","0","0","5","5","5","5","5","Wed Oct  4 21:13:35 2017","Forced-choice identification task with a practice and an experimental phase","yes","NAP_GER_AA_4blocks_noglides.osexp","/Users/aviadalbert/Documents/Academisch/UoC/Dissertation/Experiment/OpenSesame/NAP-FC/NAP_GER_AA_4blocks_noglides","yes","no","sans","no","20","no","black","no","Weiter","yes","768","legacy","5","5","0","/Users/aviadalbert/Documents/Academisch/UoC/Dissertation/Experiment/OpenSesame/NAP-FC/NAP_GER_AA_4blocks_noglides/subject-9.csv","xpyriment","Jazzy James","3.1.9","yes","yes","59a800d99ad5a1025d81bb03","59a801616c613b0251691de0","yes","no","0","j","f","NA","NA","space","space","j","1963","15656","NA","NA","41912","11052","1963","2","legacy","1024","1","44100","-16","experiment","sfal","4","0","0","0","1","Englisch, Italienisch","9","","odd","1884466","NA","NA","NA","NA","NA","NA","1755266","NA","1755266","1755266","1831202","1873119","1917574","1916067","1919539","1900123","1884462","NA","NA","1772781","1816555","NA","1884236","NA","1884466","NA","1917573","1917573","NA","NA","1916063","NAP perception","5","8774","6","yes","1024"
"85.7142857143","yes","85.7142857143","1551","1551","white","no","xpyriment","Ich habe die obigen Informationen gelesen und verstanden.","legacy","legacy","0","uniform","1","0","NA","undefined","undefined","1","f","0","0","NA","NA","NA","NA","NA","0","0","0","0","0","0","6","6","6","0","0","NA","NA","0","0","0","0","NA","0","0","6","6","6","6","6","Wed Oct  4 21:13:35 2017","Forced-choice identification task with a practice and an experimental phase","yes","NAP_GER_AA_4blocks_noglides.osexp","/Users/aviadalbert/Documents/Academisch/UoC/Dissertation/Experiment/OpenSesame/NAP-FC/NAP_GER_AA_4blocks_noglides","yes","no","sans","no","20","no","black","no","Weiter","yes","768","legacy","6","6","0","/Users/aviadalbert/Documents/Academisch/UoC/Dissertation/Experiment/OpenSesame/NAP-FC/NAP_GER_AA_4blocks_noglides/subject-9.csv","xpyriment","Jazzy James","3.1.9","yes","yes","59a800d99ad5a1025d81bb03","59a801616c613b0251691de0","yes","no","0","f","f","NA","NA","space","space","f","2083","15656","NA","NA","41912","11052","2083","2","legacy","1024","1","44100","-16","experiment","zmal","4","0","0","0","1","Englisch, Italienisch","9","","odd","1884466","NA","NA","NA","NA","NA","NA","1755266","NA","1755266","1755266","1831202","1873119","1921372","1919866","1923457","1900123","1884462","NA","NA","1772781","1816555","NA","1884236","NA","1884466","NA","1921372","1921372","NA","NA","1919862","NAP perception","6","10857","7","yes","1024"
"87.5","yes","87.5","1496.625","1496.625","white","no","xpyriment","Ich habe die obigen Informationen gelesen und verstanden.","legacy","legacy","0","uniform","1","0","NA","undefined","undefined","1","j","0","0","NA","NA","NA","NA","NA","0","0","0","0","0","0","7","7","7","0","0","NA","NA","0","0","0","0","NA","0","0","7","7","7","7","7","Wed Oct  4 21:13:35 2017","Forced-choice identification task with a practice and an experimental phase","yes","NAP_GER_AA_4blocks_noglides.osexp","/Users/aviadalbert/Documents/Academisch/UoC/Dissertation/Experiment/OpenSesame/NAP-FC/NAP_GER_AA_4blocks_noglides","yes","no","sans","no","20","no","black","no","Weiter","yes","768","legacy","7","7","0","/Users/aviadalbert/Documents/Academisch/UoC/Dissertation/Experiment/OpenSesame/NAP-FC/NAP_GER_AA_4blocks_noglides/subject-9.csv","xpyriment","Jazzy James","3.1.9","yes","yes","59a800d99ad5a1025d81bb03","59a801616c613b0251691de0","yes","no","0","j","f","NA","NA","space","space","j","1116","15656","NA","NA","41912","11052","1116","2","legacy","1024","1","44100","-16","experiment","mesal","4","0","0","0","1","Englisch, Italienisch","9","","odd","1884466","NA","NA","NA","NA","NA","NA","1755266","NA","1755266","1755266","1831202","1873119","1925247","1923742","1926364","1900123","1884462","NA","NA","1772781","1816555","NA","1884236","NA","1884466","NA","1925247","1925247","NA","NA","1923738","NAP perception","7","11973","8","yes","1024"
"88.8888888889","yes","88.8888888889","1440.22222222","1440.22222222","white","no","xpyriment","Ich habe die obigen Informationen gelesen und verstanden.","legacy","legacy","0","uniform","1","0","NA","undefined","undefined","1","j","0","0","NA","NA","NA","NA","NA","0","0","0","0","0","0","8","8","8","0","0","NA","NA","0","0","0","0","NA","0","0","8","8","8","8","8","Wed Oct  4 21:13:35 2017","Forced-choice identification task with a practice and an experimental phase","yes","NAP_GER_AA_4blocks_noglides.osexp","/Users/aviadalbert/Documents/Academisch/UoC/Dissertation/Experiment/OpenSesame/NAP-FC/NAP_GER_AA_4blocks_noglides","yes","no","sans","no","20","no","black","no","Weiter","yes","768","legacy","8","8","0","/Users/aviadalbert/Documents/Academisch/UoC/Dissertation/Experiment/OpenSesame/NAP-FC/NAP_GER_AA_4blocks_noglides/subject-9.csv","xpyriment","Jazzy James","3.1.9","yes","yes","59a800d99ad5a1025d81bb03","59a801616c613b0251691de0","yes","no","0","j","f","NA","NA","space","space","j","989","15656","NA","NA","41912","11052","989","2","legacy","1024","1","44100","-16","experiment","enval","4","0","0","0","1","Englisch, Italienisch","9","","odd","1884466","NA","NA","NA","NA","NA","NA","1755266","NA","1755266","1755266","1831202","1873119","1928154","1926647","1929144","1900123","1884462","NA","NA","1772781","1816555","NA","1884236","NA","1884466","NA","1928154","1928154","NA","NA","1926643","NAP perception","8","12962","9","yes","1024"
"80","yes","80","1447.3","1447.3","white","no","xpyriment","Ich habe die obigen Informationen gelesen und verstanden.","legacy","legacy","0","uniform","0","0","NA","undefined","undefined","0","f","0","0","NA","NA","NA","NA","NA","0","0","0","0","0","0","9","9","9","0","0","NA","NA","0","0","0","0","NA","0","0","9","9","9","9","9","Wed Oct  4 21:13:35 2017","Forced-choice identification task with a practice and an experimental phase","yes","NAP_GER_AA_4blocks_noglides.osexp","/Users/aviadalbert/Documents/Academisch/UoC/Dissertation/Experiment/OpenSesame/NAP-FC/NAP_GER_AA_4blocks_noglides","yes","no","sans","no","20","no","black","no","Weiter","yes","768","legacy","9","9","0","/Users/aviadalbert/Documents/Academisch/UoC/Dissertation/Experiment/OpenSesame/NAP-FC/NAP_GER_AA_4blocks_noglides/subject-9.csv","xpyriment","Jazzy James","3.1.9","yes","yes","59a800d99ad5a1025d81bb03","59a801616c613b0251691de0","yes","no","0","j","f","NA","NA","space","space","j","1511","15656","NA","NA","41912","11052","1511","2","legacy","1024","1","44100","-16","experiment","vlal","4","0","0","0","1","Englisch, Italienisch","9","","odd","1884466","NA","NA","NA","NA","NA","NA","1755266","NA","1755266","1755266","1831202","1873119","1930924","1929419","1932436","1900123","1884462","NA","NA","1772781","1816555","NA","1884236","NA","1884466","NA","1930924","1930924","NA","NA","1929415","NAP perception","8","14473","10","yes","1024"
"100","yes","100","1331","1331","white","no","xpyriment","Ich habe die obigen Informationen gelesen und verstanden.","legacy","legacy","0","uniform","1","0","0","undefined","undefined","1","j","2","1","NA","0","1","0","0","0","0","0","0","0","0","10","10","10","0","0","0","NA","0","0","2","0","0","0","2","10","10","10","10","10","Wed Oct  4 21:13:35 2017","Forced-choice identification task with a practice and an experimental phase","yes","NAP_GER_AA_4blocks_noglides.osexp","/Users/aviadalbert/Documents/Academisch/UoC/Dissertation/Experiment/OpenSesame/NAP-FC/NAP_GER_AA_4blocks_noglides","yes","no","sans","no","20","no","black","no","Weiter","yes","768","legacy","0","9","0","/Users/aviadalbert/Documents/Academisch/UoC/Dissertation/Experiment/OpenSesame/NAP-FC/NAP_GER_AA_4blocks_noglides/subject-9.csv","xpyriment","Jazzy James","3.1.9","yes","yes","59a800d99ad5a1025d81bb03","59a801616c613b0251691de0","no","no","0","j","j","space","NA","space","space","j","1331","12644","14615","NA","41912","11052","1331","2","legacy","1024","1","44100","-16","experiment","elfal","4","0","0","0","1","Englisch, Italienisch","9","","odd","1949303","1934163","NA","NA","1961948","1949298","NA","1755266","1948834","1755266","1755266","1831202","1873119","1963670","1962165","1965003","1900123","1884462","1934163","NA","1772781","1816555","1932498","1884236","1949302","1884466","NA","1963670","1963670","NA","NA","1962161","NAP perception","1","1331","1","yes","1024"
"100","yes","100","1832.5","1832.5","white","no","xpyriment","Ich habe die obigen Informationen gelesen und verstanden.","legacy","legacy","0","uniform","1","0","0","undefined","undefined","1","f","2","1","NA","0","1","0","0","0","0","0","0","0","0","11","11","11","0","0","0","NA","0","0","2","0","0","0","2","11","11","11","11","11","Wed Oct  4 21:13:35 2017","Forced-choice identification task with a practice and an experimental phase","yes","NAP_GER_AA_4blocks_noglides.osexp","/Users/aviadalbert/Documents/Academisch/UoC/Dissertation/Experiment/OpenSesame/NAP-FC/NAP_GER_AA_4blocks_noglides","yes","no","sans","no","20","no","black","no","Weiter","yes","768","legacy","1","9","0","/Users/aviadalbert/Documents/Academisch/UoC/Dissertation/Experiment/OpenSesame/NAP-FC/NAP_GER_AA_4blocks_noglides/subject-9.csv","xpyriment","Jazzy James","3.1.9","yes","yes","59a800d99ad5a1025d81bb03","59a801616c613b0251691de0","no","no","0","f","j","space","NA","space","space","f","2334","12644","14615","NA","41912","11052","2334","2","legacy","1024","1","44100","-16","experiment","mzal","4","0","0","0","1","Englisch, Italienisch","9","","odd","1949303","1934163","NA","NA","1961948","1949298","NA","1755266","1948834","1755266","1755266","1831202","1873119","1966785","1965282","1969120","1900123","1884462","1934163","NA","1772781","1816555","1932498","1884236","1949302","1884466","NA","1966785","1966785","NA","NA","1965278","NAP perception","2","3665","2","yes","1024"
"66.6666666667","yes","66.6666666667","1497","1497","white","no","xpyriment","Ich habe die obigen Informationen gelesen und verstanden.","legacy","legacy","0","uniform","0","0","0","undefined","undefined","0","f","2","1","NA","0","1","0","0","0","0","0","0","0","0","12","12","12","0","0","0","NA","0","0","2","0","0","0","2","12","12","12","12","12","Wed Oct  4 21:13:35 2017","Forced-choice identification task with a practice and an experimental phase","yes","NAP_GER_AA_4blocks_noglides.osexp","/Users/aviadalbert/Documents/Academisch/UoC/Dissertation/Experiment/OpenSesame/NAP-FC/NAP_GER_AA_4blocks_noglides","yes","no","sans","no","20","no","black","no","Weiter","yes","768","legacy","2","9","0","/Users/aviadalbert/Documents/Academisch/UoC/Dissertation/Experiment/OpenSesame/NAP-FC/NAP_GER_AA_4blocks_noglides/subject-9.csv","xpyriment","Jazzy James","3.1.9","yes","yes","59a800d99ad5a1025d81bb03","59a801616c613b0251691de0","no","no","0","j","j","space","NA","space","space","j","826","12644","14615","NA","41912","11052","826","2","legacy","1024","1","44100","-16","experiment","lkal","4","0","0","0","1","Englisch, Italienisch","9","","odd","1949303","1934163","NA","NA","1961948","1949298","NA","1755266","1948834","1755266","1755266","1831202","1873119","1970902","1969396","1971729","1900123","1884462","1934163","NA","1772781","1816555","1932498","1884236","1949302","1884466","NA","1970902","1970902","NA","NA","1969391","NAP perception","2","4491","3","yes","1024"
"75","yes","75","1639","1639","white","no","xpyriment","Ich habe die obigen Informationen gelesen und verstanden.","legacy","legacy","0","uniform","1","0","0","undefined","undefined","1","f","2","1","NA","0","1","0","0","0","0","0","0","0","0","13","13","13","0","0","0","NA","0","0","2","0","0","0","2","13","13","13","13","13","Wed Oct  4 21:13:35 2017","Forced-choice identification task with a practice and an experimental phase","yes","NAP_GER_AA_4blocks_noglides.osexp","/Users/aviadalbert/Documents/Academisch/UoC/Dissertation/Experiment/OpenSesame/NAP-FC/NAP_GER_AA_4blocks_noglides","yes","no","sans","no","20","no","black","no","Weiter","yes","768","legacy","3","9","0","/Users/aviadalbert/Documents/Academisch/UoC/Dissertation/Experiment/OpenSesame/NAP-FC/NAP_GER_AA_4blocks_noglides/subject-9.csv","xpyriment","Jazzy James","3.1.9","yes","yes","59a800d99ad5a1025d81bb03","59a801616c613b0251691de0","no","no","0","f","j","space","NA","space","space","f","2065","12644","14615","NA","41912","11052","2065","2","legacy","1024","1","44100","-16","experiment","vnal","4","0","0","0","1","Englisch, Italienisch","9","","odd","1949303","1934163","NA","NA","1961948","1949298","NA","1755266","1948834","1755266","1755266","1831202","1873119","1973506","1972001","1975572","1900123","1884462","1934163","NA","1772781","1816555","1932498","1884236","1949302","1884466","NA","1973506","1973506","NA","NA","1971998","NAP perception","3","6556","4","yes","1024"
"80","yes","80","1521.6","1521.6","white","no","xpyriment","Ich habe die obigen Informationen gelesen und verstanden.","legacy","legacy","0","uniform","1","0","0","undefined","undefined","1","j","2","1","NA","0","1","0","0","0","0","0","0","0","0","14","14","14","0","0","0","NA","0","0","2","0","0","0","2","14","14","14","14","14","Wed Oct  4 21:13:35 2017","Forced-choice identification task with a practice and an experimental phase","yes","NAP_GER_AA_4blocks_noglides.osexp","/Users/aviadalbert/Documents/Academisch/UoC/Dissertation/Experiment/OpenSesame/NAP-FC/NAP_GER_AA_4blocks_noglides","yes","no","sans","no","20","no","black","no","Weiter","yes","768","legacy","4","9","0","/Users/aviadalbert/Documents/Academisch/UoC/Dissertation/Experiment/OpenSesame/NAP-FC/NAP_GER_AA_4blocks_noglides/subject-9.csv","xpyriment","Jazzy James","3.1.9","yes","yes","59a800d99ad5a1025d81bb03","59a801616c613b0251691de0","no","no","0","j","j","space","NA","space","space","j","1052","12644","14615","NA","41912","11052","1052","2","legacy","1024","1","44100","-16","experiment","nefal","4","0","0","0","1","Englisch, Italienisch","9","","odd","1949303","1934163","NA","NA","1961948","1949298","NA","1755266","1948834","1755266","1755266","1831202","1873119","1977358","1975851","1978411","1900123","1884462","1934163","NA","1772781","1816555","1932498","1884236","1949302","1884466","NA","1977357","1977357","NA","NA","1975847","NAP perception","4","7608","5","yes","1024"
"83.3333333333","yes","83.3333333333","1500","1500","white","no","xpyriment","Ich habe die obigen Informationen gelesen und verstanden.","legacy","legacy","0","uniform","1","0","0","undefined","undefined","1","f","2","1","NA","0","1","0","0","0","0","0","0","0","0","15","15","15","0","0","0","NA","0","0","2","0","0","0","2","15","15","15","15","15","Wed Oct  4 21:13:35 2017","Forced-choice identification task with a practice and an experimental phase","yes","NAP_GER_AA_4blocks_noglides.osexp","/Users/aviadalbert/Documents/Academisch/UoC/Dissertation/Experiment/OpenSesame/NAP-FC/NAP_GER_AA_4blocks_noglides","yes","no","sans","no","20","no","black","no","Weiter","yes","768","legacy","5","9","0","/Users/aviadalbert/Documents/Academisch/UoC/Dissertation/Experiment/OpenSesame/NAP-FC/NAP_GER_AA_4blocks_noglides/subject-9.csv","xpyriment","Jazzy James","3.1.9","yes","yes","59a800d99ad5a1025d81bb03","59a801616c613b0251691de0","no","no","0","f","j","space","NA","space","space","f","1392","12644","14615","NA","41912","11052","1392","2","legacy","1024","1","44100","-16","experiment","mzal","4","0","0","0","1","Englisch, Italienisch","9","","odd","1949303","1934163","NA","NA","1961948","1949298","NA","1755266","1948834","1755266","1755266","1831202","1873119","1980194","1978687","1981587","1900123","1884462","1934163","NA","1772781","1816555","1932498","1884236","1949302","1884466","NA","1980194","1980194","NA","NA","1978684","NAP perception","5","9000","6","yes","1024"
"71.4285714286","yes","71.4285714286","1424.85714286","1424.85714286","white","no","xpyriment","Ich habe die obigen Informationen gelesen und verstanden.","legacy","legacy","0","uniform","0","0","0","undefined","undefined","0","f","2","1","NA","0","1","0","0","0","0","0","0","0","0","16","16","16","0","0","0","NA","0","0","2","0","0","0","2","16","16","16","16","16","Wed Oct  4 21:13:35 2017","Forced-choice identification task with a practice and an experimental phase","yes","NAP_GER_AA_4blocks_noglides.osexp","/Users/aviadalbert/Documents/Academisch/UoC/Dissertation/Experiment/OpenSesame/NAP-FC/NAP_GER_AA_4blocks_noglides","yes","no","sans","no","20","no","black","no","Weiter","yes","768","legacy","6","9","0","/Users/aviadalbert/Documents/Academisch/UoC/Dissertation/Experiment/OpenSesame/NAP-FC/NAP_GER_AA_4blocks_noglides/subject-9.csv","xpyriment","Jazzy James","3.1.9","yes","yes","59a800d99ad5a1025d81bb03","59a801616c613b0251691de0","no","no","0","j","j","space","NA","space","space","j","974","12644","14615","NA","41912","11052","974","2","legacy","1024","1","44100","-16","experiment","mtal","4","0","0","0","1","Englisch, Italienisch","9","","odd","1949303","1934163","NA","NA","1961948","1949298","NA","1755266","1948834","1755266","1755266","1831202","1873119","1983375","1981872","1984350","1900123","1884462","1934163","NA","1772781","1816555","1932498","1884236","1949302","1884466","NA","1983375","1983375","NA","NA","1981868","NAP perception","5","9974","7","yes","1024"
"75","yes","75","1382.25","1382.25","white","no","xpyriment","Ich habe die obigen Informationen gelesen und verstanden.","legacy","legacy","0","uniform","1","0","0","undefined","undefined","1","f","2","1","NA","0","1","0","0","0","0","0","0","0","0","17","17","17","0","0","0","NA","0","0","2","0","0","0","2","17","17","17","17","17","Wed Oct  4 21:13:35 2017","Forced-choice identification task with a practice and an experimental phase","yes","NAP_GER_AA_4blocks_noglides.osexp","/Users/aviadalbert/Documents/Academisch/UoC/Dissertation/Experiment/OpenSesame/NAP-FC/NAP_GER_AA_4blocks_noglides","yes","no","sans","no","20","no","black","no","Weiter","yes","768","legacy","7","9","0","/Users/aviadalbert/Documents/Academisch/UoC/Dissertation/Experiment/OpenSesame/NAP-FC/NAP_GER_AA_4blocks_noglides/subject-9.csv","xpyriment","Jazzy James","3.1.9","yes","yes","59a800d99ad5a1025d81bb03","59a801616c613b0251691de0","no","no","0","f","j","space","NA","space","space","f","1084","12644","14615","NA","41912","11052","1084","2","legacy","1024","1","44100","-16","experiment","fnal","4","0","0","0","1","Englisch, Italienisch","9","","odd","1949303","1934163","NA","NA","1961948","1949298","NA","1755266","1948834","1755266","1755266","1831202","1873119","1986131","1984625","1987216","1900123","1884462","1934163","NA","1772781","1816555","1932498","1884236","1949302","1884466","NA","1986130","1986131","NA","NA","1984621","NAP perception","6","11058","8","yes","1024"
"77.7777777778","yes","77.7777777778","1472","1472","white","no","xpyriment","Ich habe die obigen Informationen gelesen und verstanden.","legacy","legacy","0","uniform","1","0","0","undefined","undefined","1","f","2","1","NA","0","1","0","0","0","0","0","0","0","0","18","18","18","0","0","0","NA","0","0","2","0","0","0","2","18","18","18","18","18","Wed Oct  4 21:13:35 2017","Forced-choice identification task with a practice and an experimental phase","yes","NAP_GER_AA_4blocks_noglides.osexp","/Users/aviadalbert/Documents/Academisch/UoC/Dissertation/Experiment/OpenSesame/NAP-FC/NAP_GER_AA_4blocks_noglides","yes","no","sans","no","20","no","black","no","Weiter","yes","768","legacy","8","9","0","/Users/aviadalbert/Documents/Academisch/UoC/Dissertation/Experiment/OpenSesame/NAP-FC/NAP_GER_AA_4blocks_noglides/subject-9.csv","xpyriment","Jazzy James","3.1.9","yes","yes","59a800d99ad5a1025d81bb03","59a801616c613b0251691de0","no","no","0","f","j","space","NA","space","space","f","2190","12644","14615","NA","41912","11052","2190","2","legacy","1024","1","44100","-16","experiment","ﾊデal","4","0","0","0","1","Englisch, Italienisch","9","","odd","1949303","1934163","NA","NA","1961948","1949298","NA","1755266","1948834","1755266","1755266","1831202","1873119","1989005","1987502","1991196","1900123","1884462","1934163","NA","1772781","1816555","1932498","1884236","1949302","1884466","NA","1989005","1989005","NA","NA","1987498","NAP perception","7","13248","9","yes","1024"
"80","yes","80","1498.3","1498.3","white","no","xpyriment","Ich habe die obigen Informationen gelesen und verstanden.","legacy","legacy","0","uniform","1","0","0","undefined","undefined","1","f","2","1","NA","0","1","0","0","0","0","0","0","0","0","19","19","19","0","0","0","NA","0","0","2","0","0","0","2","19","19","19","19","19","Wed Oct  4 21:13:35 2017","Forced-choice identification task with a practice and an experimental phase","yes","NAP_GER_AA_4blocks_noglides.osexp","/Users/aviadalbert/Documents/Academisch/UoC/Dissertation/Experiment/OpenSesame/NAP-FC/NAP_GER_AA_4blocks_noglides","yes","no","sans","no","20","no","black","no","Weiter","yes","768","legacy","9","9","0","/Users/aviadalbert/Documents/Academisch/UoC/Dissertation/Experiment/OpenSesame/NAP-FC/NAP_GER_AA_4blocks_noglides/subject-9.csv","xpyriment","Jazzy James","3.1.9","yes","yes","59a800d99ad5a1025d81bb03","59a801616c613b0251691de0","no","no","0","f","j","space","NA","space","space","f","1735","12644","14615","NA","41912","11052","1735","2","legacy","1024","1","44100","-16","experiment","zmal","4","0","0","0","1","Englisch, Italienisch","9","","odd","1949303","1934163","NA","NA","1961948","1949298","NA","1755266","1948834","1755266","1755266","1831202","1873119","1992975","1991471","1994711","1900123","1884462","1934163","NA","1772781","1816555","1932498","1884236","1949302","1884466","NA","1992975","1992975","NA","NA","1991467","NAP perception","8","14983","10","yes","1024"
"81.8181818182","yes","81.8181818182","1474.09090909","1474.09090909","white","no","xpyriment","Ich habe die obigen Informationen gelesen und verstanden.","legacy","legacy","0","uniform","1","0","0","undefined","undefined","1","f","2","1","NA","0","1","0","0","0","0","0","0","0","0","20","20","20","0","0","0","NA","0","0","2","0","0","0","2","20","20","20","20","20","Wed Oct  4 21:13:35 2017","Forced-choice identification task with a practice and an experimental phase","yes","NAP_GER_AA_4blocks_noglides.osexp","/Users/aviadalbert/Documents/Academisch/UoC/Dissertation/Experiment/OpenSesame/NAP-FC/NAP_GER_AA_4blocks_noglides","yes","no","sans","no","20","no","black","no","Weiter","yes","768","legacy","10","9","0","/Users/aviadalbert/Documents/Academisch/UoC/Dissertation/Experiment/OpenSesame/NAP-FC/NAP_GER_AA_4blocks_noglides/subject-9.csv","xpyriment","Jazzy James","3.1.9","yes","yes","59a800d99ad5a1025d81bb03","59a801616c613b0251691de0","no","no","0","f","j","space","NA","space","space","f","1232","12644","14615","NA","41912","11052","1232","2","legacy","1024","1","44100","-16","experiment","zmal","4","0","0","0","1","Englisch, Italienisch","9","","odd","1949303","1934163","NA","NA","1961948","1949298","NA","1755266","1948834","1755266","1755266","1831202","1873119","1996484","1994981","1997717","1900123","1884462","1934163","NA","1772781","1816555","1932498","1884236","1949302","1884466","NA","1996484","1996484","NA","NA","1994977","NAP perception","9","16215","11","yes","1024"
"83.3333333333","yes","83.3333333333","1538.5","1538.5","white","no","xpyriment","Ich habe die obigen Informationen gelesen und verstanden.","legacy","legacy","0","uniform","1","0","0","undefined","undefined","1","f","2","1","NA","0","1","0","0","0","0","0","0","0","0","21","21","21","0","0","0","NA","0","0","2","0","0","0","2","21","21","21","21","21","Wed Oct  4 21:13:35 2017","Forced-choice identification task with a practice and an experimental phase","yes","NAP_GER_AA_4blocks_noglides.osexp","/Users/aviadalbert/Documents/Academisch/UoC/Dissertation/Experiment/OpenSesame/NAP-FC/NAP_GER_AA_4blocks_noglides","yes","no","sans","no","20","no","black","no","Weiter","yes","768","legacy","11","9","0","/Users/aviadalbert/Documents/Academisch/UoC/Dissertation/Experiment/OpenSesame/NAP-FC/NAP_GER_AA_4blocks_noglides/subject-9.csv","xpyriment","Jazzy James","3.1.9","yes","yes","59a800d99ad5a1025d81bb03","59a801616c613b0251691de0","no","no","0","f","j","space","NA","space","space","f","2247","12644","14615","NA","41912","11052","2247","2","legacy","1024","1","44100","-16","experiment","vnal","4","0","0","0","1","Englisch, Italienisch","9","","odd","1949303","1934163","NA","NA","1961948","1949298","NA","1755266","1948834","1755266","1755266","1831202","1873119","1999516","1998009","2001764","1900123","1884462","1934163","NA","1772781","1816555","1932498","1884236","1949302","1884466","NA","1999516","1999516","NA","NA","1998005","NAP perception","10","18462","12","yes","1024"
"84.6153846154","yes","84.6153846154","1477.84615385","1477.84615385","white","no","xpyriment","Ich habe die obigen Informationen gelesen und verstanden.","legacy","legacy","0","uniform","1","0","0","undefined","undefined","1","j","2","1","NA","0","1","0","0","0","0","0","0","0","0","22","22","22","0","0","0","NA","0","0","2","0","0","0","2","22","22","22","22","22","Wed Oct  4 21:13:35 2017","Forced-choice identification task with a practice and an experimental phase","yes","NAP_GER_AA_4blocks_noglides.osexp","/Users/aviadalbert/Documents/Academisch/UoC/Dissertation/Experiment/OpenSesame/NAP-FC/NAP_GER_AA_4blocks_noglides","yes","no","sans","no","20","no","black","no","Weiter","yes","768","legacy","12","9","0","/Users/aviadalbert/Documents/Academisch/UoC/Dissertation/Experiment/OpenSesame/NAP-FC/NAP_GER_AA_4blocks_noglides/subject-9.csv","xpyriment","Jazzy James","3.1.9","yes","yes","59a800d99ad5a1025d81bb03","59a801616c613b0251691de0","no","no","0","j","j","space","NA","space","space","j","750","12644","14615","NA","41912","11052","750","2","legacy","1024","1","44100","-16","experiment","lepal","4","0","0","0","1","Englisch, Italienisch","9","","odd","1949303","1934163","NA","NA","1961948","1949298","NA","1755266","1948834","1755266","1755266","1831202","1873119","2003538","2002032","2004290","1900123","1884462","1934163","NA","1772781","1816555","1932498","1884236","1949302","1884466","NA","2003538","2003538","NA","NA","2002028","NAP perception","11","19212","13","yes","1024"
"78.5714285714","yes","78.5714285714","1432.64285714","1432.64285714","white","no","xpyriment","Ich habe die obigen Informationen gelesen und verstanden.","legacy","legacy","0","uniform","0","0","0","undefined","undefined","0","f","2","1","NA","0","1","0","0","0","0","0","0","0","0","23","23","23","0","0","0","NA","0","0","2","0","0","0","2","23","23","23","23","23","Wed Oct  4 21:13:35 2017","Forced-choice identification task with a practice and an experimental phase","yes","NAP_GER_AA_4blocks_noglides.osexp","/Users/aviadalbert/Documents/Academisch/UoC/Dissertation/Experiment/OpenSesame/NAP-FC/NAP_GER_AA_4blocks_noglides","yes","no","sans","no","20","no","black","no","Weiter","yes","768","legacy","13","9","0","/Users/aviadalbert/Documents/Academisch/UoC/Dissertation/Experiment/OpenSesame/NAP-FC/NAP_GER_AA_4blocks_noglides/subject-9.csv","xpyriment","Jazzy James","3.1.9","yes","yes","59a800d99ad5a1025d81bb03","59a801616c613b0251691de0","no","no","0","j","j","space","NA","space","space","j","845","12644","14615","NA","41912","11052","845","2","legacy","1024","1","44100","-16","experiment","msal","4","0","0","0","1","Englisch, Italienisch","9","","odd","1949303","1934163","NA","NA","1961948","1949298","NA","1755266","1948834","1755266","1755266","1831202","1873119","2006081","2004576","2006927","1900123","1884462","1934163","NA","1772781","1816555","1932498","1884236","1949302","1884466","NA","2006080","2006080","NA","NA","2004572","NAP perception","11","20057","14","yes","1024"
"80","yes","80","1413.33333333","1413.33333333","white","no","xpyriment","Ich habe die obigen Informationen gelesen und verstanden.","legacy","legacy","0","uniform","1","0","0","undefined","undefined","1","f","2","1","NA","0","1","0","0","0","0","0","0","0","0","24","24","24","0","0","0","NA","0","0","2","0","0","0","2","24","24","24","24","24","Wed Oct  4 21:13:35 2017","Forced-choice identification task with a practice and an experimental phase","yes","NAP_GER_AA_4blocks_noglides.osexp","/Users/aviadalbert/Documents/Academisch/UoC/Dissertation/Experiment/OpenSesame/NAP-FC/NAP_GER_AA_4blocks_noglides","yes","no","sans","no","20","no","black","no","Weiter","yes","768","legacy","14","9","0","/Users/aviadalbert/Documents/Academisch/UoC/Dissertation/Experiment/OpenSesame/NAP-FC/NAP_GER_AA_4blocks_noglides/subject-9.csv","xpyriment","Jazzy James","3.1.9","yes","yes","59a800d99ad5a1025d81bb03","59a801616c613b0251691de0","no","no","0","f","j","space","NA","space","space","f","1143","12644","14615","NA","41912","11052","1143","2","legacy","1024","1","44100","-16","experiment","spal","4","0","0","0","1","Englisch, Italienisch","9","","odd","1949303","1934163","NA","NA","1961948","1949298","NA","1755266","1948834","1755266","1755266","1831202","1873119","2008716","2007213","2009860","1900123","1884462","1934163","NA","1772781","1816555","1932498","1884236","1949302","1884466","NA","2008716","2008716","NA","NA","2007209","NAP perception","12","21200","15","yes","1024"
"81.25","yes","81.25","1382.1875","1382.1875","white","no","xpyriment","Ich habe die obigen Informationen gelesen und verstanden.","legacy","legacy","0","uniform","1","0","0","undefined","undefined","1","j","2","1","NA","0","1","0","0","0","0","0","0","0","0","25","25","25","0","0","0","NA","0","0","2","0","0","0","2","25","25","25","25","25","Wed Oct  4 21:13:35 2017","Forced-choice identification task with a practice and an experimental phase","yes","NAP_GER_AA_4blocks_noglides.osexp","/Users/aviadalbert/Documents/Academisch/UoC/Dissertation/Experiment/OpenSesame/NAP-FC/NAP_GER_AA_4blocks_noglides","yes","no","sans","no","20","no","black","no","Weiter","yes","768","legacy","15","9","0","/Users/aviadalbert/Documents/Academisch/UoC/Dissertation/Experiment/OpenSesame/NAP-FC/NAP_GER_AA_4blocks_noglides/subject-9.csv","xpyriment","Jazzy James","3.1.9","yes","yes","59a800d99ad5a1025d81bb03","59a801616c613b0251691de0","no","no","0","j","j","space","NA","space","space","j","915","12644","14615","NA","41912","11052","915","2","legacy","1024","1","44100","-16","experiment","vezal","4","0","0","0","1","Englisch, Italienisch","9","","odd","1949303","1934163","NA","NA","1961948","1949298","NA","1755266","1948834","1755266","1755266","1831202","1873119","2011643","2010136","2012559","1900123","1884462","1934163","NA","1772781","1816555","1932498","1884236","1949302","1884466","NA","2011643","2011643","NA","NA","2010132","NAP perception","13","22115","16","yes","1024"
"82.3529411765","yes","82.3529411765","1357","1357","white","no","xpyriment","Ich habe die obigen Informationen gelesen und verstanden.","legacy","legacy","0","uniform","1","0","0","undefined","undefined","1","j","2","1","NA","0","1","0","0","0","0","0","0","0","0","26","26","26","0","0","0","NA","0","0","2","0","0","0","2","26","26","26","26","26","Wed Oct  4 21:13:35 2017","Forced-choice identification task with a practice and an experimental phase","yes","NAP_GER_AA_4blocks_noglides.osexp","/Users/aviadalbert/Documents/Academisch/UoC/Dissertation/Experiment/OpenSesame/NAP-FC/NAP_GER_AA_4blocks_noglides","yes","no","sans","no","20","no","black","no","Weiter","yes","768","legacy","16","9","0","/Users/aviadalbert/Documents/Academisch/UoC/Dissertation/Experiment/OpenSesame/NAP-FC/NAP_GER_AA_4blocks_noglides/subject-9.csv","xpyriment","Jazzy James","3.1.9","yes","yes","59a800d99ad5a1025d81bb03","59a801616c613b0251691de0","no","no","0","j","j","space","NA","space","space","j","954","12644","14615","NA","41912","11052","954","2","legacy","1024","1","44100","-16","experiment","ﾊテmal","4","0","0","0","1","Englisch, Italienisch","9","","odd","1949303","1934163","NA","NA","1961948","1949298","NA","1755266","1948834","1755266","1755266","1831202","1873119","2014348","2012845","2015303","1900123","1884462","1934163","NA","1772781","1816555","1932498","1884236","1949302","1884466","NA","2014348","2014348","NA","NA","2012841","NAP perception","14","23069","17","yes","1024"
"83.3333333333","yes","83.3333333333","1360.05555556","1360.05555556","white","no","xpyriment","Ich habe die obigen Informationen gelesen und verstanden.","legacy","legacy","0","uniform","1","0","0","undefined","undefined","1","j","2","1","NA","0","1","0","0","0","0","0","0","0","0","27","27","27","0","0","0","NA","0","0","2","0","0","0","2","27","27","27","27","27","Wed Oct  4 21:13:35 2017","Forced-choice identification task with a practice and an experimental phase","yes","NAP_GER_AA_4blocks_noglides.osexp","/Users/aviadalbert/Documents/Academisch/UoC/Dissertation/Experiment/OpenSesame/NAP-FC/NAP_GER_AA_4blocks_noglides","yes","no","sans","no","20","no","black","no","Weiter","yes","768","legacy","17","9","0","/Users/aviadalbert/Documents/Academisch/UoC/Dissertation/Experiment/OpenSesame/NAP-FC/NAP_GER_AA_4blocks_noglides/subject-9.csv","xpyriment","Jazzy James","3.1.9","yes","yes","59a800d99ad5a1025d81bb03","59a801616c613b0251691de0","no","no","0","j","j","space","NA","space","space","j","1412","12644","14615","NA","41912","11052","1412","2","legacy","1024","1","44100","-16","experiment","eﾊデal","4","0","0","0","1","Englisch, Italienisch","9","","odd","1949303","1934163","NA","NA","1961948","1949298","NA","1755266","1948834","1755266","1755266","1831202","1873119","2017078","2015573","2018491","1900123","1884462","1934163","NA","1772781","1816555","1932498","1884236","1949302","1884466","NA","2017078","2017078","NA","NA","2015569","NAP perception","15","24481","18","yes","1024"
"84.2105263158","yes","84.2105263158","1351.84210526","1351.84210526","white","no","xpyriment","Ich habe die obigen Informationen gelesen und verstanden.","legacy","legacy","0","uniform","1","0","0","undefined","undefined","1","j","2","1","NA","0","1","0","0","0","0","0","0","0","0","28","28","28","0","0","0","NA","0","0","2","0","0","0","2","28","28","28","28","28","Wed Oct  4 21:13:35 2017","Forced-choice identification task with a practice and an experimental phase","yes","NAP_GER_AA_4blocks_noglides.osexp","/Users/aviadalbert/Documents/Academisch/UoC/Dissertation/Experiment/OpenSesame/NAP-FC/NAP_GER_AA_4blocks_noglides","yes","no","sans","no","20","no","black","no","Weiter","yes","768","legacy","18","9","0","/Users/aviadalbert/Documents/Academisch/UoC/Dissertation/Experiment/OpenSesame/NAP-FC/NAP_GER_AA_4blocks_noglides/subject-9.csv","xpyriment","Jazzy James","3.1.9","yes","yes","59a800d99ad5a1025d81bb03","59a801616c613b0251691de0","no","no","0","j","j","space","NA","space","space","j","1204","12644","14615","NA","41912","11052","1204","2","legacy","1024","1","44100","-16","experiment","mezal","4","0","0","0","1","Englisch, Italienisch","9","","odd","1949303","1934163","NA","NA","1961948","1949298","NA","1755266","1948834","1755266","1755266","1831202","1873119","2020262","2018758","2021468","1900123","1884462","1934163","NA","1772781","1816555","1932498","1884236","1949302","1884466","NA","2020262","2020262","NA","NA","2018754","NAP perception","16","25685","19","yes","1024"
"85","yes","85","1336.25","1336.25","white","no","xpyriment","Ich habe die obigen Informationen gelesen und verstanden.","legacy","legacy","0","uniform","1","0","0","undefined","undefined","1","f","2","1","NA","0","1","0","0","0","0","0","0","0","0","29","29","29","0","0","0","NA","0","0","2","0","0","0","2","29","29","29","29","29","Wed Oct  4 21:13:35 2017","Forced-choice identification task with a practice and an experimental phase","yes","NAP_GER_AA_4blocks_noglides.osexp","/Users/aviadalbert/Documents/Academisch/UoC/Dissertation/Experiment/OpenSesame/NAP-FC/NAP_GER_AA_4blocks_noglides","yes","no","sans","no","20","no","black","no","Weiter","yes","768","legacy","19","9","0","/Users/aviadalbert/Documents/Academisch/UoC/Dissertation/Experiment/OpenSesame/NAP-FC/NAP_GER_AA_4blocks_noglides/subject-9.csv","xpyriment","Jazzy James","3.1.9","yes","yes","59a800d99ad5a1025d81bb03","59a801616c613b0251691de0","no","no","0","f","j","space","NA","space","space","f","1040","12644","14615","NA","41912","11052","1040","2","legacy","1024","1","44100","-16","experiment","fsal","4","0","0","0","1","Englisch, Italienisch","9","","odd","1949303","1934163","NA","NA","1961948","1949298","NA","1755266","1948834","1755266","1755266","1831202","1873119","2023256","2021752","2024298","1900123","1884462","1934163","NA","1772781","1816555","1932498","1884236","1949302","1884466","NA","2023255","2023256","NA","NA","2021748","NAP perception","17","26725","20","yes","1024"
"85.7142857143","yes","85.7142857143","1378.14285714","1378.14285714","white","no","xpyriment","Ich habe die obigen Informationen gelesen und verstanden.","legacy","legacy","0","uniform","1","0","0","undefined","undefined","1","f","2","1","NA","0","1","0","0","0","0","0","0","0","0","30","30","30","0","0","0","NA","0","0","2","0","0","0","2","30","30","30","30","30","Wed Oct  4 21:13:35 2017","Forced-choice identification task with a practice and an experimental phase","yes","NAP_GER_AA_4blocks_noglides.osexp","/Users/aviadalbert/Documents/Academisch/UoC/Dissertation/Experiment/OpenSesame/NAP-FC/NAP_GER_AA_4blocks_noglides","yes","no","sans","no","20","no","black","no","Weiter","yes","768","legacy","20","9","0","/Users/aviadalbert/Documents/Academisch/UoC/Dissertation/Experiment/OpenSesame/NAP-FC/NAP_GER_AA_4blocks_noglides/subject-9.csv","xpyriment","Jazzy James","3.1.9","yes","yes","59a800d99ad5a1025d81bb03","59a801616c613b0251691de0","no","no","0","f","j","space","NA","space","space","f","2216","12644","14615","NA","41912","11052","2216","2","legacy","1024","1","44100","-16","experiment","lfal","4","0","0","0","1","Englisch, Italienisch","9","","odd","1949303","1934163","NA","NA","1961948","1949298","NA","1755266","1948834","1755266","1755266","1831202","1873119","2026085","2024582","2028303","1900123","1884462","1934163","NA","1772781","1816555","1932498","1884236","1949302","1884466","NA","2026085","2026085","NA","NA","2024578","NAP perception","18","28941","21","yes","1024"
"81.8181818182","yes","81.8181818182","1354.81818182","1354.81818182","white","no","xpyriment","Ich habe die obigen Informationen gelesen und verstanden.","legacy","legacy","0","uniform","0","0","0","undefined","undefined","0","f","2","1","NA","0","1","0","0","0","0","0","0","0","0","31","31","31","0","0","0","NA","0","0","2","0","0","0","2","31","31","31","31","31","Wed Oct  4 21:13:35 2017","Forced-choice identification task with a practice and an experimental phase","yes","NAP_GER_AA_4blocks_noglides.osexp","/Users/aviadalbert/Documents/Academisch/UoC/Dissertation/Experiment/OpenSesame/NAP-FC/NAP_GER_AA_4blocks_noglides","yes","no","sans","no","20","no","black","no","Weiter","yes","768","legacy","21","9","0","/Users/aviadalbert/Documents/Academisch/UoC/Dissertation/Experiment/OpenSesame/NAP-FC/NAP_GER_AA_4blocks_noglides/subject-9.csv","xpyriment","Jazzy James","3.1.9","yes","yes","59a800d99ad5a1025d81bb03","59a801616c613b0251691de0","no","no","0","j","j","space","NA","space","space","j","865","12644","14615","NA","41912","11052","865","2","legacy","1024","1","44100","-16","experiment","lpal","4","0","0","0","1","Englisch, Italienisch","9","","odd","1949303","1934163","NA","NA","1961948","1949298","NA","1755266","1948834","1755266","1755266","1831202","1873119","2030090","2028584","2030956","1900123","1884462","1934163","NA","1772781","1816555","1932498","1884236","1949302","1884466","NA","2030090","2030090","NA","NA","2028580","NAP perception","18","29806","22","yes","1024"
"78.2608695652","yes","78.2608695652","1340.52173913","1340.52173913","white","no","xpyriment","Ich habe die obigen Informationen gelesen und verstanden.","legacy","legacy","0","uniform","0","0","0","undefined","undefined","0","f","2","1","NA","0","1","0","0","0","0","0","0","0","0","32","32","32","0","0","0","NA","0","0","2","0","0","0","2","32","32","32","32","32","Wed Oct  4 21:13:35 2017","Forced-choice identification task with a practice and an experimental phase","yes","NAP_GER_AA_4blocks_noglides.osexp","/Users/aviadalbert/Documents/Academisch/UoC/Dissertation/Experiment/OpenSesame/NAP-FC/NAP_GER_AA_4blocks_noglides","yes","no","sans","no","20","no","black","no","Weiter","yes","768","legacy","22","9","0","/Users/aviadalbert/Documents/Academisch/UoC/Dissertation/Experiment/OpenSesame/NAP-FC/NAP_GER_AA_4blocks_noglides/subject-9.csv","xpyriment","Jazzy James","3.1.9","yes","yes","59a800d99ad5a1025d81bb03","59a801616c613b0251691de0","no","no","0","j","j","space","NA","space","space","j","1026","12644","14615","NA","41912","11052","1026","2","legacy","1024","1","44100","-16","experiment","nval","4","0","0","0","1","Englisch, Italienisch","9","","odd","1949303","1934163","NA","NA","1961948","1949298","NA","1755266","1948834","1755266","1755266","1831202","1873119","2032728","2031225","2033756","1900123","1884462","1934163","NA","1772781","1816555","1932498","1884236","1949302","1884466","NA","2032728","2032728","NA","NA","2031221","NAP perception","18","30832","23","yes","1024"
"79.1666666667","yes","79.1666666667","1376.08333333","1376.08333333","white","no","xpyriment","Ich habe die obigen Informationen gelesen und verstanden.","legacy","legacy","0","uniform","1","0","0","undefined","undefined","1","j","2","1","NA","0","1","0","0","0","0","0","0","0","0","33","33","33","0","0","0","NA","0","0","2","0","0","0","2","33","33","33","33","33","Wed Oct  4 21:13:35 2017","Forced-choice identification task with a practice and an experimental phase","yes","NAP_GER_AA_4blocks_noglides.osexp","/Users/aviadalbert/Documents/Academisch/UoC/Dissertation/Experiment/OpenSesame/NAP-FC/NAP_GER_AA_4blocks_noglides","yes","no","sans","no","20","no","black","no","Weiter","yes","768","legacy","23","9","0","/Users/aviadalbert/Documents/Academisch/UoC/Dissertation/Experiment/OpenSesame/NAP-FC/NAP_GER_AA_4blocks_noglides/subject-9.csv","xpyriment","Jazzy James","3.1.9","yes","yes","59a800d99ad5a1025d81bb03","59a801616c613b0251691de0","no","no","0","j","j","space","NA","space","space","j","2194","12644","14615","NA","41912","11052","2194","2","legacy","1024","1","44100","-16","experiment","ezval","4","0","0","0","1","Englisch, Italienisch","9","","odd","1949303","1934163","NA","NA","1961948","1949298","NA","1755266","1948834","1755266","1755266","1831202","1873119","2035537","2034031","2037732","1900123","1884462","1934163","NA","1772781","1816555","1932498","1884236","1949302","1884466","NA","2035537","2035537","NA","NA","2034027","NAP perception","19","33026","24","yes","1024"
"80","yes","80","1383.72","1383.72","white","no","xpyriment","Ich habe die obigen Informationen gelesen und verstanden.","legacy","legacy","0","uniform","1","0","0","undefined","undefined","1","j","2","1","NA","0","1","0","0","0","0","0","0","0","0","34","34","34","0","0","0","NA","0","0","2","0","0","0","2","34","34","34","34","34","Wed Oct  4 21:13:35 2017","Forced-choice identification task with a practice and an experimental phase","yes","NAP_GER_AA_4blocks_noglides.osexp","/Users/aviadalbert/Documents/Academisch/UoC/Dissertation/Experiment/OpenSesame/NAP-FC/NAP_GER_AA_4blocks_noglides","yes","no","sans","no","20","no","black","no","Weiter","yes","768","legacy","24","9","0","/Users/aviadalbert/Documents/Academisch/UoC/Dissertation/Experiment/OpenSesame/NAP-FC/NAP_GER_AA_4blocks_noglides/subject-9.csv","xpyriment","Jazzy James","3.1.9","yes","yes","59a800d99ad5a1025d81bb03","59a801616c613b0251691de0","no","no","0","j","j","space","NA","space","space","j","1567","12644","14615","NA","41912","11052","1567","2","legacy","1024","1","44100","-16","experiment","zemal","4","0","0","0","1","Englisch, Italienisch","9","","odd","1949303","1934163","NA","NA","1961948","1949298","NA","1755266","1948834","1755266","1755266","1831202","1873119","2039533","2038025","2041101","1900123","1884462","1934163","NA","1772781","1816555","1932498","1884236","1949302","1884466","NA","2039533","2039533","NA","NA","2038021","NAP perception","20","34593","25","yes","1024"
"80.7692307692","yes","80.7692307692","1369.07692308","1369.07692308","white","no","xpyriment","Ich habe die obigen Informationen gelesen und verstanden.","legacy","legacy","0","uniform","1","0","0","undefined","undefined","1","f","2","1","NA","0","1","0","0","0","0","0","0","0","0","35","35","35","0","0","0","NA","0","0","2","0","0","0","2","35","35","35","35","35","Wed Oct  4 21:13:35 2017","Forced-choice identification task with a practice and an experimental phase","yes","NAP_GER_AA_4blocks_noglides.osexp","/Users/aviadalbert/Documents/Academisch/UoC/Dissertation/Experiment/OpenSesame/NAP-FC/NAP_GER_AA_4blocks_noglides","yes","no","sans","no","20","no","black","no","Weiter","yes","768","legacy","25","9","0","/Users/aviadalbert/Documents/Academisch/UoC/Dissertation/Experiment/OpenSesame/NAP-FC/NAP_GER_AA_4blocks_noglides/subject-9.csv","xpyriment","Jazzy James","3.1.9","yes","yes","59a800d99ad5a1025d81bb03","59a801616c613b0251691de0","no","no","0","f","j","space","NA","space","space","f","1003","12644","14615","NA","41912","11052","1003","2","legacy","1024","1","44100","-16","experiment","smal","4","0","0","0","1","Englisch, Italienisch","9","","odd","1949303","1934163","NA","NA","1961948","1949298","NA","1755266","1948834","1755266","1755266","1831202","1873119","2042890","2041386","2043895","1900123","1884462","1934163","NA","1772781","1816555","1932498","1884236","1949302","1884466","NA","2042890","2042890","NA","NA","2041382","NAP perception","21","35596","26","yes","1024"
"77.7777777778","yes","77.7777777778","1353.48148148","1353.48148148","white","no","xpyriment","Ich habe die obigen Informationen gelesen und verstanden.","legacy","legacy","0","uniform","0","0","0","undefined","undefined","0","f","2","1","NA","0","1","0","0","0","0","0","0","0","0","36","36","36","0","0","0","NA","0","0","2","0","0","0","2","36","36","36","36","36","Wed Oct  4 21:13:35 2017","Forced-choice identification task with a practice and an experimental phase","yes","NAP_GER_AA_4blocks_noglides.osexp","/Users/aviadalbert/Documents/Academisch/UoC/Dissertation/Experiment/OpenSesame/NAP-FC/NAP_GER_AA_4blocks_noglides","yes","no","sans","no","20","no","black","no","Weiter","yes","768","legacy","26","9","0","/Users/aviadalbert/Documents/Academisch/UoC/Dissertation/Experiment/OpenSesame/NAP-FC/NAP_GER_AA_4blocks_noglides/subject-9.csv","xpyriment","Jazzy James","3.1.9","yes","yes","59a800d99ad5a1025d81bb03","59a801616c613b0251691de0","no","no","0","j","j","space","NA","space","space","j","948","12644","14615","NA","41912","11052","948","2","legacy","1024","1","44100","-16","experiment","mtal","4","0","0","0","1","Englisch, Italienisch","9","","odd","1949303","1934163","NA","NA","1961948","1949298","NA","1755266","1948834","1755266","1755266","1831202","1873119","2045690","2044185","2046639","1900123","1884462","1934163","NA","1772781","1816555","1932498","1884236","1949302","1884466","NA","2045690","2045690","NA","NA","2044181","NAP perception","21","36544","27","yes","1024"
"75","yes","75","1384.92857143","1384.92857143","white","no","xpyriment","Ich habe die obigen Informationen gelesen und verstanden.","legacy","legacy","0","uniform","0","0","0","undefined","undefined","0","f","2","1","NA","0","1","0","0","0","0","0","0","0","0","37","37","37","0","0","0","NA","0","0","2","0","0","0","2","37","37","37","37","37","Wed Oct  4 21:13:35 2017","Forced-choice identification task with a practice and an experimental phase","yes","NAP_GER_AA_4blocks_noglides.osexp","/Users/aviadalbert/Documents/Academisch/UoC/Dissertation/Experiment/OpenSesame/NAP-FC/NAP_GER_AA_4blocks_noglides","yes","no","sans","no","20","no","black","no","Weiter","yes","768","legacy","27","9","0","/Users/aviadalbert/Documents/Academisch/UoC/Dissertation/Experiment/OpenSesame/NAP-FC/NAP_GER_AA_4blocks_noglides/subject-9.csv","xpyriment","Jazzy James","3.1.9","yes","yes","59a800d99ad5a1025d81bb03","59a801616c613b0251691de0","no","no","0","j","j","space","NA","space","space","j","2234","12644","14615","NA","41912","11052","2234","2","legacy","1024","1","44100","-16","experiment","lval","4","0","0","0","1","Englisch, Italienisch","9","","odd","1949303","1934163","NA","NA","1961948","1949298","NA","1755266","1948834","1755266","1755266","1831202","1873119","2048416","2046913","2050652","1900123","1884462","1934163","NA","1772781","1816555","1932498","1884236","1949302","1884466","NA","2048416","2048416","NA","NA","2046909","NAP perception","21","38778","28","yes","1024"
"75.8620689655","yes","75.8620689655","1405.13793103","1405.13793103","white","no","xpyriment","Ich habe die obigen Informationen gelesen und verstanden.","legacy","legacy","0","uniform","1","0","0","undefined","undefined","1","f","2","1","NA","0","1","0","0","0","0","0","0","0","0","38","38","38","0","0","0","NA","0","0","2","0","0","0","2","38","38","38","38","38","Wed Oct  4 21:13:35 2017","Forced-choice identification task with a practice and an experimental phase","yes","NAP_GER_AA_4blocks_noglides.osexp","/Users/aviadalbert/Documents/Academisch/UoC/Dissertation/Experiment/OpenSesame/NAP-FC/NAP_GER_AA_4blocks_noglides","yes","no","sans","no","20","no","black","no","Weiter","yes","768","legacy","28","9","0","/Users/aviadalbert/Documents/Academisch/UoC/Dissertation/Experiment/OpenSesame/NAP-FC/NAP_GER_AA_4blocks_noglides/subject-9.csv","xpyriment","Jazzy James","3.1.9","yes","yes","59a800d99ad5a1025d81bb03","59a801616c613b0251691de0","no","no","0","f","j","space","NA","space","space","f","1971","12644","14615","NA","41912","11052","1971","2","legacy","1024","1","44100","-16","experiment","fsal","4","0","0","0","1","Englisch, Italienisch","9","","odd","1949303","1934163","NA","NA","1961948","1949298","NA","1755266","1948834","1755266","1755266","1831202","1873119","2052437","2050933","2054410","1900123","1884462","1934163","NA","1772781","1816555","1932498","1884236","1949302","1884466","NA","2052437","2052437","NA","NA","2050929","NAP perception","22","40749","29","yes","1024"
"76.6666666667","yes","76.6666666667","1386.03333333","1386.03333333","white","no","xpyriment","Ich habe die obigen Informationen gelesen und verstanden.","legacy","legacy","0","uniform","1","0","0","undefined","undefined","1","j","2","1","NA","0","1","0","0","0","0","0","0","0","0","39","39","39","0","0","0","NA","0","0","2","0","0","0","2","39","39","39","39","39","Wed Oct  4 21:13:35 2017","Forced-choice identification task with a practice and an experimental phase","yes","NAP_GER_AA_4blocks_noglides.osexp","/Users/aviadalbert/Documents/Academisch/UoC/Dissertation/Experiment/OpenSesame/NAP-FC/NAP_GER_AA_4blocks_noglides","yes","no","sans","no","20","no","black","no","Weiter","yes","768","legacy","29","9","0","/Users/aviadalbert/Documents/Academisch/UoC/Dissertation/Experiment/OpenSesame/NAP-FC/NAP_GER_AA_4blocks_noglides/subject-9.csv","xpyriment","Jazzy James","3.1.9","yes","yes","59a800d99ad5a1025d81bb03","59a801616c613b0251691de0","no","no","0","j","j","space","NA","space","space","j","832","12644","14615","NA","41912","11052","832","2","legacy","1024","1","44100","-16","experiment","enmal","4","0","0","0","1","Englisch, Italienisch","9","","odd","1949303","1934163","NA","NA","1961948","1949298","NA","1755266","1948834","1755266","1755266","1831202","1873119","2056184","2054680","2057017","1900123","1884462","1934163","NA","1772781","1816555","1932498","1884236","1949302","1884466","NA","2056183","2056184","NA","NA","2054676","NAP perception","23","41581","30","yes","1024"
"74.1935483871","yes","74.1935483871","1392.70967742","1392.70967742","white","no","xpyriment","Ich habe die obigen Informationen gelesen und verstanden.","legacy","legacy","0","uniform","0","0","0","undefined","undefined","0","f","2","1","NA","0","1","0","0","0","0","0","0","0","0","40","40","40","0","0","0","NA","0","0","2","0","0","0","2","40","40","40","40","40","Wed Oct  4 21:13:35 2017","Forced-choice identification task with a practice and an experimental phase","yes","NAP_GER_AA_4blocks_noglides.osexp","/Users/aviadalbert/Documents/Academisch/UoC/Dissertation/Experiment/OpenSesame/NAP-FC/NAP_GER_AA_4blocks_noglides","yes","no","sans","no","20","no","black","no","Weiter","yes","768","legacy","30","9","0","/Users/aviadalbert/Documents/Academisch/UoC/Dissertation/Experiment/OpenSesame/NAP-FC/NAP_GER_AA_4blocks_noglides/subject-9.csv","xpyriment","Jazzy James","3.1.9","yes","yes","59a800d99ad5a1025d81bb03","59a801616c613b0251691de0","no","no","0","j","j","space","NA","space","space","j","1593","12644","14615","NA","41912","11052","1593","2","legacy","1024","1","44100","-16","experiment","npal","4","0","0","0","1","Englisch, Italienisch","9","","odd","1949303","1934163","NA","NA","1961948","1949298","NA","1755266","1948834","1755266","1755266","1831202","1873119","2058798","2057295","2060392","1900123","1884462","1934163","NA","1772781","1816555","1932498","1884236","1949302","1884466","NA","2058798","2058798","NA","NA","2057291","NAP perception","23","43174","31","yes","1024"
"75","yes","75","1380.125","1380.125","white","no","xpyriment","Ich habe die obigen Informationen gelesen und verstanden.","legacy","legacy","0","uniform","1","0","0","undefined","undefined","1","f","2","1","NA","0","1","0","0","0","0","0","0","0","0","41","41","41","0","0","0","NA","0","0","2","0","0","0","2","41","41","41","41","41","Wed Oct  4 21:13:35 2017","Forced-choice identification task with a practice and an experimental phase","yes","NAP_GER_AA_4blocks_noglides.osexp","/Users/aviadalbert/Documents/Academisch/UoC/Dissertation/Experiment/OpenSesame/NAP-FC/NAP_GER_AA_4blocks_noglides","yes","no","sans","no","20","no","black","no","Weiter","yes","768","legacy","31","9","0","/Users/aviadalbert/Documents/Academisch/UoC/Dissertation/Experiment/OpenSesame/NAP-FC/NAP_GER_AA_4blocks_noglides/subject-9.csv","xpyriment","Jazzy James","3.1.9","yes","yes","59a800d99ad5a1025d81bb03","59a801616c613b0251691de0","no","no","0","f","j","space","NA","space","space","f","990","12644","14615","NA","41912","11052","990","2","legacy","1024","1","44100","-16","experiment","fnal","4","0","0","0","1","Englisch, Italienisch","9","","odd","1949303","1934163","NA","NA","1961948","1949298","NA","1755266","1948834","1755266","1755266","1831202","1873119","2062178","2060674","2063169","1900123","1884462","1934163","NA","1772781","1816555","1932498","1884236","1949302","1884466","NA","2062178","2062178","NA","NA","2060670","NAP perception","24","44164","32","yes","1024"
"75.7575757576","yes","75.7575757576","1411.6969697","1411.6969697","white","no","xpyriment","Ich habe die obigen Informationen gelesen und verstanden.","legacy","legacy","0","uniform","1","0","0","undefined","undefined","1","f","2","1","NA","0","1","0","0","0","0","0","0","0","0","42","42","42","0","0","0","NA","0","0","2","0","0","0","2","42","42","42","42","42","Wed Oct  4 21:13:35 2017","Forced-choice identification task with a practice and an experimental phase","yes","NAP_GER_AA_4blocks_noglides.osexp","/Users/aviadalbert/Documents/Academisch/UoC/Dissertation/Experiment/OpenSesame/NAP-FC/NAP_GER_AA_4blocks_noglides","yes","no","sans","no","20","no","black","no","Weiter","yes","768","legacy","32","9","0","/Users/aviadalbert/Documents/Academisch/UoC/Dissertation/Experiment/OpenSesame/NAP-FC/NAP_GER_AA_4blocks_noglides/subject-9.csv","xpyriment","Jazzy James","3.1.9","yes","yes","59a800d99ad5a1025d81bb03","59a801616c613b0251691de0","no","no","0","f","j","space","NA","space","space","f","2422","12644","14615","NA","41912","11052","2422","2","legacy","1024","1","44100","-16","experiment","vzal","4","0","0","0","1","Englisch, Italienisch","9","","odd","1949303","1934163","NA","NA","1961948","1949298","NA","1755266","1948834","1755266","1755266","1831202","1873119","2064948","2063445","2067371","1900123","1884462","1934163","NA","1772781","1816555","1932498","1884236","1949302","1884466","NA","2064948","2064948","NA","NA","2063441","NAP perception","25","46586","33","yes","1024"
"76.4705882353","yes","76.4705882353","1391.85294118","1391.85294118","white","no","xpyriment","Ich habe die obigen Informationen gelesen und verstanden.","legacy","legacy","0","uniform","1","0","0","undefined","undefined","1","j","2","1","NA","0","1","0","0","0","0","0","0","0","0","43","43","43","0","0","0","NA","0","0","2","0","0","0","2","43","43","43","43","43","Wed Oct  4 21:13:35 2017","Forced-choice identification task with a practice and an experimental phase","yes","NAP_GER_AA_4blocks_noglides.osexp","/Users/aviadalbert/Documents/Academisch/UoC/Dissertation/Experiment/OpenSesame/NAP-FC/NAP_GER_AA_4blocks_noglides","yes","no","sans","no","20","no","black","no","Weiter","yes","768","legacy","33","9","0","/Users/aviadalbert/Documents/Academisch/UoC/Dissertation/Experiment/OpenSesame/NAP-FC/NAP_GER_AA_4blocks_noglides/subject-9.csv","xpyriment","Jazzy James","3.1.9","yes","yes","59a800d99ad5a1025d81bb03","59a801616c613b0251691de0","no","no","0","j","j","space","NA","space","space","j","737","12644","14615","NA","41912","11052","737","2","legacy","1024","1","44100","-16","experiment","eﾊノal","4","0","0","0","1","Englisch, Italienisch","9","","odd","1949303","1934163","NA","NA","1961948","1949298","NA","1755266","1948834","1755266","1755266","1831202","1873119","2069160","2067655","2069899","1900123","1884462","1934163","NA","1772781","1816555","1932498","1884236","1949302","1884466","NA","2069160","2069160","NA","NA","2067651","NAP perception","26","47323","34","yes","1024"
"74.2857142857","yes","74.2857142857","1414.71428571","1414.71428571","white","no","xpyriment","Ich habe die obigen Informationen gelesen und verstanden.","legacy","legacy","0","uniform","0","0","0","undefined","undefined","0","f","2","1","NA","0","1","0","0","0","0","0","0","0","0","44","44","44","0","0","0","NA","0","0","2","0","0","0","2","44","44","44","44","44","Wed Oct  4 21:13:35 2017","Forced-choice identification task with a practice and an experimental phase","yes","NAP_GER_AA_4blocks_noglides.osexp","/Users/aviadalbert/Documents/Academisch/UoC/Dissertation/Experiment/OpenSesame/NAP-FC/NAP_GER_AA_4blocks_noglides","yes","no","sans","no","20","no","black","no","Weiter","yes","768","legacy","34","9","0","/Users/aviadalbert/Documents/Academisch/UoC/Dissertation/Experiment/OpenSesame/NAP-FC/NAP_GER_AA_4blocks_noglides/subject-9.csv","xpyriment","Jazzy James","3.1.9","yes","yes","59a800d99ad5a1025d81bb03","59a801616c613b0251691de0","no","no","0","j","j","space","NA","space","space","j","2192","12644","14615","NA","41912","11052","2192","2","legacy","1024","1","44100","-16","experiment","lmal","4","0","0","0","1","Englisch, Italienisch","9","","odd","1949303","1934163","NA","NA","1961948","1949298","NA","1755266","1948834","1755266","1755266","1831202","1873119","2071682","2070179","2073875","1900123","1884462","1934163","NA","1772781","1816555","1932498","1884236","1949302","1884466","NA","2071682","2071682","NA","NA","2070175","NAP perception","26","49515","35","yes","1024"
"75","yes","75","1437.58333333","1437.58333333","white","no","xpyriment","Ich habe die obigen Informationen gelesen und verstanden.","legacy","legacy","0","uniform","1","0","0","undefined","undefined","1","j","2","1","NA","0","1","0","0","0","0","0","0","0","0","45","45","45","0","0","0","NA","0","0","2","0","0","0","2","45","45","45","45","45","Wed Oct  4 21:13:35 2017","Forced-choice identification task with a practice and an experimental phase","yes","NAP_GER_AA_4blocks_noglides.osexp","/Users/aviadalbert/Documents/Academisch/UoC/Dissertation/Experiment/OpenSesame/NAP-FC/NAP_GER_AA_4blocks_noglides","yes","no","sans","no","20","no","black","no","Weiter","yes","768","legacy","35","9","0","/Users/aviadalbert/Documents/Academisch/UoC/Dissertation/Experiment/OpenSesame/NAP-FC/NAP_GER_AA_4blocks_noglides/subject-9.csv","xpyriment","Jazzy James","3.1.9","yes","yes","59a800d99ad5a1025d81bb03","59a801616c613b0251691de0","no","no","0","j","j","space","NA","space","space","j","2238","12644","14615","NA","41912","11052","2238","2","legacy","1024","1","44100","-16","experiment","fetal","4","0","0","0","1","Englisch, Italienisch","9","","odd","1949303","1934163","NA","NA","1961948","1949298","NA","1755266","1948834","1755266","1755266","1831202","1873119","2075653","2074150","2077893","1900123","1884462","1934163","NA","1772781","1816555","1932498","1884236","1949302","1884466","NA","2075653","2075653","NA","NA","2074146","NAP perception","27","51753","36","yes","1024"
"75.6756756757","yes","75.6756756757","1445.35135135","1445.35135135","white","no","xpyriment","Ich habe die obigen Informationen gelesen und verstanden.","legacy","legacy","0","uniform","1","0","0","undefined","undefined","1","f","2","1","NA","0","1","0","0","0","0","0","0","0","0","46","46","46","0","0","0","NA","0","0","2","0","0","0","2","46","46","46","46","46","Wed Oct  4 21:13:35 2017","Forced-choice identification task with a practice and an experimental phase","yes","NAP_GER_AA_4blocks_noglides.osexp","/Users/aviadalbert/Documents/Academisch/UoC/Dissertation/Experiment/OpenSesame/NAP-FC/NAP_GER_AA_4blocks_noglides","yes","no","sans","no","20","no","black","no","Weiter","yes","768","legacy","36","9","0","/Users/aviadalbert/Documents/Academisch/UoC/Dissertation/Experiment/OpenSesame/NAP-FC/NAP_GER_AA_4blocks_noglides/subject-9.csv","xpyriment","Jazzy James","3.1.9","yes","yes","59a800d99ad5a1025d81bb03","59a801616c613b0251691de0","no","no","0","f","j","space","NA","space","space","f","1725","12644","14615","NA","41912","11052","1725","2","legacy","1024","1","44100","-16","experiment","mlal","4","0","0","0","1","Englisch, Italienisch","9","","odd","1949303","1934163","NA","NA","1961948","1949298","NA","1755266","1948834","1755266","1755266","1831202","1873119","2079672","2078168","2081399","1900123","1884462","1934163","NA","1772781","1816555","1932498","1884236","1949302","1884466","NA","2079672","2079672","NA","NA","2078164","NAP perception","28","53478","37","yes","1024"
"76.3157894737","yes","76.3157894737","1440.36842105","1440.36842105","white","no","xpyriment","Ich habe die obigen Informationen gelesen und verstanden.","legacy","legacy","0","uniform","1","0","0","undefined","undefined","1","f","2","1","NA","0","1","0","0","0","0","0","0","0","0","47","47","47","0","0","0","NA","0","0","2","0","0","0","2","47","47","47","47","47","Wed Oct  4 21:13:35 2017","Forced-choice identification task with a practice and an experimental phase","yes","NAP_GER_AA_4blocks_noglides.osexp","/Users/aviadalbert/Documents/Academisch/UoC/Dissertation/Experiment/OpenSesame/NAP-FC/NAP_GER_AA_4blocks_noglides","yes","no","sans","no","20","no","black","no","Weiter","yes","768","legacy","37","9","0","/Users/aviadalbert/Documents/Academisch/UoC/Dissertation/Experiment/OpenSesame/NAP-FC/NAP_GER_AA_4blocks_noglides/subject-9.csv","xpyriment","Jazzy James","3.1.9","yes","yes","59a800d99ad5a1025d81bb03","59a801616c613b0251691de0","no","no","0","f","j","space","NA","space","space","f","1256","12644","14615","NA","41912","11052","1256","2","legacy","1024","1","44100","-16","experiment","ftal","4","0","0","0","1","Englisch, Italienisch","9","","odd","1949303","1934163","NA","NA","1961948","1949298","NA","1755266","1948834","1755266","1755266","1831202","1873119","2083177","2081673","2084435","1900123","1884462","1934163","NA","1772781","1816555","1932498","1884236","1949302","1884466","NA","2083177","2083177","NA","NA","2081669","NAP perception","29","54734","38","yes","1024"
"76.9230769231","yes","76.9230769231","1424.20512821","1424.20512821","white","no","xpyriment","Ich habe die obigen Informationen gelesen und verstanden.","legacy","legacy","0","uniform","1","0","0","undefined","undefined","1","j","2","1","NA","0","1","0","0","0","0","0","0","0","0","48","48","48","0","0","0","NA","0","0","2","0","0","0","2","48","48","48","48","48","Wed Oct  4 21:13:35 2017","Forced-choice identification task with a practice and an experimental phase","yes","NAP_GER_AA_4blocks_noglides.osexp","/Users/aviadalbert/Documents/Academisch/UoC/Dissertation/Experiment/OpenSesame/NAP-FC/NAP_GER_AA_4blocks_noglides","yes","no","sans","no","20","no","black","no","Weiter","yes","768","legacy","38","9","0","/Users/aviadalbert/Documents/Academisch/UoC/Dissertation/Experiment/OpenSesame/NAP-FC/NAP_GER_AA_4blocks_noglides/subject-9.csv","xpyriment","Jazzy James","3.1.9","yes","yes","59a800d99ad5a1025d81bb03","59a801616c613b0251691de0","no","no","0","j","j","space","NA","space","space","j","810","12644","14615","NA","41912","11052","810","2","legacy","1024","1","44100","-16","experiment","zeval","4","0","0","0","1","Englisch, Italienisch","9","","odd","1949303","1934163","NA","NA","1961948","1949298","NA","1755266","1948834","1755266","1755266","1831202","1873119","2086216","2084711","2087028","1900123","1884462","1934163","NA","1772781","1816555","1932498","1884236","1949302","1884466","NA","2086215","2086215","NA","NA","2084707","NAP perception","30","55544","39","yes","1024"
"77.5","yes","77.5","1412.6","1412.6","white","no","xpyriment","Ich habe die obigen Informationen gelesen und verstanden.","legacy","legacy","0","uniform","1","0","0","undefined","undefined","1","j","2","1","NA","0","1","0","0","0","0","0","0","0","0","49","49","49","0","0","0","NA","0","0","2","0","0","0","2","49","49","49","49","49","Wed Oct  4 21:13:35 2017","Forced-choice identification task with a practice and an experimental phase","yes","NAP_GER_AA_4blocks_noglides.osexp","/Users/aviadalbert/Documents/Academisch/UoC/Dissertation/Experiment/OpenSesame/NAP-FC/NAP_GER_AA_4blocks_noglides","yes","no","sans","no","20","no","black","no","Weiter","yes","768","legacy","39","9","0","/Users/aviadalbert/Documents/Academisch/UoC/Dissertation/Experiment/OpenSesame/NAP-FC/NAP_GER_AA_4blocks_noglides/subject-9.csv","xpyriment","Jazzy James","3.1.9","yes","yes","59a800d99ad5a1025d81bb03","59a801616c613b0251691de0","no","no","0","j","j","space","NA","space","space","j","960","12644","14615","NA","41912","11052","960","2","legacy","1024","1","44100","-16","experiment","menal","4","0","0","0","1","Englisch, Italienisch","9","","odd","1949303","1934163","NA","NA","1961948","1949298","NA","1755266","1948834","1755266","1755266","1831202","1873119","2088818","2087311","2089780","1900123","1884462","1934163","NA","1772781","1816555","1932498","1884236","1949302","1884466","NA","2088818","2088818","NA","NA","2087307","NAP perception","31","56504","40","yes","1024"
"78.0487804878","yes","78.0487804878","1394.14634146","1394.14634146","white","no","xpyriment","Ich habe die obigen Informationen gelesen und verstanden.","legacy","legacy","0","uniform","1","0","0","undefined","undefined","1","j","2","1","NA","0","1","0","0","0","0","0","0","0","0","50","50","50","0","0","0","NA","0","0","2","0","0","0","2","50","50","50","50","50","Wed Oct  4 21:13:35 2017","Forced-choice identification task with a practice and an experimental phase","yes","NAP_GER_AA_4blocks_noglides.osexp","/Users/aviadalbert/Documents/Academisch/UoC/Dissertation/Experiment/OpenSesame/NAP-FC/NAP_GER_AA_4blocks_noglides","yes","no","sans","no","20","no","black","no","Weiter","yes","768","legacy","40","9","0","/Users/aviadalbert/Documents/Academisch/UoC/Dissertation/Experiment/OpenSesame/NAP-FC/NAP_GER_AA_4blocks_noglides/subject-9.csv","xpyriment","Jazzy James","3.1.9","yes","yes","59a800d99ad5a1025d81bb03","59a801616c613b0251691de0","no","no","0","j","j","space","NA","space","space","j","656","12644","14615","NA","41912","11052","656","2","legacy","1024","1","44100","-16","experiment","nemal","4","0","0","0","1","Englisch, Italienisch","9","","odd","1949303","1934163","NA","NA","1961948","1949298","NA","1755266","1948834","1755266","1755266","1831202","1873119","2091579","2090072","2092236","1900123","1884462","1934163","NA","1772781","1816555","1932498","1884236","1949302","1884466","NA","2091579","2091579","NA","NA","2090068","NAP perception","32","57160","41","yes","1024"
"76.1904761905","yes","76.1904761905","1414.88095238","1414.88095238","white","no","xpyriment","Ich habe die obigen Informationen gelesen und verstanden.","legacy","legacy","0","uniform","0","0","0","undefined","undefined","0","f","2","1","NA","0","1","0","0","0","0","0","0","0","0","51","51","51","0","0","0","NA","0","0","2","0","0","0","2","51","51","51","51","51","Wed Oct  4 21:13:35 2017","Forced-choice identification task with a practice and an experimental phase","yes","NAP_GER_AA_4blocks_noglides.osexp","/Users/aviadalbert/Documents/Academisch/UoC/Dissertation/Experiment/OpenSesame/NAP-FC/NAP_GER_AA_4blocks_noglides","yes","no","sans","no","20","no","black","no","Weiter","yes","768","legacy","41","9","0","/Users/aviadalbert/Documents/Academisch/UoC/Dissertation/Experiment/OpenSesame/NAP-FC/NAP_GER_AA_4blocks_noglides/subject-9.csv","xpyriment","Jazzy James","3.1.9","yes","yes","59a800d99ad5a1025d81bb03","59a801616c613b0251691de0","no","no","0","j","j","space","NA","space","space","j","2265","12644","14615","NA","41912","11052","2265","2","legacy","1024","1","44100","-16","experiment","nfal","4","0","0","0","1","Englisch, Italienisch","9","","odd","1949303","1934163","NA","NA","1961948","1949298","NA","1755266","1948834","1755266","1755266","1831202","1873119","2094036","2092532","2096303","1900123","1884462","1934163","NA","1772781","1816555","1932498","1884236","1949302","1884466","NA","2094035","2094036","NA","NA","2092528","NAP perception","32","59425","42","yes","1024"
"76.7441860465","yes","76.7441860465","1416.62790698","1416.62790698","white","no","xpyriment","Ich habe die obigen Informationen gelesen und verstanden.","legacy","legacy","0","uniform","1","0","0","undefined","undefined","1","j","2","1","NA","0","1","0","0","0","0","0","0","0","0","52","52","52","0","0","0","NA","0","0","2","0","0","0","2","52","52","52","52","52","Wed Oct  4 21:13:35 2017","Forced-choice identification task with a practice and an experimental phase","yes","NAP_GER_AA_4blocks_noglides.osexp","/Users/aviadalbert/Documents/Academisch/UoC/Dissertation/Experiment/OpenSesame/NAP-FC/NAP_GER_AA_4blocks_noglides","yes","no","sans","no","20","no","black","no","Weiter","yes","768","legacy","42","9","0","/Users/aviadalbert/Documents/Academisch/UoC/Dissertation/Experiment/OpenSesame/NAP-FC/NAP_GER_AA_4blocks_noglides/subject-9.csv","xpyriment","Jazzy James","3.1.9","yes","yes","59a800d99ad5a1025d81bb03","59a801616c613b0251691de0","no","no","0","j","j","space","NA","space","space","j","1490","12644","14615","NA","41912","11052","1490","2","legacy","1024","1","44100","-16","experiment","esfal","4","0","0","0","1","Englisch, Italienisch","9","","odd","1949303","1934163","NA","NA","1961948","1949298","NA","1755266","1948834","1755266","1755266","1831202","1873119","2098086","2096582","2099579","1900123","1884462","1934163","NA","1772781","1816555","1932498","1884236","1949302","1884466","NA","2098086","2098086","NA","NA","2096578","NAP perception","33","60915","43","yes","1024"
"77.2727272727","yes","77.2727272727","1405.06818182","1405.06818182","white","no","xpyriment","Ich habe die obigen Informationen gelesen und verstanden.","legacy","legacy","0","uniform","1","0","0","undefined","undefined","1","f","2","1","NA","0","1","0","0","0","0","0","0","0","0","53","53","53","0","0","0","NA","0","0","2","0","0","0","2","53","53","53","53","53","Wed Oct  4 21:13:35 2017","Forced-choice identification task with a practice and an experimental phase","yes","NAP_GER_AA_4blocks_noglides.osexp","/Users/aviadalbert/Documents/Academisch/UoC/Dissertation/Experiment/OpenSesame/NAP-FC/NAP_GER_AA_4blocks_noglides","yes","no","sans","no","20","no","black","no","Weiter","yes","768","legacy","43","9","0","/Users/aviadalbert/Documents/Academisch/UoC/Dissertation/Experiment/OpenSesame/NAP-FC/NAP_GER_AA_4blocks_noglides/subject-9.csv","xpyriment","Jazzy James","3.1.9","yes","yes","59a800d99ad5a1025d81bb03","59a801616c613b0251691de0","no","no","0","f","j","space","NA","space","space","f","908","12644","14615","NA","41912","11052","908","2","legacy","1024","1","44100","-16","experiment","vlal","4","0","0","0","1","Englisch, Italienisch","9","","odd","1949303","1934163","NA","NA","1961948","1949298","NA","1755266","1948834","1755266","1755266","1831202","1873119","2101359","2099856","2102269","1900123","1884462","1934163","NA","1772781","1816555","1932498","1884236","1949302","1884466","NA","2101359","2101359","NA","NA","2099852","NAP perception","34","61823","44","yes","1024"
"77.7777777778","yes","77.7777777778","1398.57777778","1398.57777778","white","no","xpyriment","Ich habe die obigen Informationen gelesen und verstanden.","legacy","legacy","0","uniform","1","0","0","undefined","undefined","1","j","2","1","NA","0","1","0","0","0","0","0","0","0","0","54","54","54","0","0","0","NA","0","0","2","0","0","0","2","54","54","54","54","54","Wed Oct  4 21:13:35 2017","Forced-choice identification task with a practice and an experimental phase","yes","NAP_GER_AA_4blocks_noglides.osexp","/Users/aviadalbert/Documents/Academisch/UoC/Dissertation/Experiment/OpenSesame/NAP-FC/NAP_GER_AA_4blocks_noglides","yes","no","sans","no","20","no","black","no","Weiter","yes","768","legacy","44","9","0","/Users/aviadalbert/Documents/Academisch/UoC/Dissertation/Experiment/OpenSesame/NAP-FC/NAP_GER_AA_4blocks_noglides/subject-9.csv","xpyriment","Jazzy James","3.1.9","yes","yes","59a800d99ad5a1025d81bb03","59a801616c613b0251691de0","no","no","0","j","j","space","NA","space","space","j","1113","12644","14615","NA","41912","11052","1113","2","legacy","1024","1","44100","-16","experiment","evlal","4","0","0","0","1","Englisch, Italienisch","9","","odd","1949303","1934163","NA","NA","1961948","1949298","NA","1755266","1948834","1755266","1755266","1831202","1873119","2104043","2102540","2105158","1900123","1884462","1934163","NA","1772781","1816555","1932498","1884236","1949302","1884466","NA","2104043","2104043","NA","NA","2102536","NAP perception","35","62936","45","yes","1024"
"76.0869565217","yes","76.0869565217","1433.39130435","1433.39130435","white","no","xpyriment","Ich habe die obigen Informationen gelesen und verstanden.","legacy","legacy","0","uniform","0","0","0","undefined","undefined","0","j","2","1","NA","0","1","0","0","0","0","0","0","0","0","55","55","55","0","0","0","NA","0","0","2","0","0","0","2","55","55","55","55","55","Wed Oct  4 21:13:35 2017","Forced-choice identification task with a practice and an experimental phase","yes","NAP_GER_AA_4blocks_noglides.osexp","/Users/aviadalbert/Documents/Academisch/UoC/Dissertation/Experiment/OpenSesame/NAP-FC/NAP_GER_AA_4blocks_noglides","yes","no","sans","no","20","no","black","no","Weiter","yes","768","legacy","45","9","0","/Users/aviadalbert/Documents/Academisch/UoC/Dissertation/Experiment/OpenSesame/NAP-FC/NAP_GER_AA_4blocks_noglides/subject-9.csv","xpyriment","Jazzy James","3.1.9","yes","yes","59a800d99ad5a1025d81bb03","59a801616c613b0251691de0","no","no","0","None","j","space","NA","space","space","None","3000","12644","14615","NA","41912","11052","3000","2","legacy","1024","1","44100","-16","experiment","velal","4","0","0","0","1","Englisch, Italienisch","9","","odd","1949303","1934163","NA","NA","1961948","1949298","NA","1755266","1948834","1755266","1755266","1831202","1873119","2106951","2105444","2110955","1900123","1884462","1934163","NA","1772781","1816555","1932498","1884236","1949302","1884466","NA","2106951","2106951","2109955","2109951","2105441","NAP perception","35","65936","46","yes","1024"
"74.4680851064","yes","74.4680851064","1433.40425532","1433.40425532","white","no","xpyriment","Ich habe die obigen Informationen gelesen und verstanden.","legacy","legacy","0","uniform","0","0","0","undefined","undefined","0","j","2","1","NA","0","1","0","0","0","0","0","0","0","0","56","56","56","0","0","0","NA","0","0","2","0","0","0","2","56","56","56","56","56","Wed Oct  4 21:13:35 2017","Forced-choice identification task with a practice and an experimental phase","yes","NAP_GER_AA_4blocks_noglides.osexp","/Users/aviadalbert/Documents/Academisch/UoC/Dissertation/Experiment/OpenSesame/NAP-FC/NAP_GER_AA_4blocks_noglides","yes","no","sans","no","20","no","black","no","Weiter","yes","768","legacy","46","9","0","/Users/aviadalbert/Documents/Academisch/UoC/Dissertation/Experiment/OpenSesame/NAP-FC/NAP_GER_AA_4blocks_noglides/subject-9.csv","xpyriment","Jazzy James","3.1.9","yes","yes","59a800d99ad5a1025d81bb03","59a801616c613b0251691de0","no","no","0","f","j","space","NA","space","space","f","1434","12644","14615","NA","41912","11052","1434","2","legacy","1024","1","44100","-16","experiment","melal","4","0","0","0","1","Englisch, Italienisch","9","","odd","1949303","1934163","NA","NA","1961948","1949298","NA","1755266","1948834","1755266","1755266","1831202","1873119","2112739","2111234","2114174","1900123","1884462","1934163","NA","1772781","1816555","1932498","1884236","1949302","1884466","NA","2112738","2112738","2109955","2109951","2111230","NAP perception","35","67370","47","yes","1024"
"75","yes","75","1426.4375","1426.4375","white","no","xpyriment","Ich habe die obigen Informationen gelesen und verstanden.","legacy","legacy","0","uniform","1","0","0","undefined","undefined","1","j","2","1","NA","0","1","0","0","0","0","0","0","0","0","57","57","57","0","0","0","NA","0","0","2","0","0","0","2","57","57","57","57","57","Wed Oct  4 21:13:35 2017","Forced-choice identification task with a practice and an experimental phase","yes","NAP_GER_AA_4blocks_noglides.osexp","/Users/aviadalbert/Documents/Academisch/UoC/Dissertation/Experiment/OpenSesame/NAP-FC/NAP_GER_AA_4blocks_noglides","yes","no","sans","no","20","no","black","no","Weiter","yes","768","legacy","47","9","0","/Users/aviadalbert/Documents/Academisch/UoC/Dissertation/Experiment/OpenSesame/NAP-FC/NAP_GER_AA_4blocks_noglides/subject-9.csv","xpyriment","Jazzy James","3.1.9","yes","yes","59a800d99ad5a1025d81bb03","59a801616c613b0251691de0","no","no","0","j","j","space","NA","space","space","j","1099","12644","14615","NA","41912","11052","1099","2","legacy","1024","1","44100","-16","experiment","ﾊテfal","4","0","0","0","1","Englisch, Italienisch","9","","odd","1949303","1934163","NA","NA","1961948","1949298","NA","1755266","1948834","1755266","1755266","1831202","1873119","2115965","2114462","2117066","1900123","1884462","1934163","NA","1772781","1816555","1932498","1884236","1949302","1884466","NA","2115965","2115965","2109955","2109951","2114458","NAP perception","36","68469","48","yes","1024"
"75.5102040816","yes","75.5102040816","1411.75510204","1411.75510204","white","no","xpyriment","Ich habe die obigen Informationen gelesen und verstanden.","legacy","legacy","0","uniform","1","0","0","undefined","undefined","1","j","2","1","NA","0","1","0","0","0","0","0","0","0","0","58","58","58","0","0","0","NA","0","0","2","0","0","0","2","58","58","58","58","58","Wed Oct  4 21:13:35 2017","Forced-choice identification task with a practice and an experimental phase","yes","NAP_GER_AA_4blocks_noglides.osexp","/Users/aviadalbert/Documents/Academisch/UoC/Dissertation/Experiment/OpenSesame/NAP-FC/NAP_GER_AA_4blocks_noglides","yes","no","sans","no","20","no","black","no","Weiter","yes","768","legacy","48","9","0","/Users/aviadalbert/Documents/Academisch/UoC/Dissertation/Experiment/OpenSesame/NAP-FC/NAP_GER_AA_4blocks_noglides/subject-9.csv","xpyriment","Jazzy James","3.1.9","yes","yes","59a800d99ad5a1025d81bb03","59a801616c613b0251691de0","no","no","0","j","j","space","NA","space","space","j","707","12644","14615","NA","41912","11052","707","2","legacy","1024","1","44100","-16","experiment","espal","4","0","0","0","1","Englisch, Italienisch","9","","odd","1949303","1934163","NA","NA","1961948","1949298","NA","1755266","1948834","1755266","1755266","1831202","1873119","2118841","2117338","2119550","1900123","1884462","1934163","NA","1772781","1816555","1932498","1884236","1949302","1884466","NA","2118841","2118841","2109955","2109951","2117334","NAP perception","37","69176","49","yes","1024"
"76","yes","76","1415.86","1415.86","white","no","xpyriment","Ich habe die obigen Informationen gelesen und verstanden.","legacy","legacy","0","uniform","1","0","0","undefined","undefined","1","j","2","1","NA","0","1","0","0","0","0","0","0","0","0","59","59","59","0","0","0","NA","0","0","2","0","0","0","2","59","59","59","59","59","Wed Oct  4 21:13:35 2017","Forced-choice identification task with a practice and an experimental phase","yes","NAP_GER_AA_4blocks_noglides.osexp","/Users/aviadalbert/Documents/Academisch/UoC/Dissertation/Experiment/OpenSesame/NAP-FC/NAP_GER_AA_4blocks_noglides","yes","no","sans","no","20","no","black","no","Weiter","yes","768","legacy","49","9","0","/Users/aviadalbert/Documents/Academisch/UoC/Dissertation/Experiment/OpenSesame/NAP-FC/NAP_GER_AA_4blocks_noglides/subject-9.csv","xpyriment","Jazzy James","3.1.9","yes","yes","59a800d99ad5a1025d81bb03","59a801616c613b0251691de0","no","no","0","j","j","space","NA","space","space","j","1617","12644","14615","NA","41912","11052","1617","2","legacy","1024","1","44100","-16","experiment","felal","4","0","0","0","1","Englisch, Italienisch","9","","odd","1949303","1934163","NA","NA","1961948","1949298","NA","1755266","1948834","1755266","1755266","1831202","1873119","2121336","2119831","2122955","1900123","1884462","1934163","NA","1772781","1816555","1932498","1884236","1949302","1884466","NA","2121336","2121336","2109955","2109951","2119827","NAP perception","38","70793","50","yes","1024"
"76.4705882353","yes","76.4705882353","1436.96078431","1436.96078431","white","no","xpyriment","Ich habe die obigen Informationen gelesen und verstanden.","legacy","legacy","0","uniform","1","0","0","undefined","undefined","1","f","2","1","NA","0","1","0","0","0","0","0","0","0","0","60","60","60","0","0","0","NA","0","0","2","0","0","0","2","60","60","60","60","60","Wed Oct  4 21:13:35 2017","Forced-choice identification task with a practice and an experimental phase","yes","NAP_GER_AA_4blocks_noglides.osexp","/Users/aviadalbert/Documents/Academisch/UoC/Dissertation/Experiment/OpenSesame/NAP-FC/NAP_GER_AA_4blocks_noglides","yes","no","sans","no","20","no","black","no","Weiter","yes","768","legacy","50","9","0","/Users/aviadalbert/Documents/Academisch/UoC/Dissertation/Experiment/OpenSesame/NAP-FC/NAP_GER_AA_4blocks_noglides/subject-9.csv","xpyriment","Jazzy James","3.1.9","yes","yes","59a800d99ad5a1025d81bb03","59a801616c613b0251691de0","no","no","0","f","j","space","NA","space","space","f","2492","12644","14615","NA","41912","11052","2492","2","legacy","1024","1","44100","-16","experiment","lfal","4","0","0","0","1","Englisch, Italienisch","9","","odd","1949303","1934163","NA","NA","1961948","1949298","NA","1755266","1948834","1755266","1755266","1831202","1873119","2124746","2123242","2127240","1900123","1884462","1934163","NA","1772781","1816555","1932498","1884236","1949302","1884466","NA","2124746","2124746","2109955","2109951","2123238","NAP perception","39","73285","51","yes","1024"
"76.9230769231","yes","76.9230769231","1430.15384615","1430.15384615","white","no","xpyriment","Ich habe die obigen Informationen gelesen und verstanden.","legacy","legacy","0","uniform","1","0","0","undefined","undefined","1","j","2","1","NA","0","1","0","0","0","0","0","0","0","0","61","61","61","0","0","0","NA","0","0","2","0","0","0","2","61","61","61","61","61","Wed Oct  4 21:13:35 2017","Forced-choice identification task with a practice and an experimental phase","yes","NAP_GER_AA_4blocks_noglides.osexp","/Users/aviadalbert/Documents/Academisch/UoC/Dissertation/Experiment/OpenSesame/NAP-FC/NAP_GER_AA_4blocks_noglides","yes","no","sans","no","20","no","black","no","Weiter","yes","768","legacy","51","9","0","/Users/aviadalbert/Documents/Academisch/UoC/Dissertation/Experiment/OpenSesame/NAP-FC/NAP_GER_AA_4blocks_noglides/subject-9.csv","xpyriment","Jazzy James","3.1.9","yes","yes","59a800d99ad5a1025d81bb03","59a801616c613b0251691de0","no","no","0","j","j","space","NA","space","space","j","1083","12644","14615","NA","41912","11052","1083","2","legacy","1024","1","44100","-16","experiment","efnal","4","0","0","0","1","Englisch, Italienisch","9","","odd","1949303","1934163","NA","NA","1961948","1949298","NA","1755266","1948834","1755266","1755266","1831202","1873119","2129029","2127526","2130113","1900123","1884462","1934163","NA","1772781","1816555","1932498","1884236","1949302","1884466","NA","2129029","2129029","2109955","2109951","2127522","NAP perception","40","74368","52","yes","1024"
"77.358490566","yes","77.358490566","1423.73584906","1423.73584906","white","no","xpyriment","Ich habe die obigen Informationen gelesen und verstanden.","legacy","legacy","0","uniform","1","0","0","undefined","undefined","1","j","2","1","NA","0","1","0","0","0","0","0","0","0","0","62","62","62","0","0","0","NA","0","0","2","0","0","0","2","62","62","62","62","62","Wed Oct  4 21:13:35 2017","Forced-choice identification task with a practice and an experimental phase","yes","NAP_GER_AA_4blocks_noglides.osexp","/Users/aviadalbert/Documents/Academisch/UoC/Dissertation/Experiment/OpenSesame/NAP-FC/NAP_GER_AA_4blocks_noglides","yes","no","sans","no","20","no","black","no","Weiter","yes","768","legacy","52","9","0","/Users/aviadalbert/Documents/Academisch/UoC/Dissertation/Experiment/OpenSesame/NAP-FC/NAP_GER_AA_4blocks_noglides/subject-9.csv","xpyriment","Jazzy James","3.1.9","yes","yes","59a800d99ad5a1025d81bb03","59a801616c613b0251691de0","no","no","0","j","j","space","NA","space","space","j","1090","12644","14615","NA","41912","11052","1090","2","legacy","1024","1","44100","-16","experiment","leval","4","0","0","0","1","Englisch, Italienisch","9","","odd","1949303","1934163","NA","NA","1961948","1949298","NA","1755266","1948834","1755266","1755266","1831202","1873119","2131884","2130380","2132975","1900123","1884462","1934163","NA","1772781","1816555","1932498","1884236","1949302","1884466","NA","2131883","2131883","2109955","2109951","2130376","NAP perception","41","75458","53","yes","1024"
"77.7777777778","yes","77.7777777778","1408.72222222","1408.72222222","white","no","xpyriment","Ich habe die obigen Informationen gelesen und verstanden.","legacy","legacy","0","uniform","1","0","0","undefined","undefined","1","j","2","1","NA","0","1","0","0","0","0","0","0","0","0","63","63","63","0","0","0","NA","0","0","2","0","0","0","2","63","63","63","63","63","Wed Oct  4 21:13:35 2017","Forced-choice identification task with a practice and an experimental phase","yes","NAP_GER_AA_4blocks_noglides.osexp","/Users/aviadalbert/Documents/Academisch/UoC/Dissertation/Experiment/OpenSesame/NAP-FC/NAP_GER_AA_4blocks_noglides","yes","no","sans","no","20","no","black","no","Weiter","yes","768","legacy","53","9","0","/Users/aviadalbert/Documents/Academisch/UoC/Dissertation/Experiment/OpenSesame/NAP-FC/NAP_GER_AA_4blocks_noglides/subject-9.csv","xpyriment","Jazzy James","3.1.9","yes","yes","59a800d99ad5a1025d81bb03","59a801616c613b0251691de0","no","no","0","j","j","space","NA","space","space","j","613","12644","14615","NA","41912","11052","613","2","legacy","1024","1","44100","-16","experiment","neval","4","0","0","0","1","Englisch, Italienisch","9","","odd","1949303","1934163","NA","NA","1961948","1949298","NA","1755266","1948834","1755266","1755266","1831202","1873119","2134738","2133234","2135352","1900123","1884462","1934163","NA","1772781","1816555","1932498","1884236","1949302","1884466","NA","2134738","2134738","2109955","2109951","2133230","NAP perception","42","76071","54","yes","1024"
"78.1818181818","yes","78.1818181818","1398.61818182","1398.61818182","white","no","xpyriment","Ich habe die obigen Informationen gelesen und verstanden.","legacy","legacy","0","uniform","1","0","0","undefined","undefined","1","j","2","1","NA","0","1","0","0","0","0","0","0","0","0","64","64","64","0","0","0","NA","0","0","2","0","0","0","2","64","64","64","64","64","Wed Oct  4 21:13:35 2017","Forced-choice identification task with a practice and an experimental phase","yes","NAP_GER_AA_4blocks_noglides.osexp","/Users/aviadalbert/Documents/Academisch/UoC/Dissertation/Experiment/OpenSesame/NAP-FC/NAP_GER_AA_4blocks_noglides","yes","no","sans","no","20","no","black","no","Weiter","yes","768","legacy","54","9","0","/Users/aviadalbert/Documents/Academisch/UoC/Dissertation/Experiment/OpenSesame/NAP-FC/NAP_GER_AA_4blocks_noglides/subject-9.csv","xpyriment","Jazzy James","3.1.9","yes","yes","59a800d99ad5a1025d81bb03","59a801616c613b0251691de0","no","no","0","j","j","space","NA","space","space","j","853","12644","14615","NA","41912","11052","853","2","legacy","1024","1","44100","-16","experiment","enfal","4","0","0","0","1","Englisch, Italienisch","9","","odd","1949303","1934163","NA","NA","1961948","1949298","NA","1755266","1948834","1755266","1755266","1831202","1873119","2137129","2135626","2137983","1900123","1884462","1934163","NA","1772781","1816555","1932498","1884236","1949302","1884466","NA","2137129","2137129","2109955","2109951","2135622","NAP perception","43","76924","55","yes","1024"
