"acc","accept_status","accuracy","average_response_time","avg_rt","background","bidi","canvas_backend","checkbox_status","clock_backend","color_backend","compensation","coordinates","correct","correct_block_activation","correct_block_exit","correct_instructions_1","correct_instructions_2","correct_keyboard_response","correct_response","count_block_activation","count_block_exit","count_block_info_QA","count_cont_e_block_message","count_e_block_loop","count_e_block_sequence","count_end_of_experiment","count_experiment","count_experimental_loop","count_form_consent","count_info_forms","count_instructions_1","count_instructions_2","count_keyboard_response","count_listen_message","count_logger","count_p_block_loop","count_p_block_sequence","count_p_feedback","count_pause_feedback","count_personal_details_form_1","count_personal_details_form_2","count_post_loop_blank","count_practice_loop","count_pre_e_block_message","count_pre_p_block_message","count_reset_feedback","count_stimulus_image","count_stimulus_sound","count_timeout_message","count_timeout_sound","count_trial_sequence","datetime","description","disable_garbage_collection","experiment_file","experiment_path","expyriment_opengl","font_bold","font_family","font_italic","font_size","font_underline","foreground","form_clicks","form_response","fullscreen","height","keyboard_backend","live_row","live_row_p_block_loop","live_row_practice_loop","logfile","mouse_backend","opensesame_codename","opensesame_version","osf_always_upload_data","osf_always_upload_experiment","osf_datanode_id","osf_id","practice","pygame_doublebuf","repeat_cycle","response","response_block_activation","response_block_exit","response_block_info_QA","response_instructions_1","response_instructions_2","response_keyboard_response","response_time","response_time_block_activation","response_time_block_exit","response_time_block_info_QA","response_time_instructions_1","response_time_instructions_2","response_time_keyboard_response","round_decimals","sampler_backend","sound_buf_size","sound_channels","sound_freq","sound_sample_size","start","stimulus","subject_age","subject_education","subject_gender","subject_german_native","subject_handedness","subject_language_other","subject_nr","subject_other_native_lang","subject_parity","time_block_activation","time_block_exit","time_block_info_QA","time_cont_e_block_message","time_e_block_loop","time_e_block_sequence","time_end_of_experiment","time_experiment","time_experimental_loop","time_form_consent","time_info_forms","time_instructions_1","time_instructions_2","time_keyboard_response","time_listen_message","time_logger","time_p_block_loop","time_p_block_sequence","time_p_feedback","time_pause_feedback","time_personal_details_form_1","time_personal_details_form_2","time_post_loop_blank","time_practice_loop","time_pre_e_block_message","time_pre_p_block_message","time_reset_feedback","time_stimulus_image","time_stimulus_sound","time_timeout_message","time_timeout_sound","time_trial_sequence","title","total_correct","total_response_time","total_responses","uniform_coordinates","width"
"100","yes","100","1553","1553","white","no","xpyriment","Ich habe die obigen Informationen gelesen und verstanden.","legacy","legacy","0","uniform","1","0","NA","undefined","undefined","1","f","0","0","NA","NA","NA","NA","NA","0","0","0","0","0","0","0","0","0","0","0","NA","NA","0","0","0","0","NA","0","0","0","0","0","0","0","Fri Oct 27 14:02:09 2017","Forced-choice identification task with a practice and an experimental phase","yes","NAP_GER_AA_4blocks_noglides.osexp","/Users/aviadalbert/Documents/Academisch/UoC/Dissertation/Experiment/OpenSesame/NAP-FC/NAP_GER_AA_4blocks_noglides","yes","no","sans","no","20","no","black","no","Weiter","yes","768","legacy","0","0","0","/Users/aviadalbert/Documents/Academisch/UoC/Dissertation/Experiment/OpenSesame/NAP-FC/NAP_GER_AA_4blocks_noglides/subject-32.csv","xpyriment","Jazzy James","3.1.9","yes","yes","59a800d99ad5a1025d81bb03","59a801616c613b0251691de0","yes","no","0","f","f","NA","NA","space","space","f","1553","21627","NA","NA","15954","12943","1553","2","legacy","1024","1","44100","-16","experiment","flal","2","0","0","0","1","Eng French, Dutch","32","","even","1446673","NA","NA","NA","NA","NA","NA","203810","NA","203811","203811","1417488","1433446","1470018","1468514","1471572","1468301","1446669","NA","NA","1353217","1409156","NA","1446447","NA","1446673","NA","1470018","1470018","NA","NA","1468510","NAP perception","1","1553","1","yes","1024"
"100","yes","100","1307","1307","white","no","xpyriment","Ich habe die obigen Informationen gelesen und verstanden.","legacy","legacy","0","uniform","1","0","NA","undefined","undefined","1","j","0","0","NA","NA","NA","NA","NA","0","0","0","0","0","0","1","1","1","0","0","NA","NA","0","0","0","0","NA","0","0","1","1","1","1","1","Fri Oct 27 14:02:09 2017","Forced-choice identification task with a practice and an experimental phase","yes","NAP_GER_AA_4blocks_noglides.osexp","/Users/aviadalbert/Documents/Academisch/UoC/Dissertation/Experiment/OpenSesame/NAP-FC/NAP_GER_AA_4blocks_noglides","yes","no","sans","no","20","no","black","no","Weiter","yes","768","legacy","1","1","0","/Users/aviadalbert/Documents/Academisch/UoC/Dissertation/Experiment/OpenSesame/NAP-FC/NAP_GER_AA_4blocks_noglides/subject-32.csv","xpyriment","Jazzy James","3.1.9","yes","yes","59a800d99ad5a1025d81bb03","59a801616c613b0251691de0","yes","no","0","j","f","NA","NA","space","space","j","1061","21627","NA","NA","15954","12943","1061","2","legacy","1024","1","44100","-16","experiment","lepal","2","0","0","0","1","Eng French, Dutch","32","","even","1446673","NA","NA","NA","NA","NA","NA","203810","NA","203811","203811","1417488","1433446","1473353","1471850","1474415","1468301","1446669","NA","NA","1353217","1409156","NA","1446447","NA","1446673","NA","1473353","1473353","NA","NA","1471846","NAP perception","2","2614","2","yes","1024"
"100","yes","100","1119.33333333","1119.33333333","white","no","xpyriment","Ich habe die obigen Informationen gelesen und verstanden.","legacy","legacy","0","uniform","1","0","NA","undefined","undefined","1","j","0","0","NA","NA","NA","NA","NA","0","0","0","0","0","0","2","2","2","0","0","NA","NA","0","0","0","0","NA","0","0","2","2","2","2","2","Fri Oct 27 14:02:09 2017","Forced-choice identification task with a practice and an experimental phase","yes","NAP_GER_AA_4blocks_noglides.osexp","/Users/aviadalbert/Documents/Academisch/UoC/Dissertation/Experiment/OpenSesame/NAP-FC/NAP_GER_AA_4blocks_noglides","yes","no","sans","no","20","no","black","no","Weiter","yes","768","legacy","2","2","0","/Users/aviadalbert/Documents/Academisch/UoC/Dissertation/Experiment/OpenSesame/NAP-FC/NAP_GER_AA_4blocks_noglides/subject-32.csv","xpyriment","Jazzy James","3.1.9","yes","yes","59a800d99ad5a1025d81bb03","59a801616c613b0251691de0","yes","no","0","j","f","NA","NA","space","space","j","744","21627","NA","NA","15954","12943","744","2","legacy","1024","1","44100","-16","experiment","emtal","2","0","0","0","1","Eng French, Dutch","32","","even","1446673","NA","NA","NA","NA","NA","NA","203810","NA","203811","203811","1417488","1433446","1476194","1474690","1476939","1468301","1446669","NA","NA","1353217","1409156","NA","1446447","NA","1446673","NA","1476194","1476194","NA","NA","1474686","NAP perception","3","3358","3","yes","1024"
"100","yes","100","1108.5","1108.5","white","no","xpyriment","Ich habe die obigen Informationen gelesen und verstanden.","legacy","legacy","0","uniform","1","0","NA","undefined","undefined","1","f","0","0","NA","NA","NA","NA","NA","0","0","0","0","0","0","3","3","3","0","0","NA","NA","0","0","0","0","NA","0","0","3","3","3","3","3","Fri Oct 27 14:02:09 2017","Forced-choice identification task with a practice and an experimental phase","yes","NAP_GER_AA_4blocks_noglides.osexp","/Users/aviadalbert/Documents/Academisch/UoC/Dissertation/Experiment/OpenSesame/NAP-FC/NAP_GER_AA_4blocks_noglides","yes","no","sans","no","20","no","black","no","Weiter","yes","768","legacy","3","3","0","/Users/aviadalbert/Documents/Academisch/UoC/Dissertation/Experiment/OpenSesame/NAP-FC/NAP_GER_AA_4blocks_noglides/subject-32.csv","xpyriment","Jazzy James","3.1.9","yes","yes","59a800d99ad5a1025d81bb03","59a801616c613b0251691de0","yes","no","0","f","f","NA","NA","space","space","f","1076","21627","NA","NA","15954","12943","1076","2","legacy","1024","1","44100","-16","experiment","ʃpal","2","0","0","0","1","Eng French, Dutch","32","","even","1446673","NA","NA","NA","NA","NA","NA","203810","NA","203811","203811","1417488","1433446","1478727","1477222","1479805","1468301","1446669","NA","NA","1353217","1409156","NA","1446447","NA","1446673","NA","1478727","1478727","NA","NA","1477219","NAP perception","4","4434","4","yes","1024"
"100","yes","100","1167.2","1167.2","white","no","xpyriment","Ich habe die obigen Informationen gelesen und verstanden.","legacy","legacy","0","uniform","1","0","NA","undefined","undefined","1","j","0","0","NA","NA","NA","NA","NA","0","0","0","0","0","0","4","4","4","0","0","NA","NA","0","0","0","0","NA","0","0","4","4","4","4","4","Fri Oct 27 14:02:09 2017","Forced-choice identification task with a practice and an experimental phase","yes","NAP_GER_AA_4blocks_noglides.osexp","/Users/aviadalbert/Documents/Academisch/UoC/Dissertation/Experiment/OpenSesame/NAP-FC/NAP_GER_AA_4blocks_noglides","yes","no","sans","no","20","no","black","no","Weiter","yes","768","legacy","4","4","0","/Users/aviadalbert/Documents/Academisch/UoC/Dissertation/Experiment/OpenSesame/NAP-FC/NAP_GER_AA_4blocks_noglides/subject-32.csv","xpyriment","Jazzy James","3.1.9","yes","yes","59a800d99ad5a1025d81bb03","59a801616c613b0251691de0","yes","no","0","j","f","NA","NA","space","space","j","1402","21627","NA","NA","15954","12943","1402","2","legacy","1024","1","44100","-16","experiment","nefal","2","0","0","0","1","Eng French, Dutch","32","","even","1446673","NA","NA","NA","NA","NA","NA","203810","NA","203811","203811","1417488","1433446","1481577","1480072","1482981","1468301","1446669","NA","NA","1353217","1409156","NA","1446447","NA","1446673","NA","1481577","1481577","NA","NA","1480067","NAP perception","5","5836","5","yes","1024"
"83.3333333333","yes","83.3333333333","1374.83333333","1374.83333333","white","no","xpyriment","Ich habe die obigen Informationen gelesen und verstanden.","legacy","legacy","0","uniform","0","0","NA","undefined","undefined","0","f","0","0","NA","NA","NA","NA","NA","0","0","0","0","0","0","5","5","5","0","0","NA","NA","0","0","0","0","NA","0","0","5","5","5","5","5","Fri Oct 27 14:02:09 2017","Forced-choice identification task with a practice and an experimental phase","yes","NAP_GER_AA_4blocks_noglides.osexp","/Users/aviadalbert/Documents/Academisch/UoC/Dissertation/Experiment/OpenSesame/NAP-FC/NAP_GER_AA_4blocks_noglides","yes","no","sans","no","20","no","black","no","Weiter","yes","768","legacy","5","5","0","/Users/aviadalbert/Documents/Academisch/UoC/Dissertation/Experiment/OpenSesame/NAP-FC/NAP_GER_AA_4blocks_noglides/subject-32.csv","xpyriment","Jazzy James","3.1.9","yes","yes","59a800d99ad5a1025d81bb03","59a801616c613b0251691de0","yes","no","0","j","f","NA","NA","space","space","j","2413","21627","NA","NA","15954","12943","2413","2","legacy","1024","1","44100","-16","experiment","sfal","2","0","0","0","1","Eng French, Dutch","32","","even","1446673","NA","NA","NA","NA","NA","NA","203810","NA","203811","203811","1417488","1433446","1484754","1483250","1487168","1468301","1446669","NA","NA","1353217","1409156","NA","1446447","NA","1446673","NA","1484753","1484754","NA","NA","1483246","NAP perception","5","8249","6","yes","1024"
"71.4285714286","yes","71.4285714286","1384.57142857","1384.57142857","white","no","xpyriment","Ich habe die obigen Informationen gelesen und verstanden.","legacy","legacy","0","uniform","0","0","NA","undefined","undefined","0","f","0","0","NA","NA","NA","NA","NA","0","0","0","0","0","0","6","6","6","0","0","NA","NA","0","0","0","0","NA","0","0","6","6","6","6","6","Fri Oct 27 14:02:09 2017","Forced-choice identification task with a practice and an experimental phase","yes","NAP_GER_AA_4blocks_noglides.osexp","/Users/aviadalbert/Documents/Academisch/UoC/Dissertation/Experiment/OpenSesame/NAP-FC/NAP_GER_AA_4blocks_noglides","yes","no","sans","no","20","no","black","no","Weiter","yes","768","legacy","6","6","0","/Users/aviadalbert/Documents/Academisch/UoC/Dissertation/Experiment/OpenSesame/NAP-FC/NAP_GER_AA_4blocks_noglides/subject-32.csv","xpyriment","Jazzy James","3.1.9","yes","yes","59a800d99ad5a1025d81bb03","59a801616c613b0251691de0","yes","no","0","j","f","NA","NA","space","space","j","1443","21627","NA","NA","15954","12943","1443","2","legacy","1024","1","44100","-16","experiment","zmal","2","0","0","0","1","Eng French, Dutch","32","","even","1446673","NA","NA","NA","NA","NA","NA","203810","NA","203811","203811","1417488","1433446","1488949","1487446","1490393","1468301","1446669","NA","NA","1353217","1409156","NA","1446447","NA","1446673","NA","1488949","1488949","NA","NA","1487442","NAP perception","5","9692","7","yes","1024"
"75","yes","75","1340.625","1340.625","white","no","xpyriment","Ich habe die obigen Informationen gelesen und verstanden.","legacy","legacy","0","uniform","1","0","NA","undefined","undefined","1","j","0","0","NA","NA","NA","NA","NA","0","0","0","0","0","0","7","7","7","0","0","NA","NA","0","0","0","0","NA","0","0","7","7","7","7","7","Fri Oct 27 14:02:09 2017","Forced-choice identification task with a practice and an experimental phase","yes","NAP_GER_AA_4blocks_noglides.osexp","/Users/aviadalbert/Documents/Academisch/UoC/Dissertation/Experiment/OpenSesame/NAP-FC/NAP_GER_AA_4blocks_noglides","yes","no","sans","no","20","no","black","no","Weiter","yes","768","legacy","7","7","0","/Users/aviadalbert/Documents/Academisch/UoC/Dissertation/Experiment/OpenSesame/NAP-FC/NAP_GER_AA_4blocks_noglides/subject-32.csv","xpyriment","Jazzy James","3.1.9","yes","yes","59a800d99ad5a1025d81bb03","59a801616c613b0251691de0","yes","no","0","j","f","NA","NA","space","space","j","1033","21627","NA","NA","15954","12943","1033","2","legacy","1024","1","44100","-16","experiment","mesal","2","0","0","0","1","Eng French, Dutch","32","","even","1446673","NA","NA","NA","NA","NA","NA","203810","NA","203811","203811","1417488","1433446","1492187","1490682","1493222","1468301","1446669","NA","NA","1353217","1409156","NA","1446447","NA","1446673","NA","1492187","1492187","NA","NA","1490678","NAP perception","6","10725","8","yes","1024"
"77.7777777778","yes","77.7777777778","1267.44444444","1267.44444444","white","no","xpyriment","Ich habe die obigen Informationen gelesen und verstanden.","legacy","legacy","0","uniform","1","0","NA","undefined","undefined","1","j","0","0","NA","NA","NA","NA","NA","0","0","0","0","0","0","8","8","8","0","0","NA","NA","0","0","0","0","NA","0","0","8","8","8","8","8","Fri Oct 27 14:02:09 2017","Forced-choice identification task with a practice and an experimental phase","yes","NAP_GER_AA_4blocks_noglides.osexp","/Users/aviadalbert/Documents/Academisch/UoC/Dissertation/Experiment/OpenSesame/NAP-FC/NAP_GER_AA_4blocks_noglides","yes","no","sans","no","20","no","black","no","Weiter","yes","768","legacy","8","8","0","/Users/aviadalbert/Documents/Academisch/UoC/Dissertation/Experiment/OpenSesame/NAP-FC/NAP_GER_AA_4blocks_noglides/subject-32.csv","xpyriment","Jazzy James","3.1.9","yes","yes","59a800d99ad5a1025d81bb03","59a801616c613b0251691de0","yes","no","0","j","f","NA","NA","space","space","j","682","21627","NA","NA","15954","12943","682","2","legacy","1024","1","44100","-16","experiment","enval","2","0","0","0","1","Eng French, Dutch","32","","even","1446673","NA","NA","NA","NA","NA","NA","203810","NA","203811","203811","1417488","1433446","1495027","1493523","1495710","1468301","1446669","NA","NA","1353217","1409156","NA","1446447","NA","1446673","NA","1495026","1495027","NA","NA","1493519","NAP perception","7","11407","9","yes","1024"
"80","yes","80","1359.6","1359.6","white","no","xpyriment","Ich habe die obigen Informationen gelesen und verstanden.","legacy","legacy","0","uniform","1","0","NA","undefined","undefined","1","f","0","0","NA","NA","NA","NA","NA","0","0","0","0","0","0","9","9","9","0","0","NA","NA","0","0","0","0","NA","0","0","9","9","9","9","9","Fri Oct 27 14:02:09 2017","Forced-choice identification task with a practice and an experimental phase","yes","NAP_GER_AA_4blocks_noglides.osexp","/Users/aviadalbert/Documents/Academisch/UoC/Dissertation/Experiment/OpenSesame/NAP-FC/NAP_GER_AA_4blocks_noglides","yes","no","sans","no","20","no","black","no","Weiter","yes","768","legacy","9","9","0","/Users/aviadalbert/Documents/Academisch/UoC/Dissertation/Experiment/OpenSesame/NAP-FC/NAP_GER_AA_4blocks_noglides/subject-32.csv","xpyriment","Jazzy James","3.1.9","yes","yes","59a800d99ad5a1025d81bb03","59a801616c613b0251691de0","yes","no","0","f","f","NA","NA","space","space","f","2189","21627","NA","NA","15954","12943","2189","2","legacy","1024","1","44100","-16","experiment","vlal","2","0","0","0","1","Eng French, Dutch","32","","even","1446673","NA","NA","NA","NA","NA","NA","203810","NA","203811","203811","1417488","1433446","1497503","1496000","1499693","1468301","1446669","NA","NA","1353217","1409156","NA","1446447","NA","1446673","NA","1497503","1497503","NA","NA","1495997","NAP perception","8","13596","10","yes","1024"
"0","yes","0","1237","1237","white","no","xpyriment","Ich habe die obigen Informationen gelesen und verstanden.","legacy","legacy","0","uniform","0","0","0","undefined","undefined","0","f","2","1","NA","0","1","0","0","0","0","0","0","0","0","10","10","10","0","0","0","NA","0","0","2","0","0","0","2","10","10","10","10","10","Fri Oct 27 14:02:09 2017","Forced-choice identification task with a practice and an experimental phase","yes","NAP_GER_AA_4blocks_noglides.osexp","/Users/aviadalbert/Documents/Academisch/UoC/Dissertation/Experiment/OpenSesame/NAP-FC/NAP_GER_AA_4blocks_noglides","yes","no","sans","no","20","no","black","no","Weiter","yes","768","legacy","0","9","0","/Users/aviadalbert/Documents/Academisch/UoC/Dissertation/Experiment/OpenSesame/NAP-FC/NAP_GER_AA_4blocks_noglides/subject-32.csv","xpyriment","Jazzy James","3.1.9","yes","yes","59a800d99ad5a1025d81bb03","59a801616c613b0251691de0","no","no","0","j","f","space","NA","space","space","j","1237","19499","2158","NA","15954","12943","1237","2","legacy","1024","1","44100","-16","experiment","npal","2","0","0","0","1","Eng French, Dutch","32","","even","1504101","1501411","NA","NA","1523601","1504098","NA","203810","1503624","203811","203811","1417488","1433446","1525318","1523812","1526556","1468301","1446669","1501411","NA","1353217","1409156","1499754","1446447","1504101","1446673","NA","1525317","1525317","NA","NA","1523808","NAP perception","0","1237","1","yes","1024"
"0","yes","0","1193","1193","white","no","xpyriment","Ich habe die obigen Informationen gelesen und verstanden.","legacy","legacy","0","uniform","0","0","0","undefined","undefined","0","f","2","1","NA","0","1","0","0","0","0","0","0","0","0","11","11","11","0","0","0","NA","0","0","2","0","0","0","2","11","11","11","11","11","Fri Oct 27 14:02:09 2017","Forced-choice identification task with a practice and an experimental phase","yes","NAP_GER_AA_4blocks_noglides.osexp","/Users/aviadalbert/Documents/Academisch/UoC/Dissertation/Experiment/OpenSesame/NAP-FC/NAP_GER_AA_4blocks_noglides","yes","no","sans","no","20","no","black","no","Weiter","yes","768","legacy","1","9","0","/Users/aviadalbert/Documents/Academisch/UoC/Dissertation/Experiment/OpenSesame/NAP-FC/NAP_GER_AA_4blocks_noglides/subject-32.csv","xpyriment","Jazzy James","3.1.9","yes","yes","59a800d99ad5a1025d81bb03","59a801616c613b0251691de0","no","no","0","j","f","space","NA","space","space","j","1149","19499","2158","NA","15954","12943","1149","2","legacy","1024","1","44100","-16","experiment","mnal","2","0","0","0","1","Eng French, Dutch","32","","even","1504101","1501411","NA","NA","1523601","1504098","NA","203810","1503624","203811","203811","1417488","1433446","1528350","1526846","1529500","1468301","1446669","1501411","NA","1353217","1409156","1499754","1446447","1504101","1446673","NA","1528350","1528350","NA","NA","1526842","NAP perception","0","2386","2","yes","1024"
"0","yes","0","1139.33333333","1139.33333333","white","no","xpyriment","Ich habe die obigen Informationen gelesen und verstanden.","legacy","legacy","0","uniform","0","0","0","undefined","undefined","0","f","2","1","NA","0","1","0","0","0","0","0","0","0","0","12","12","12","0","0","0","NA","0","0","2","0","0","0","2","12","12","12","12","12","Fri Oct 27 14:02:09 2017","Forced-choice identification task with a practice and an experimental phase","yes","NAP_GER_AA_4blocks_noglides.osexp","/Users/aviadalbert/Documents/Academisch/UoC/Dissertation/Experiment/OpenSesame/NAP-FC/NAP_GER_AA_4blocks_noglides","yes","no","sans","no","20","no","black","no","Weiter","yes","768","legacy","2","9","0","/Users/aviadalbert/Documents/Academisch/UoC/Dissertation/Experiment/OpenSesame/NAP-FC/NAP_GER_AA_4blocks_noglides/subject-32.csv","xpyriment","Jazzy James","3.1.9","yes","yes","59a800d99ad5a1025d81bb03","59a801616c613b0251691de0","no","no","0","j","f","space","NA","space","space","j","1032","19499","2158","NA","15954","12943","1032","2","legacy","1024","1","44100","-16","experiment","mzal","2","0","0","0","1","Eng French, Dutch","32","","even","1504101","1501411","NA","NA","1523601","1504098","NA","203810","1503624","203811","203811","1417488","1433446","1531276","1529773","1532309","1468301","1446669","1501411","NA","1353217","1409156","1499754","1446447","1504101","1446673","NA","1531276","1531276","NA","NA","1529769","NAP perception","0","3418","3","yes","1024"
"25","yes","25","1236.5","1236.5","white","no","xpyriment","Ich habe die obigen Informationen gelesen und verstanden.","legacy","legacy","0","uniform","1","0","0","undefined","undefined","1","f","2","1","NA","0","1","0","0","0","0","0","0","0","0","13","13","13","0","0","0","NA","0","0","2","0","0","0","2","13","13","13","13","13","Fri Oct 27 14:02:09 2017","Forced-choice identification task with a practice and an experimental phase","yes","NAP_GER_AA_4blocks_noglides.osexp","/Users/aviadalbert/Documents/Academisch/UoC/Dissertation/Experiment/OpenSesame/NAP-FC/NAP_GER_AA_4blocks_noglides","yes","no","sans","no","20","no","black","no","Weiter","yes","768","legacy","3","9","0","/Users/aviadalbert/Documents/Academisch/UoC/Dissertation/Experiment/OpenSesame/NAP-FC/NAP_GER_AA_4blocks_noglides/subject-32.csv","xpyriment","Jazzy James","3.1.9","yes","yes","59a800d99ad5a1025d81bb03","59a801616c613b0251691de0","no","no","0","f","f","space","NA","space","space","f","1528","19499","2158","NA","15954","12943","1528","2","legacy","1024","1","44100","-16","experiment","ʃfal","2","0","0","0","1","Eng French, Dutch","32","","even","1504101","1501411","NA","NA","1523601","1504098","NA","203810","1503624","203811","203811","1417488","1433446","1534101","1532596","1535630","1468301","1446669","1501411","NA","1353217","1409156","1499754","1446447","1504101","1446673","NA","1534101","1534101","NA","NA","1532592","NAP perception","1","4946","4","yes","1024"
"40","yes","40","1193.4","1193.4","white","no","xpyriment","Ich habe die obigen Informationen gelesen und verstanden.","legacy","legacy","0","uniform","1","0","0","undefined","undefined","1","f","2","1","NA","0","1","0","0","0","0","0","0","0","0","14","14","14","0","0","0","NA","0","0","2","0","0","0","2","14","14","14","14","14","Fri Oct 27 14:02:09 2017","Forced-choice identification task with a practice and an experimental phase","yes","NAP_GER_AA_4blocks_noglides.osexp","/Users/aviadalbert/Documents/Academisch/UoC/Dissertation/Experiment/OpenSesame/NAP-FC/NAP_GER_AA_4blocks_noglides","yes","no","sans","no","20","no","black","no","Weiter","yes","768","legacy","4","9","0","/Users/aviadalbert/Documents/Academisch/UoC/Dissertation/Experiment/OpenSesame/NAP-FC/NAP_GER_AA_4blocks_noglides/subject-32.csv","xpyriment","Jazzy James","3.1.9","yes","yes","59a800d99ad5a1025d81bb03","59a801616c613b0251691de0","no","no","0","f","f","space","NA","space","space","f","1021","19499","2158","NA","15954","12943","1021","2","legacy","1024","1","44100","-16","experiment","spal","2","0","0","0","1","Eng French, Dutch","32","","even","1504101","1501411","NA","NA","1523601","1504098","NA","203810","1503624","203811","203811","1417488","1433446","1537416","1535913","1538438","1468301","1446669","1501411","NA","1353217","1409156","1499754","1446447","1504101","1446673","NA","1537416","1537416","NA","NA","1535909","NAP perception","2","5967","5","yes","1024"
"50","yes","50","1135.5","1135.5","white","no","xpyriment","Ich habe die obigen Informationen gelesen und verstanden.","legacy","legacy","0","uniform","1","0","0","undefined","undefined","1","j","2","1","NA","0","1","0","0","0","0","0","0","0","0","15","15","15","0","0","0","NA","0","0","2","0","0","0","2","15","15","15","15","15","Fri Oct 27 14:02:09 2017","Forced-choice identification task with a practice and an experimental phase","yes","NAP_GER_AA_4blocks_noglides.osexp","/Users/aviadalbert/Documents/Academisch/UoC/Dissertation/Experiment/OpenSesame/NAP-FC/NAP_GER_AA_4blocks_noglides","yes","no","sans","no","20","no","black","no","Weiter","yes","768","legacy","5","9","0","/Users/aviadalbert/Documents/Academisch/UoC/Dissertation/Experiment/OpenSesame/NAP-FC/NAP_GER_AA_4blocks_noglides/subject-32.csv","xpyriment","Jazzy James","3.1.9","yes","yes","59a800d99ad5a1025d81bb03","59a801616c613b0251691de0","no","no","0","j","f","space","NA","space","space","j","846","19499","2158","NA","15954","12943","846","2","legacy","1024","1","44100","-16","experiment","efnal","2","0","0","0","1","Eng French, Dutch","32","","even","1504101","1501411","NA","NA","1523601","1504098","NA","203810","1503624","203811","203811","1417488","1433446","1540214","1538708","1541061","1468301","1446669","1501411","NA","1353217","1409156","1499754","1446447","1504101","1446673","NA","1540214","1540214","NA","NA","1538705","NAP perception","3","6813","6","yes","1024"
"57.1428571429","yes","57.1428571429","1078.14285714","1078.14285714","white","no","xpyriment","Ich habe die obigen Informationen gelesen und verstanden.","legacy","legacy","0","uniform","1","0","0","undefined","undefined","1","j","2","1","NA","0","1","0","0","0","0","0","0","0","0","16","16","16","0","0","0","NA","0","0","2","0","0","0","2","16","16","16","16","16","Fri Oct 27 14:02:09 2017","Forced-choice identification task with a practice and an experimental phase","yes","NAP_GER_AA_4blocks_noglides.osexp","/Users/aviadalbert/Documents/Academisch/UoC/Dissertation/Experiment/OpenSesame/NAP-FC/NAP_GER_AA_4blocks_noglides","yes","no","sans","no","20","no","black","no","Weiter","yes","768","legacy","6","9","0","/Users/aviadalbert/Documents/Academisch/UoC/Dissertation/Experiment/OpenSesame/NAP-FC/NAP_GER_AA_4blocks_noglides/subject-32.csv","xpyriment","Jazzy James","3.1.9","yes","yes","59a800d99ad5a1025d81bb03","59a801616c613b0251691de0","no","no","0","j","f","space","NA","space","space","j","734","19499","2158","NA","15954","12943","734","2","legacy","1024","1","44100","-16","experiment","eʃfal","2","0","0","0","1","Eng French, Dutch","32","","even","1504101","1501411","NA","NA","1523601","1504098","NA","203810","1503624","203811","203811","1417488","1433446","1542843","1541340","1543578","1468301","1446669","1501411","NA","1353217","1409156","1499754","1446447","1504101","1446673","NA","1542843","1542843","NA","NA","1541336","NAP perception","4","7547","7","yes","1024"
"50","yes","50","1097.125","1097.125","white","no","xpyriment","Ich habe die obigen Informationen gelesen und verstanden.","legacy","legacy","0","uniform","0","0","0","undefined","undefined","0","f","2","1","NA","0","1","0","0","0","0","0","0","0","0","17","17","17","0","0","0","NA","0","0","2","0","0","0","2","17","17","17","17","17","Fri Oct 27 14:02:09 2017","Forced-choice identification task with a practice and an experimental phase","yes","NAP_GER_AA_4blocks_noglides.osexp","/Users/aviadalbert/Documents/Academisch/UoC/Dissertation/Experiment/OpenSesame/NAP-FC/NAP_GER_AA_4blocks_noglides","yes","no","sans","no","20","no","black","no","Weiter","yes","768","legacy","7","9","0","/Users/aviadalbert/Documents/Academisch/UoC/Dissertation/Experiment/OpenSesame/NAP-FC/NAP_GER_AA_4blocks_noglides/subject-32.csv","xpyriment","Jazzy James","3.1.9","yes","yes","59a800d99ad5a1025d81bb03","59a801616c613b0251691de0","no","no","0","j","f","space","NA","space","space","j","1230","19499","2158","NA","15954","12943","1230","2","legacy","1024","1","44100","-16","experiment","lpal","2","0","0","0","1","Eng French, Dutch","32","","even","1504101","1501411","NA","NA","1523601","1504098","NA","203810","1503624","203811","203811","1417488","1433446","1545370","1543863","1546602","1468301","1446669","1501411","NA","1353217","1409156","1499754","1446447","1504101","1446673","NA","1545369","1545369","NA","NA","1543859","NAP perception","4","8777","8","yes","1024"
"44.4444444444","yes","44.4444444444","1064.11111111","1064.11111111","white","no","xpyriment","Ich habe die obigen Informationen gelesen und verstanden.","legacy","legacy","0","uniform","0","0","0","undefined","undefined","0","f","2","1","NA","0","1","0","0","0","0","0","0","0","0","18","18","18","0","0","0","NA","0","0","2","0","0","0","2","18","18","18","18","18","Fri Oct 27 14:02:09 2017","Forced-choice identification task with a practice and an experimental phase","yes","NAP_GER_AA_4blocks_noglides.osexp","/Users/aviadalbert/Documents/Academisch/UoC/Dissertation/Experiment/OpenSesame/NAP-FC/NAP_GER_AA_4blocks_noglides","yes","no","sans","no","20","no","black","no","Weiter","yes","768","legacy","8","9","0","/Users/aviadalbert/Documents/Academisch/UoC/Dissertation/Experiment/OpenSesame/NAP-FC/NAP_GER_AA_4blocks_noglides/subject-32.csv","xpyriment","Jazzy James","3.1.9","yes","yes","59a800d99ad5a1025d81bb03","59a801616c613b0251691de0","no","no","0","j","f","space","NA","space","space","j","800","19499","2158","NA","15954","12943","800","2","legacy","1024","1","44100","-16","experiment","vzal","2","0","0","0","1","Eng French, Dutch","32","","even","1504101","1501411","NA","NA","1523601","1504098","NA","203810","1503624","203811","203811","1417488","1433446","1548388","1546885","1549190","1468301","1446669","1501411","NA","1353217","1409156","1499754","1446447","1504101","1446673","NA","1548388","1548388","NA","NA","1546881","NAP perception","4","9577","9","yes","1024"
"50","yes","50","1028.5","1028.5","white","no","xpyriment","Ich habe die obigen Informationen gelesen und verstanden.","legacy","legacy","0","uniform","1","0","0","undefined","undefined","1","j","2","1","NA","0","1","0","0","0","0","0","0","0","0","19","19","19","0","0","0","NA","0","0","2","0","0","0","2","19","19","19","19","19","Fri Oct 27 14:02:09 2017","Forced-choice identification task with a practice and an experimental phase","yes","NAP_GER_AA_4blocks_noglides.osexp","/Users/aviadalbert/Documents/Academisch/UoC/Dissertation/Experiment/OpenSesame/NAP-FC/NAP_GER_AA_4blocks_noglides","yes","no","sans","no","20","no","black","no","Weiter","yes","768","legacy","9","9","0","/Users/aviadalbert/Documents/Academisch/UoC/Dissertation/Experiment/OpenSesame/NAP-FC/NAP_GER_AA_4blocks_noglides/subject-32.csv","xpyriment","Jazzy James","3.1.9","yes","yes","59a800d99ad5a1025d81bb03","59a801616c613b0251691de0","no","no","0","j","f","space","NA","space","space","j","708","19499","2158","NA","15954","12943","708","2","legacy","1024","1","44100","-16","experiment","neval","2","0","0","0","1","Eng French, Dutch","32","","even","1504101","1501411","NA","NA","1523601","1504098","NA","203810","1503624","203811","203811","1417488","1433446","1550972","1549464","1551682","1468301","1446669","1501411","NA","1353217","1409156","1499754","1446447","1504101","1446673","NA","1550972","1550972","NA","NA","1549460","NAP perception","5","10285","10","yes","1024"
"54.5454545455","yes","54.5454545455","1000.90909091","1000.90909091","white","no","xpyriment","Ich habe die obigen Informationen gelesen und verstanden.","legacy","legacy","0","uniform","1","0","0","undefined","undefined","1","j","2","1","NA","0","1","0","0","0","0","0","0","0","0","20","20","20","0","0","0","NA","0","0","2","0","0","0","2","20","20","20","20","20","Fri Oct 27 14:02:09 2017","Forced-choice identification task with a practice and an experimental phase","yes","NAP_GER_AA_4blocks_noglides.osexp","/Users/aviadalbert/Documents/Academisch/UoC/Dissertation/Experiment/OpenSesame/NAP-FC/NAP_GER_AA_4blocks_noglides","yes","no","sans","no","20","no","black","no","Weiter","yes","768","legacy","10","9","0","/Users/aviadalbert/Documents/Academisch/UoC/Dissertation/Experiment/OpenSesame/NAP-FC/NAP_GER_AA_4blocks_noglides/subject-32.csv","xpyriment","Jazzy James","3.1.9","yes","yes","59a800d99ad5a1025d81bb03","59a801616c613b0251691de0","no","no","0","j","f","space","NA","space","space","j","725","19499","2158","NA","15954","12943","725","2","legacy","1024","1","44100","-16","experiment","melal","2","0","0","0","1","Eng French, Dutch","32","","even","1504101","1501411","NA","NA","1523601","1504098","NA","203810","1503624","203811","203811","1417488","1433446","1553455","1551952","1554181","1468301","1446669","1501411","NA","1353217","1409156","1499754","1446447","1504101","1446673","NA","1553455","1553455","NA","NA","1551948","NAP perception","6","11010","11","yes","1024"
"50","yes","50","989.666666667","989.666666667","white","no","xpyriment","Ich habe die obigen Informationen gelesen und verstanden.","legacy","legacy","0","uniform","0","0","0","undefined","undefined","0","f","2","1","NA","0","1","0","0","0","0","0","0","0","0","21","21","21","0","0","0","NA","0","0","2","0","0","0","2","21","21","21","21","21","Fri Oct 27 14:02:09 2017","Forced-choice identification task with a practice and an experimental phase","yes","NAP_GER_AA_4blocks_noglides.osexp","/Users/aviadalbert/Documents/Academisch/UoC/Dissertation/Experiment/OpenSesame/NAP-FC/NAP_GER_AA_4blocks_noglides","yes","no","sans","no","20","no","black","no","Weiter","yes","768","legacy","11","9","0","/Users/aviadalbert/Documents/Academisch/UoC/Dissertation/Experiment/OpenSesame/NAP-FC/NAP_GER_AA_4blocks_noglides/subject-32.csv","xpyriment","Jazzy James","3.1.9","yes","yes","59a800d99ad5a1025d81bb03","59a801616c613b0251691de0","no","no","0","j","f","space","NA","space","space","j","866","19499","2158","NA","15954","12943","866","2","legacy","1024","1","44100","-16","experiment","mzal","2","0","0","0","1","Eng French, Dutch","32","","even","1504101","1501411","NA","NA","1523601","1504098","NA","203810","1503624","203811","203811","1417488","1433446","1555972","1554465","1556839","1468301","1446669","1501411","NA","1353217","1409156","1499754","1446447","1504101","1446673","NA","1555971","1555971","NA","NA","1554461","NAP perception","6","11876","12","yes","1024"
"46.1538461538","yes","46.1538461538","1000","1000","white","no","xpyriment","Ich habe die obigen Informationen gelesen und verstanden.","legacy","legacy","0","uniform","0","0","0","undefined","undefined","0","f","2","1","NA","0","1","0","0","0","0","0","0","0","0","22","22","22","0","0","0","NA","0","0","2","0","0","0","2","22","22","22","22","22","Fri Oct 27 14:02:09 2017","Forced-choice identification task with a practice and an experimental phase","yes","NAP_GER_AA_4blocks_noglides.osexp","/Users/aviadalbert/Documents/Academisch/UoC/Dissertation/Experiment/OpenSesame/NAP-FC/NAP_GER_AA_4blocks_noglides","yes","no","sans","no","20","no","black","no","Weiter","yes","768","legacy","12","9","0","/Users/aviadalbert/Documents/Academisch/UoC/Dissertation/Experiment/OpenSesame/NAP-FC/NAP_GER_AA_4blocks_noglides/subject-32.csv","xpyriment","Jazzy James","3.1.9","yes","yes","59a800d99ad5a1025d81bb03","59a801616c613b0251691de0","no","no","0","j","f","space","NA","space","space","j","1124","19499","2158","NA","15954","12943","1124","2","legacy","1024","1","44100","-16","experiment","zmal","2","0","0","0","1","Eng French, Dutch","32","","even","1504101","1501411","NA","NA","1523601","1504098","NA","203810","1503624","203811","203811","1417488","1433446","1558609","1557106","1559734","1468301","1446669","1501411","NA","1353217","1409156","1499754","1446447","1504101","1446673","NA","1558609","1558609","NA","NA","1557102","NAP perception","6","13000","13","yes","1024"
"50","yes","50","984","984","white","no","xpyriment","Ich habe die obigen Informationen gelesen und verstanden.","legacy","legacy","0","uniform","1","0","0","undefined","undefined","1","j","2","1","NA","0","1","0","0","0","0","0","0","0","0","23","23","23","0","0","0","NA","0","0","2","0","0","0","2","23","23","23","23","23","Fri Oct 27 14:02:09 2017","Forced-choice identification task with a practice and an experimental phase","yes","NAP_GER_AA_4blocks_noglides.osexp","/Users/aviadalbert/Documents/Academisch/UoC/Dissertation/Experiment/OpenSesame/NAP-FC/NAP_GER_AA_4blocks_noglides","yes","no","sans","no","20","no","black","no","Weiter","yes","768","legacy","13","9","0","/Users/aviadalbert/Documents/Academisch/UoC/Dissertation/Experiment/OpenSesame/NAP-FC/NAP_GER_AA_4blocks_noglides/subject-32.csv","xpyriment","Jazzy James","3.1.9","yes","yes","59a800d99ad5a1025d81bb03","59a801616c613b0251691de0","no","no","0","j","f","space","NA","space","space","j","776","19499","2158","NA","15954","12943","776","2","legacy","1024","1","44100","-16","experiment","enfal","2","0","0","0","1","Eng French, Dutch","32","","even","1504101","1501411","NA","NA","1523601","1504098","NA","203810","1503624","203811","203811","1417488","1433446","1561513","1560010","1562290","1468301","1446669","1501411","NA","1353217","1409156","1499754","1446447","1504101","1446673","NA","1561513","1561513","NA","NA","1560006","NAP perception","7","13776","14","yes","1024"
"53.3333333333","yes","53.3333333333","982.333333333","982.333333333","white","no","xpyriment","Ich habe die obigen Informationen gelesen und verstanden.","legacy","legacy","0","uniform","1","0","0","undefined","undefined","1","j","2","1","NA","0","1","0","0","0","0","0","0","0","0","24","24","24","0","0","0","NA","0","0","2","0","0","0","2","24","24","24","24","24","Fri Oct 27 14:02:09 2017","Forced-choice identification task with a practice and an experimental phase","yes","NAP_GER_AA_4blocks_noglides.osexp","/Users/aviadalbert/Documents/Academisch/UoC/Dissertation/Experiment/OpenSesame/NAP-FC/NAP_GER_AA_4blocks_noglides","yes","no","sans","no","20","no","black","no","Weiter","yes","768","legacy","14","9","0","/Users/aviadalbert/Documents/Academisch/UoC/Dissertation/Experiment/OpenSesame/NAP-FC/NAP_GER_AA_4blocks_noglides/subject-32.csv","xpyriment","Jazzy James","3.1.9","yes","yes","59a800d99ad5a1025d81bb03","59a801616c613b0251691de0","no","no","0","j","f","space","NA","space","space","j","959","19499","2158","NA","15954","12943","959","2","legacy","1024","1","44100","-16","experiment","felal","2","0","0","0","1","Eng French, Dutch","32","","even","1504101","1501411","NA","NA","1523601","1504098","NA","203810","1503624","203811","203811","1417488","1433446","1564073","1562569","1565033","1468301","1446669","1501411","NA","1353217","1409156","1499754","1446447","1504101","1446673","NA","1564073","1564073","NA","NA","1562565","NAP perception","8","14735","15","yes","1024"
"56.25","yes","56.25","968.75","968.75","white","no","xpyriment","Ich habe die obigen Informationen gelesen und verstanden.","legacy","legacy","0","uniform","1","0","0","undefined","undefined","1","j","2","1","NA","0","1","0","0","0","0","0","0","0","0","25","25","25","0","0","0","NA","0","0","2","0","0","0","2","25","25","25","25","25","Fri Oct 27 14:02:09 2017","Forced-choice identification task with a practice and an experimental phase","yes","NAP_GER_AA_4blocks_noglides.osexp","/Users/aviadalbert/Documents/Academisch/UoC/Dissertation/Experiment/OpenSesame/NAP-FC/NAP_GER_AA_4blocks_noglides","yes","no","sans","no","20","no","black","no","Weiter","yes","768","legacy","15","9","0","/Users/aviadalbert/Documents/Academisch/UoC/Dissertation/Experiment/OpenSesame/NAP-FC/NAP_GER_AA_4blocks_noglides/subject-32.csv","xpyriment","Jazzy James","3.1.9","yes","yes","59a800d99ad5a1025d81bb03","59a801616c613b0251691de0","no","no","0","j","f","space","NA","space","space","j","765","19499","2158","NA","15954","12943","765","2","legacy","1024","1","44100","-16","experiment","mesal","2","0","0","0","1","Eng French, Dutch","32","","even","1504101","1501411","NA","NA","1523601","1504098","NA","203810","1503624","203811","203811","1417488","1433446","1566806","1565299","1567572","1468301","1446669","1501411","NA","1353217","1409156","1499754","1446447","1504101","1446673","NA","1566806","1566806","NA","NA","1565295","NAP perception","9","15500","16","yes","1024"
"58.8235294118","yes","58.8235294118","963.470588235","963.470588235","white","no","xpyriment","Ich habe die obigen Informationen gelesen und verstanden.","legacy","legacy","0","uniform","1","0","0","undefined","undefined","1","j","2","1","NA","0","1","0","0","0","0","0","0","0","0","26","26","26","0","0","0","NA","0","0","2","0","0","0","2","26","26","26","26","26","Fri Oct 27 14:02:09 2017","Forced-choice identification task with a practice and an experimental phase","yes","NAP_GER_AA_4blocks_noglides.osexp","/Users/aviadalbert/Documents/Academisch/UoC/Dissertation/Experiment/OpenSesame/NAP-FC/NAP_GER_AA_4blocks_noglides","yes","no","sans","no","20","no","black","no","Weiter","yes","768","legacy","16","9","0","/Users/aviadalbert/Documents/Academisch/UoC/Dissertation/Experiment/OpenSesame/NAP-FC/NAP_GER_AA_4blocks_noglides/subject-32.csv","xpyriment","Jazzy James","3.1.9","yes","yes","59a800d99ad5a1025d81bb03","59a801616c613b0251691de0","no","no","0","j","f","space","NA","space","space","j","879","19499","2158","NA","15954","12943","879","2","legacy","1024","1","44100","-16","experiment","esfal","2","0","0","0","1","Eng French, Dutch","32","","even","1504101","1501411","NA","NA","1523601","1504098","NA","203810","1503624","203811","203811","1417488","1433446","1569347","1567844","1570227","1468301","1446669","1501411","NA","1353217","1409156","1499754","1446447","1504101","1446673","NA","1569347","1569347","NA","NA","1567840","NAP perception","10","16379","17","yes","1024"
"55.5555555556","yes","55.5555555556","958.833333333","958.833333333","white","no","xpyriment","Ich habe die obigen Informationen gelesen und verstanden.","legacy","legacy","0","uniform","0","0","0","undefined","undefined","0","f","2","1","NA","0","1","0","0","0","0","0","0","0","0","27","27","27","0","0","0","NA","0","0","2","0","0","0","2","27","27","27","27","27","Fri Oct 27 14:02:09 2017","Forced-choice identification task with a practice and an experimental phase","yes","NAP_GER_AA_4blocks_noglides.osexp","/Users/aviadalbert/Documents/Academisch/UoC/Dissertation/Experiment/OpenSesame/NAP-FC/NAP_GER_AA_4blocks_noglides","yes","no","sans","no","20","no","black","no","Weiter","yes","768","legacy","17","9","0","/Users/aviadalbert/Documents/Academisch/UoC/Dissertation/Experiment/OpenSesame/NAP-FC/NAP_GER_AA_4blocks_noglides/subject-32.csv","xpyriment","Jazzy James","3.1.9","yes","yes","59a800d99ad5a1025d81bb03","59a801616c613b0251691de0","no","no","0","j","f","space","NA","space","space","j","880","19499","2158","NA","15954","12943","880","2","legacy","1024","1","44100","-16","experiment","mlal","2","0","0","0","1","Eng French, Dutch","32","","even","1504101","1501411","NA","NA","1523601","1504098","NA","203810","1503624","203811","203811","1417488","1433446","1572008","1570505","1572889","1468301","1446669","1501411","NA","1353217","1409156","1499754","1446447","1504101","1446673","NA","1572008","1572008","NA","NA","1570501","NAP perception","10","17259","18","yes","1024"
"52.6315789474","yes","52.6315789474","954.947368421","954.947368421","white","no","xpyriment","Ich habe die obigen Informationen gelesen und verstanden.","legacy","legacy","0","uniform","0","0","0","undefined","undefined","0","f","2","1","NA","0","1","0","0","0","0","0","0","0","0","28","28","28","0","0","0","NA","0","0","2","0","0","0","2","28","28","28","28","28","Fri Oct 27 14:02:09 2017","Forced-choice identification task with a practice and an experimental phase","yes","NAP_GER_AA_4blocks_noglides.osexp","/Users/aviadalbert/Documents/Academisch/UoC/Dissertation/Experiment/OpenSesame/NAP-FC/NAP_GER_AA_4blocks_noglides","yes","no","sans","no","20","no","black","no","Weiter","yes","768","legacy","18","9","0","/Users/aviadalbert/Documents/Academisch/UoC/Dissertation/Experiment/OpenSesame/NAP-FC/NAP_GER_AA_4blocks_noglides/subject-32.csv","xpyriment","Jazzy James","3.1.9","yes","yes","59a800d99ad5a1025d81bb03","59a801616c613b0251691de0","no","no","0","j","f","space","NA","space","space","j","885","19499","2158","NA","15954","12943","885","2","legacy","1024","1","44100","-16","experiment","zval","2","0","0","0","1","Eng French, Dutch","32","","even","1504101","1501411","NA","NA","1523601","1504098","NA","203810","1503624","203811","203811","1417488","1433446","1574688","1573183","1575574","1468301","1446669","1501411","NA","1353217","1409156","1499754","1446447","1504101","1446673","NA","1574687","1574688","NA","NA","1573179","NAP perception","10","18144","19","yes","1024"
"55","yes","55","950.1","950.1","white","no","xpyriment","Ich habe die obigen Informationen gelesen und verstanden.","legacy","legacy","0","uniform","1","0","0","undefined","undefined","1","j","2","1","NA","0","1","0","0","0","0","0","0","0","0","29","29","29","0","0","0","NA","0","0","2","0","0","0","2","29","29","29","29","29","Fri Oct 27 14:02:09 2017","Forced-choice identification task with a practice and an experimental phase","yes","NAP_GER_AA_4blocks_noglides.osexp","/Users/aviadalbert/Documents/Academisch/UoC/Dissertation/Experiment/OpenSesame/NAP-FC/NAP_GER_AA_4blocks_noglides","yes","no","sans","no","20","no","black","no","Weiter","yes","768","legacy","19","9","0","/Users/aviadalbert/Documents/Academisch/UoC/Dissertation/Experiment/OpenSesame/NAP-FC/NAP_GER_AA_4blocks_noglides/subject-32.csv","xpyriment","Jazzy James","3.1.9","yes","yes","59a800d99ad5a1025d81bb03","59a801616c613b0251691de0","no","no","0","j","f","space","NA","space","space","j","858","19499","2158","NA","15954","12943","858","2","legacy","1024","1","44100","-16","experiment","elkal","2","0","0","0","1","Eng French, Dutch","32","","even","1504101","1501411","NA","NA","1523601","1504098","NA","203810","1503624","203811","203811","1417488","1433446","1577352","1575845","1578211","1468301","1446669","1501411","NA","1353217","1409156","1499754","1446447","1504101","1446673","NA","1577352","1577352","NA","NA","1575841","NAP perception","11","19002","20","yes","1024"
"57.1428571429","yes","57.1428571429","962.476190476","962.476190476","white","no","xpyriment","Ich habe die obigen Informationen gelesen und verstanden.","legacy","legacy","0","uniform","1","0","0","undefined","undefined","1","f","2","1","NA","0","1","0","0","0","0","0","0","0","0","30","30","30","0","0","0","NA","0","0","2","0","0","0","2","30","30","30","30","30","Fri Oct 27 14:02:09 2017","Forced-choice identification task with a practice and an experimental phase","yes","NAP_GER_AA_4blocks_noglides.osexp","/Users/aviadalbert/Documents/Academisch/UoC/Dissertation/Experiment/OpenSesame/NAP-FC/NAP_GER_AA_4blocks_noglides","yes","no","sans","no","20","no","black","no","Weiter","yes","768","legacy","20","9","0","/Users/aviadalbert/Documents/Academisch/UoC/Dissertation/Experiment/OpenSesame/NAP-FC/NAP_GER_AA_4blocks_noglides/subject-32.csv","xpyriment","Jazzy James","3.1.9","yes","yes","59a800d99ad5a1025d81bb03","59a801616c613b0251691de0","no","no","0","f","f","space","NA","space","space","f","1210","19499","2158","NA","15954","12943","1210","2","legacy","1024","1","44100","-16","experiment","fsal","2","0","0","0","1","Eng French, Dutch","32","","even","1504101","1501411","NA","NA","1523601","1504098","NA","203810","1503624","203811","203811","1417488","1433446","1580002","1578496","1581213","1468301","1446669","1501411","NA","1353217","1409156","1499754","1446447","1504101","1446673","NA","1580001","1580002","NA","NA","1578492","NAP perception","12","20212","21","yes","1024"
"59.0909090909","yes","59.0909090909","953.136363636","953.136363636","white","no","xpyriment","Ich habe die obigen Informationen gelesen und verstanden.","legacy","legacy","0","uniform","1","0","0","undefined","undefined","1","j","2","1","NA","0","1","0","0","0","0","0","0","0","0","31","31","31","0","0","0","NA","0","0","2","0","0","0","2","31","31","31","31","31","Fri Oct 27 14:02:09 2017","Forced-choice identification task with a practice and an experimental phase","yes","NAP_GER_AA_4blocks_noglides.osexp","/Users/aviadalbert/Documents/Academisch/UoC/Dissertation/Experiment/OpenSesame/NAP-FC/NAP_GER_AA_4blocks_noglides","yes","no","sans","no","20","no","black","no","Weiter","yes","768","legacy","21","9","0","/Users/aviadalbert/Documents/Academisch/UoC/Dissertation/Experiment/OpenSesame/NAP-FC/NAP_GER_AA_4blocks_noglides/subject-32.csv","xpyriment","Jazzy James","3.1.9","yes","yes","59a800d99ad5a1025d81bb03","59a801616c613b0251691de0","no","no","0","j","f","space","NA","space","space","j","757","19499","2158","NA","15954","12943","757","2","legacy","1024","1","44100","-16","experiment","esmal","2","0","0","0","1","Eng French, Dutch","32","","even","1504101","1501411","NA","NA","1523601","1504098","NA","203810","1503624","203811","203811","1417488","1433446","1582991","1581486","1583749","1468301","1446669","1501411","NA","1353217","1409156","1499754","1446447","1504101","1446673","NA","1582991","1582991","NA","NA","1581482","NAP perception","13","20969","22","yes","1024"
"56.5217391304","yes","56.5217391304","951.565217391","951.565217391","white","no","xpyriment","Ich habe die obigen Informationen gelesen und verstanden.","legacy","legacy","0","uniform","0","0","0","undefined","undefined","0","f","2","1","NA","0","1","0","0","0","0","0","0","0","0","32","32","32","0","0","0","NA","0","0","2","0","0","0","2","32","32","32","32","32","Fri Oct 27 14:02:09 2017","Forced-choice identification task with a practice and an experimental phase","yes","NAP_GER_AA_4blocks_noglides.osexp","/Users/aviadalbert/Documents/Academisch/UoC/Dissertation/Experiment/OpenSesame/NAP-FC/NAP_GER_AA_4blocks_noglides","yes","no","sans","no","20","no","black","no","Weiter","yes","768","legacy","22","9","0","/Users/aviadalbert/Documents/Academisch/UoC/Dissertation/Experiment/OpenSesame/NAP-FC/NAP_GER_AA_4blocks_noglides/subject-32.csv","xpyriment","Jazzy James","3.1.9","yes","yes","59a800d99ad5a1025d81bb03","59a801616c613b0251691de0","no","no","0","j","f","space","NA","space","space","j","917","19499","2158","NA","15954","12943","917","2","legacy","1024","1","44100","-16","experiment","vlal","2","0","0","0","1","Eng French, Dutch","32","","even","1504101","1501411","NA","NA","1523601","1504098","NA","203810","1503624","203811","203811","1417488","1433446","1585533","1584030","1586452","1468301","1446669","1501411","NA","1353217","1409156","1499754","1446447","1504101","1446673","NA","1585533","1585533","NA","NA","1584026","NAP perception","13","21886","23","yes","1024"
"58.3333333333","yes","58.3333333333","949.708333333","949.708333333","white","no","xpyriment","Ich habe die obigen Informationen gelesen und verstanden.","legacy","legacy","0","uniform","1","0","0","undefined","undefined","1","j","2","1","NA","0","1","0","0","0","0","0","0","0","0","33","33","33","0","0","0","NA","0","0","2","0","0","0","2","33","33","33","33","33","Fri Oct 27 14:02:09 2017","Forced-choice identification task with a practice and an experimental phase","yes","NAP_GER_AA_4blocks_noglides.osexp","/Users/aviadalbert/Documents/Academisch/UoC/Dissertation/Experiment/OpenSesame/NAP-FC/NAP_GER_AA_4blocks_noglides","yes","no","sans","no","20","no","black","no","Weiter","yes","768","legacy","23","9","0","/Users/aviadalbert/Documents/Academisch/UoC/Dissertation/Experiment/OpenSesame/NAP-FC/NAP_GER_AA_4blocks_noglides/subject-32.csv","xpyriment","Jazzy James","3.1.9","yes","yes","59a800d99ad5a1025d81bb03","59a801616c613b0251691de0","no","no","0","j","f","space","NA","space","space","j","907","19499","2158","NA","15954","12943","907","2","legacy","1024","1","44100","-16","experiment","zemal","2","0","0","0","1","Eng French, Dutch","32","","even","1504101","1501411","NA","NA","1523601","1504098","NA","203810","1503624","203811","203811","1417488","1433446","1588217","1586713","1589126","1468301","1446669","1501411","NA","1353217","1409156","1499754","1446447","1504101","1446673","NA","1588217","1588217","NA","NA","1586709","NAP perception","14","22793","24","yes","1024"
"60","yes","60","944.4","944.4","white","no","xpyriment","Ich habe die obigen Informationen gelesen und verstanden.","legacy","legacy","0","uniform","1","0","0","undefined","undefined","1","j","2","1","NA","0","1","0","0","0","0","0","0","0","0","34","34","34","0","0","0","NA","0","0","2","0","0","0","2","34","34","34","34","34","Fri Oct 27 14:02:09 2017","Forced-choice identification task with a practice and an experimental phase","yes","NAP_GER_AA_4blocks_noglides.osexp","/Users/aviadalbert/Documents/Academisch/UoC/Dissertation/Experiment/OpenSesame/NAP-FC/NAP_GER_AA_4blocks_noglides","yes","no","sans","no","20","no","black","no","Weiter","yes","768","legacy","24","9","0","/Users/aviadalbert/Documents/Academisch/UoC/Dissertation/Experiment/OpenSesame/NAP-FC/NAP_GER_AA_4blocks_noglides/subject-32.csv","xpyriment","Jazzy James","3.1.9","yes","yes","59a800d99ad5a1025d81bb03","59a801616c613b0251691de0","no","no","0","j","f","space","NA","space","space","j","817","19499","2158","NA","15954","12943","817","2","legacy","1024","1","44100","-16","experiment","enval","2","0","0","0","1","Eng French, Dutch","32","","even","1504101","1501411","NA","NA","1523601","1504098","NA","203810","1503624","203811","203811","1417488","1433446","1590915","1589412","1591733","1468301","1446669","1501411","NA","1353217","1409156","1499754","1446447","1504101","1446673","NA","1590915","1590915","NA","NA","1589408","NAP perception","15","23610","25","yes","1024"
"61.5384615385","yes","61.5384615385","943.615384615","943.615384615","white","no","xpyriment","Ich habe die obigen Informationen gelesen und verstanden.","legacy","legacy","0","uniform","1","0","0","undefined","undefined","1","j","2","1","NA","0","1","0","0","0","0","0","0","0","0","35","35","35","0","0","0","NA","0","0","2","0","0","0","2","35","35","35","35","35","Fri Oct 27 14:02:09 2017","Forced-choice identification task with a practice and an experimental phase","yes","NAP_GER_AA_4blocks_noglides.osexp","/Users/aviadalbert/Documents/Academisch/UoC/Dissertation/Experiment/OpenSesame/NAP-FC/NAP_GER_AA_4blocks_noglides","yes","no","sans","no","20","no","black","no","Weiter","yes","768","legacy","25","9","0","/Users/aviadalbert/Documents/Academisch/UoC/Dissertation/Experiment/OpenSesame/NAP-FC/NAP_GER_AA_4blocks_noglides/subject-32.csv","xpyriment","Jazzy James","3.1.9","yes","yes","59a800d99ad5a1025d81bb03","59a801616c613b0251691de0","no","no","0","j","f","space","NA","space","space","j","924","19499","2158","NA","15954","12943","924","2","legacy","1024","1","44100","-16","experiment","velal","2","0","0","0","1","Eng French, Dutch","32","","even","1504101","1501411","NA","NA","1523601","1504098","NA","203810","1503624","203811","203811","1417488","1433446","1593513","1592007","1594440","1468301","1446669","1501411","NA","1353217","1409156","1499754","1446447","1504101","1446673","NA","1593513","1593513","NA","NA","1592003","NAP perception","16","24534","26","yes","1024"
"59.2592592593","yes","59.2592592593","954.703703704","954.703703704","white","no","xpyriment","Ich habe die obigen Informationen gelesen und verstanden.","legacy","legacy","0","uniform","0","0","0","undefined","undefined","0","f","2","1","NA","0","1","0","0","0","0","0","0","0","0","36","36","36","0","0","0","NA","0","0","2","0","0","0","2","36","36","36","36","36","Fri Oct 27 14:02:09 2017","Forced-choice identification task with a practice and an experimental phase","yes","NAP_GER_AA_4blocks_noglides.osexp","/Users/aviadalbert/Documents/Academisch/UoC/Dissertation/Experiment/OpenSesame/NAP-FC/NAP_GER_AA_4blocks_noglides","yes","no","sans","no","20","no","black","no","Weiter","yes","768","legacy","26","9","0","/Users/aviadalbert/Documents/Academisch/UoC/Dissertation/Experiment/OpenSesame/NAP-FC/NAP_GER_AA_4blocks_noglides/subject-32.csv","xpyriment","Jazzy James","3.1.9","yes","yes","59a800d99ad5a1025d81bb03","59a801616c613b0251691de0","no","no","0","j","f","space","NA","space","space","j","1243","19499","2158","NA","15954","12943","1243","2","legacy","1024","1","44100","-16","experiment","lkal","2","0","0","0","1","Eng French, Dutch","32","","even","1504101","1501411","NA","NA","1523601","1504098","NA","203810","1503624","203811","203811","1417488","1433446","1596221","1594714","1597465","1468301","1446669","1501411","NA","1353217","1409156","1499754","1446447","1504101","1446673","NA","1596221","1596221","NA","NA","1594710","NAP perception","16","25777","27","yes","1024"
"60.7142857143","yes","60.7142857143","961.071428571","961.071428571","white","no","xpyriment","Ich habe die obigen Informationen gelesen und verstanden.","legacy","legacy","0","uniform","1","0","0","undefined","undefined","1","f","2","1","NA","0","1","0","0","0","0","0","0","0","0","37","37","37","0","0","0","NA","0","0","2","0","0","0","2","37","37","37","37","37","Fri Oct 27 14:02:09 2017","Forced-choice identification task with a practice and an experimental phase","yes","NAP_GER_AA_4blocks_noglides.osexp","/Users/aviadalbert/Documents/Academisch/UoC/Dissertation/Experiment/OpenSesame/NAP-FC/NAP_GER_AA_4blocks_noglides","yes","no","sans","no","20","no","black","no","Weiter","yes","768","legacy","27","9","0","/Users/aviadalbert/Documents/Academisch/UoC/Dissertation/Experiment/OpenSesame/NAP-FC/NAP_GER_AA_4blocks_noglides/subject-32.csv","xpyriment","Jazzy James","3.1.9","yes","yes","59a800d99ad5a1025d81bb03","59a801616c613b0251691de0","no","no","0","f","f","space","NA","space","space","f","1133","19499","2158","NA","15954","12943","1133","2","legacy","1024","1","44100","-16","experiment","flal","2","0","0","0","1","Eng French, Dutch","32","","even","1504101","1501411","NA","NA","1523601","1504098","NA","203810","1503624","203811","203811","1417488","1433446","1599245","1597741","1600379","1468301","1446669","1501411","NA","1353217","1409156","1499754","1446447","1504101","1446673","NA","1599244","1599245","NA","NA","1597737","NAP perception","17","26910","28","yes","1024"
"58.6206896552","yes","58.6206896552","962.448275862","962.448275862","white","no","xpyriment","Ich habe die obigen Informationen gelesen und verstanden.","legacy","legacy","0","uniform","0","0","0","undefined","undefined","0","f","2","1","NA","0","1","0","0","0","0","0","0","0","0","38","38","38","0","0","0","NA","0","0","2","0","0","0","2","38","38","38","38","38","Fri Oct 27 14:02:09 2017","Forced-choice identification task with a practice and an experimental phase","yes","NAP_GER_AA_4blocks_noglides.osexp","/Users/aviadalbert/Documents/Academisch/UoC/Dissertation/Experiment/OpenSesame/NAP-FC/NAP_GER_AA_4blocks_noglides","yes","no","sans","no","20","no","black","no","Weiter","yes","768","legacy","28","9","0","/Users/aviadalbert/Documents/Academisch/UoC/Dissertation/Experiment/OpenSesame/NAP-FC/NAP_GER_AA_4blocks_noglides/subject-32.csv","xpyriment","Jazzy James","3.1.9","yes","yes","59a800d99ad5a1025d81bb03","59a801616c613b0251691de0","no","no","0","j","f","space","NA","space","space","j","1001","19499","2158","NA","15954","12943","1001","2","legacy","1024","1","44100","-16","experiment","lval","2","0","0","0","1","Eng French, Dutch","32","","even","1504101","1501411","NA","NA","1523601","1504098","NA","203810","1503624","203811","203811","1417488","1433446","1602167","1600660","1603170","1468301","1446669","1501411","NA","1353217","1409156","1499754","1446447","1504101","1446673","NA","1602167","1602167","NA","NA","1600656","NAP perception","17","27911","29","yes","1024"
"60","yes","60","957.733333333","957.733333333","white","no","xpyriment","Ich habe die obigen Informationen gelesen und verstanden.","legacy","legacy","0","uniform","1","0","0","undefined","undefined","1","f","2","1","NA","0","1","0","0","0","0","0","0","0","0","39","39","39","0","0","0","NA","0","0","2","0","0","0","2","39","39","39","39","39","Fri Oct 27 14:02:09 2017","Forced-choice identification task with a practice and an experimental phase","yes","NAP_GER_AA_4blocks_noglides.osexp","/Users/aviadalbert/Documents/Academisch/UoC/Dissertation/Experiment/OpenSesame/NAP-FC/NAP_GER_AA_4blocks_noglides","yes","no","sans","no","20","no","black","no","Weiter","yes","768","legacy","29","9","0","/Users/aviadalbert/Documents/Academisch/UoC/Dissertation/Experiment/OpenSesame/NAP-FC/NAP_GER_AA_4blocks_noglides/subject-32.csv","xpyriment","Jazzy James","3.1.9","yes","yes","59a800d99ad5a1025d81bb03","59a801616c613b0251691de0","no","no","0","f","f","space","NA","space","space","f","821","19499","2158","NA","15954","12943","821","2","legacy","1024","1","44100","-16","experiment","smal","2","0","0","0","1","Eng French, Dutch","32","","even","1504101","1501411","NA","NA","1523601","1504098","NA","203810","1503624","203811","203811","1417488","1433446","1604943","1603439","1605765","1468301","1446669","1501411","NA","1353217","1409156","1499754","1446447","1504101","1446673","NA","1604943","1604943","NA","NA","1603436","NAP perception","18","28732","30","yes","1024"
"58.064516129","yes","58.064516129","959.258064516","959.258064516","white","no","xpyriment","Ich habe die obigen Informationen gelesen und verstanden.","legacy","legacy","0","uniform","0","0","0","undefined","undefined","0","f","2","1","NA","0","1","0","0","0","0","0","0","0","0","40","40","40","0","0","0","NA","0","0","2","0","0","0","2","40","40","40","40","40","Fri Oct 27 14:02:09 2017","Forced-choice identification task with a practice and an experimental phase","yes","NAP_GER_AA_4blocks_noglides.osexp","/Users/aviadalbert/Documents/Academisch/UoC/Dissertation/Experiment/OpenSesame/NAP-FC/NAP_GER_AA_4blocks_noglides","yes","no","sans","no","20","no","black","no","Weiter","yes","768","legacy","30","9","0","/Users/aviadalbert/Documents/Academisch/UoC/Dissertation/Experiment/OpenSesame/NAP-FC/NAP_GER_AA_4blocks_noglides/subject-32.csv","xpyriment","Jazzy James","3.1.9","yes","yes","59a800d99ad5a1025d81bb03","59a801616c613b0251691de0","no","no","0","j","f","space","NA","space","space","j","1005","19499","2158","NA","15954","12943","1005","2","legacy","1024","1","44100","-16","experiment","mtal","2","0","0","0","1","Eng French, Dutch","32","","even","1504101","1501411","NA","NA","1523601","1504098","NA","203810","1503624","203811","203811","1417488","1433446","1607554","1606051","1608561","1468301","1446669","1501411","NA","1353217","1409156","1499754","1446447","1504101","1446673","NA","1607554","1607554","NA","NA","1606047","NAP perception","18","29737","31","yes","1024"
"56.25","yes","56.25","955.9375","955.9375","white","no","xpyriment","Ich habe die obigen Informationen gelesen und verstanden.","legacy","legacy","0","uniform","0","0","0","undefined","undefined","0","f","2","1","NA","0","1","0","0","0","0","0","0","0","0","41","41","41","0","0","0","NA","0","0","2","0","0","0","2","41","41","41","41","41","Fri Oct 27 14:02:09 2017","Forced-choice identification task with a practice and an experimental phase","yes","NAP_GER_AA_4blocks_noglides.osexp","/Users/aviadalbert/Documents/Academisch/UoC/Dissertation/Experiment/OpenSesame/NAP-FC/NAP_GER_AA_4blocks_noglides","yes","no","sans","no","20","no","black","no","Weiter","yes","768","legacy","31","9","0","/Users/aviadalbert/Documents/Academisch/UoC/Dissertation/Experiment/OpenSesame/NAP-FC/NAP_GER_AA_4blocks_noglides/subject-32.csv","xpyriment","Jazzy James","3.1.9","yes","yes","59a800d99ad5a1025d81bb03","59a801616c613b0251691de0","no","no","0","j","f","space","NA","space","space","j","853","19499","2158","NA","15954","12943","853","2","legacy","1024","1","44100","-16","experiment","npal","2","0","0","0","1","Eng French, Dutch","32","","even","1504101","1501411","NA","NA","1523601","1504098","NA","203810","1503624","203811","203811","1417488","1433446","1610343","1608839","1611197","1468301","1446669","1501411","NA","1353217","1409156","1499754","1446447","1504101","1446673","NA","1610343","1610343","NA","NA","1608835","NAP perception","18","30590","32","yes","1024"
"54.5454545455","yes","54.5454545455","959.181818182","959.181818182","white","no","xpyriment","Ich habe die obigen Informationen gelesen und verstanden.","legacy","legacy","0","uniform","0","0","0","undefined","undefined","0","f","2","1","NA","0","1","0","0","0","0","0","0","0","0","42","42","42","0","0","0","NA","0","0","2","0","0","0","2","42","42","42","42","42","Fri Oct 27 14:02:09 2017","Forced-choice identification task with a practice and an experimental phase","yes","NAP_GER_AA_4blocks_noglides.osexp","/Users/aviadalbert/Documents/Academisch/UoC/Dissertation/Experiment/OpenSesame/NAP-FC/NAP_GER_AA_4blocks_noglides","yes","no","sans","no","20","no","black","no","Weiter","yes","768","legacy","32","9","0","/Users/aviadalbert/Documents/Academisch/UoC/Dissertation/Experiment/OpenSesame/NAP-FC/NAP_GER_AA_4blocks_noglides/subject-32.csv","xpyriment","Jazzy James","3.1.9","yes","yes","59a800d99ad5a1025d81bb03","59a801616c613b0251691de0","no","no","0","j","f","space","NA","space","space","j","1063","19499","2158","NA","15954","12943","1063","2","legacy","1024","1","44100","-16","experiment","zval","2","0","0","0","1","Eng French, Dutch","32","","even","1504101","1501411","NA","NA","1523601","1504098","NA","203810","1503624","203811","203811","1417488","1433446","1612970","1611466","1614034","1468301","1446669","1501411","NA","1353217","1409156","1499754","1446447","1504101","1446673","NA","1612970","1612970","NA","NA","1611462","NAP perception","18","31653","33","yes","1024"
"55.8823529412","yes","55.8823529412","956.705882353","956.705882353","white","no","xpyriment","Ich habe die obigen Informationen gelesen und verstanden.","legacy","legacy","0","uniform","1","0","0","undefined","undefined","1","j","2","1","NA","0","1","0","0","0","0","0","0","0","0","43","43","43","0","0","0","NA","0","0","2","0","0","0","2","43","43","43","43","43","Fri Oct 27 14:02:09 2017","Forced-choice identification task with a practice and an experimental phase","yes","NAP_GER_AA_4blocks_noglides.osexp","/Users/aviadalbert/Documents/Academisch/UoC/Dissertation/Experiment/OpenSesame/NAP-FC/NAP_GER_AA_4blocks_noglides","yes","no","sans","no","20","no","black","no","Weiter","yes","768","legacy","33","9","0","/Users/aviadalbert/Documents/Academisch/UoC/Dissertation/Experiment/OpenSesame/NAP-FC/NAP_GER_AA_4blocks_noglides/subject-32.csv","xpyriment","Jazzy James","3.1.9","yes","yes","59a800d99ad5a1025d81bb03","59a801616c613b0251691de0","no","no","0","j","f","space","NA","space","space","j","875","19499","2158","NA","15954","12943","875","2","legacy","1024","1","44100","-16","experiment","elpal","2","0","0","0","1","Eng French, Dutch","32","","even","1504101","1501411","NA","NA","1523601","1504098","NA","203810","1503624","203811","203811","1417488","1433446","1615832","1614325","1616708","1468301","1446669","1501411","NA","1353217","1409156","1499754","1446447","1504101","1446673","NA","1615832","1615832","NA","NA","1614321","NAP perception","19","32528","34","yes","1024"
"57.1428571429","yes","57.1428571429","960.857142857","960.857142857","white","no","xpyriment","Ich habe die obigen Informationen gelesen und verstanden.","legacy","legacy","0","uniform","1","0","0","undefined","undefined","1","j","2","1","NA","0","1","0","0","0","0","0","0","0","0","44","44","44","0","0","0","NA","0","0","2","0","0","0","2","44","44","44","44","44","Fri Oct 27 14:02:09 2017","Forced-choice identification task with a practice and an experimental phase","yes","NAP_GER_AA_4blocks_noglides.osexp","/Users/aviadalbert/Documents/Academisch/UoC/Dissertation/Experiment/OpenSesame/NAP-FC/NAP_GER_AA_4blocks_noglides","yes","no","sans","no","20","no","black","no","Weiter","yes","768","legacy","34","9","0","/Users/aviadalbert/Documents/Academisch/UoC/Dissertation/Experiment/OpenSesame/NAP-FC/NAP_GER_AA_4blocks_noglides/subject-32.csv","xpyriment","Jazzy James","3.1.9","yes","yes","59a800d99ad5a1025d81bb03","59a801616c613b0251691de0","no","no","0","j","f","space","NA","space","space","j","1102","19499","2158","NA","15954","12943","1102","2","legacy","1024","1","44100","-16","experiment","zeval","2","0","0","0","1","Eng French, Dutch","32","","even","1504101","1501411","NA","NA","1523601","1504098","NA","203810","1503624","203811","203811","1417488","1433446","1618491","1616987","1619594","1468301","1446669","1501411","NA","1353217","1409156","1499754","1446447","1504101","1446673","NA","1618491","1618491","NA","NA","1616983","NAP perception","20","33630","35","yes","1024"
"58.3333333333","yes","58.3333333333","953.638888889","953.638888889","white","no","xpyriment","Ich habe die obigen Informationen gelesen und verstanden.","legacy","legacy","0","uniform","1","0","0","undefined","undefined","1","f","2","1","NA","0","1","0","0","0","0","0","0","0","0","45","45","45","0","0","0","NA","0","0","2","0","0","0","2","45","45","45","45","45","Fri Oct 27 14:02:09 2017","Forced-choice identification task with a practice and an experimental phase","yes","NAP_GER_AA_4blocks_noglides.osexp","/Users/aviadalbert/Documents/Academisch/UoC/Dissertation/Experiment/OpenSesame/NAP-FC/NAP_GER_AA_4blocks_noglides","yes","no","sans","no","20","no","black","no","Weiter","yes","768","legacy","35","9","0","/Users/aviadalbert/Documents/Academisch/UoC/Dissertation/Experiment/OpenSesame/NAP-FC/NAP_GER_AA_4blocks_noglides/subject-32.csv","xpyriment","Jazzy James","3.1.9","yes","yes","59a800d99ad5a1025d81bb03","59a801616c613b0251691de0","no","no","0","f","f","space","NA","space","space","f","701","19499","2158","NA","15954","12943","701","2","legacy","1024","1","44100","-16","experiment","smal","2","0","0","0","1","Eng French, Dutch","32","","even","1504101","1501411","NA","NA","1523601","1504098","NA","203810","1503624","203811","203811","1417488","1433446","1621373","1619868","1622075","1468301","1446669","1501411","NA","1353217","1409156","1499754","1446447","1504101","1446673","NA","1621373","1621373","NA","NA","1619864","NAP perception","21","34331","36","yes","1024"
"56.7567567568","yes","56.7567567568","952.972972973","952.972972973","white","no","xpyriment","Ich habe die obigen Informationen gelesen und verstanden.","legacy","legacy","0","uniform","0","0","0","undefined","undefined","0","f","2","1","NA","0","1","0","0","0","0","0","0","0","0","46","46","46","0","0","0","NA","0","0","2","0","0","0","2","46","46","46","46","46","Fri Oct 27 14:02:09 2017","Forced-choice identification task with a practice and an experimental phase","yes","NAP_GER_AA_4blocks_noglides.osexp","/Users/aviadalbert/Documents/Academisch/UoC/Dissertation/Experiment/OpenSesame/NAP-FC/NAP_GER_AA_4blocks_noglides","yes","no","sans","no","20","no","black","no","Weiter","yes","768","legacy","36","9","0","/Users/aviadalbert/Documents/Academisch/UoC/Dissertation/Experiment/OpenSesame/NAP-FC/NAP_GER_AA_4blocks_noglides/subject-32.csv","xpyriment","Jazzy James","3.1.9","yes","yes","59a800d99ad5a1025d81bb03","59a801616c613b0251691de0","no","no","0","j","f","space","NA","space","space","j","929","19499","2158","NA","15954","12943","929","2","legacy","1024","1","44100","-16","experiment","vnal","2","0","0","0","1","Eng French, Dutch","32","","even","1504101","1501411","NA","NA","1523601","1504098","NA","203810","1503624","203811","203811","1417488","1433446","1623856","1622353","1624787","1468301","1446669","1501411","NA","1353217","1409156","1499754","1446447","1504101","1446673","NA","1623856","1623856","NA","NA","1622349","NAP perception","21","35260","37","yes","1024"
"57.8947368421","yes","57.8947368421","952.473684211","952.473684211","white","no","xpyriment","Ich habe die obigen Informationen gelesen und verstanden.","legacy","legacy","0","uniform","1","0","0","undefined","undefined","1","j","2","1","NA","0","1","0","0","0","0","0","0","0","0","47","47","47","0","0","0","NA","0","0","2","0","0","0","2","47","47","47","47","47","Fri Oct 27 14:02:09 2017","Forced-choice identification task with a practice and an experimental phase","yes","NAP_GER_AA_4blocks_noglides.osexp","/Users/aviadalbert/Documents/Academisch/UoC/Dissertation/Experiment/OpenSesame/NAP-FC/NAP_GER_AA_4blocks_noglides","yes","no","sans","no","20","no","black","no","Weiter","yes","768","legacy","37","9","0","/Users/aviadalbert/Documents/Academisch/UoC/Dissertation/Experiment/OpenSesame/NAP-FC/NAP_GER_AA_4blocks_noglides/subject-32.csv","xpyriment","Jazzy James","3.1.9","yes","yes","59a800d99ad5a1025d81bb03","59a801616c613b0251691de0","no","no","0","j","f","space","NA","space","space","j","934","19499","2158","NA","15954","12943","934","2","legacy","1024","1","44100","-16","experiment","elmal","2","0","0","0","1","Eng French, Dutch","32","","even","1504101","1501411","NA","NA","1523601","1504098","NA","203810","1503624","203811","203811","1417488","1433446","1626567","1625063","1627503","1468301","1446669","1501411","NA","1353217","1409156","1499754","1446447","1504101","1446673","NA","1626567","1626567","NA","NA","1625059","NAP perception","22","36194","38","yes","1024"
"58.9743589744","yes","58.9743589744","954.384615385","954.384615385","white","no","xpyriment","Ich habe die obigen Informationen gelesen und verstanden.","legacy","legacy","0","uniform","1","0","0","undefined","undefined","1","j","2","1","NA","0","1","0","0","0","0","0","0","0","0","48","48","48","0","0","0","NA","0","0","2","0","0","0","2","48","48","48","48","48","Fri Oct 27 14:02:09 2017","Forced-choice identification task with a practice and an experimental phase","yes","NAP_GER_AA_4blocks_noglides.osexp","/Users/aviadalbert/Documents/Academisch/UoC/Dissertation/Experiment/OpenSesame/NAP-FC/NAP_GER_AA_4blocks_noglides","yes","no","sans","no","20","no","black","no","Weiter","yes","768","legacy","38","9","0","/Users/aviadalbert/Documents/Academisch/UoC/Dissertation/Experiment/OpenSesame/NAP-FC/NAP_GER_AA_4blocks_noglides/subject-32.csv","xpyriment","Jazzy James","3.1.9","yes","yes","59a800d99ad5a1025d81bb03","59a801616c613b0251691de0","no","no","0","j","f","space","NA","space","space","j","1027","19499","2158","NA","15954","12943","1027","2","legacy","1024","1","44100","-16","experiment","sefal","2","0","0","0","1","Eng French, Dutch","32","","even","1504101","1501411","NA","NA","1523601","1504098","NA","203810","1503624","203811","203811","1417488","1433446","1629281","1627778","1630311","1468301","1446669","1501411","NA","1353217","1409156","1499754","1446447","1504101","1446673","NA","1629281","1629281","NA","NA","1627774","NAP perception","23","37221","39","yes","1024"
"60","yes","60","951.2","951.2","white","no","xpyriment","Ich habe die obigen Informationen gelesen und verstanden.","legacy","legacy","0","uniform","1","0","0","undefined","undefined","1","f","2","1","NA","0","1","0","0","0","0","0","0","0","0","49","49","49","0","0","0","NA","0","0","2","0","0","0","2","49","49","49","49","49","Fri Oct 27 14:02:09 2017","Forced-choice identification task with a practice and an experimental phase","yes","NAP_GER_AA_4blocks_noglides.osexp","/Users/aviadalbert/Documents/Academisch/UoC/Dissertation/Experiment/OpenSesame/NAP-FC/NAP_GER_AA_4blocks_noglides","yes","no","sans","no","20","no","black","no","Weiter","yes","768","legacy","39","9","0","/Users/aviadalbert/Documents/Academisch/UoC/Dissertation/Experiment/OpenSesame/NAP-FC/NAP_GER_AA_4blocks_noglides/subject-32.csv","xpyriment","Jazzy James","3.1.9","yes","yes","59a800d99ad5a1025d81bb03","59a801616c613b0251691de0","no","no","0","f","f","space","NA","space","space","f","827","19499","2158","NA","15954","12943","827","2","legacy","1024","1","44100","-16","experiment","ʃmal","2","0","0","0","1","Eng French, Dutch","32","","even","1504101","1501411","NA","NA","1523601","1504098","NA","203810","1503624","203811","203811","1417488","1433446","1632098","1630591","1632927","1468301","1446669","1501411","NA","1353217","1409156","1499754","1446447","1504101","1446673","NA","1632098","1632098","NA","NA","1630587","NAP perception","24","38048","40","yes","1024"
"58.5365853659","yes","58.5365853659","956.634146341","956.634146341","white","no","xpyriment","Ich habe die obigen Informationen gelesen und verstanden.","legacy","legacy","0","uniform","0","0","0","undefined","undefined","0","f","2","1","NA","0","1","0","0","0","0","0","0","0","0","50","50","50","0","0","0","NA","0","0","2","0","0","0","2","50","50","50","50","50","Fri Oct 27 14:02:09 2017","Forced-choice identification task with a practice and an experimental phase","yes","NAP_GER_AA_4blocks_noglides.osexp","/Users/aviadalbert/Documents/Academisch/UoC/Dissertation/Experiment/OpenSesame/NAP-FC/NAP_GER_AA_4blocks_noglides","yes","no","sans","no","20","no","black","no","Weiter","yes","768","legacy","40","9","0","/Users/aviadalbert/Documents/Academisch/UoC/Dissertation/Experiment/OpenSesame/NAP-FC/NAP_GER_AA_4blocks_noglides/subject-32.csv","xpyriment","Jazzy James","3.1.9","yes","yes","59a800d99ad5a1025d81bb03","59a801616c613b0251691de0","no","no","0","j","f","space","NA","space","space","j","1174","19499","2158","NA","15954","12943","1174","2","legacy","1024","1","44100","-16","experiment","nmal","2","0","0","0","1","Eng French, Dutch","32","","even","1504101","1501411","NA","NA","1523601","1504098","NA","203810","1503624","203811","203811","1417488","1433446","1634710","1633206","1635886","1468301","1446669","1501411","NA","1353217","1409156","1499754","1446447","1504101","1446673","NA","1634710","1634710","NA","NA","1633203","NAP perception","24","39222","41","yes","1024"
"59.5238095238","yes","59.5238095238","958.333333333","958.333333333","white","no","xpyriment","Ich habe die obigen Informationen gelesen und verstanden.","legacy","legacy","0","uniform","1","0","0","undefined","undefined","1","f","2","1","NA","0","1","0","0","0","0","0","0","0","0","51","51","51","0","0","0","NA","0","0","2","0","0","0","2","51","51","51","51","51","Fri Oct 27 14:02:09 2017","Forced-choice identification task with a practice and an experimental phase","yes","NAP_GER_AA_4blocks_noglides.osexp","/Users/aviadalbert/Documents/Academisch/UoC/Dissertation/Experiment/OpenSesame/NAP-FC/NAP_GER_AA_4blocks_noglides","yes","no","sans","no","20","no","black","no","Weiter","yes","768","legacy","41","9","0","/Users/aviadalbert/Documents/Academisch/UoC/Dissertation/Experiment/OpenSesame/NAP-FC/NAP_GER_AA_4blocks_noglides/subject-32.csv","xpyriment","Jazzy James","3.1.9","yes","yes","59a800d99ad5a1025d81bb03","59a801616c613b0251691de0","no","no","0","f","f","space","NA","space","space","f","1028","19499","2158","NA","15954","12943","1028","2","legacy","1024","1","44100","-16","experiment","ftal","2","0","0","0","1","Eng French, Dutch","32","","even","1504101","1501411","NA","NA","1523601","1504098","NA","203810","1503624","203811","203811","1417488","1433446","1637674","1636171","1638704","1468301","1446669","1501411","NA","1353217","1409156","1499754","1446447","1504101","1446673","NA","1637674","1637674","NA","NA","1636167","NAP perception","25","40250","42","yes","1024"
"60.4651162791","yes","60.4651162791","957.88372093","957.88372093","white","no","xpyriment","Ich habe die obigen Informationen gelesen und verstanden.","legacy","legacy","0","uniform","1","0","0","undefined","undefined","1","j","2","1","NA","0","1","0","0","0","0","0","0","0","0","52","52","52","0","0","0","NA","0","0","2","0","0","0","2","52","52","52","52","52","Fri Oct 27 14:02:09 2017","Forced-choice identification task with a practice and an experimental phase","yes","NAP_GER_AA_4blocks_noglides.osexp","/Users/aviadalbert/Documents/Academisch/UoC/Dissertation/Experiment/OpenSesame/NAP-FC/NAP_GER_AA_4blocks_noglides","yes","no","sans","no","20","no","black","no","Weiter","yes","768","legacy","42","9","0","/Users/aviadalbert/Documents/Academisch/UoC/Dissertation/Experiment/OpenSesame/NAP-FC/NAP_GER_AA_4blocks_noglides/subject-32.csv","xpyriment","Jazzy James","3.1.9","yes","yes","59a800d99ad5a1025d81bb03","59a801616c613b0251691de0","no","no","0","j","f","space","NA","space","space","j","939","19499","2158","NA","15954","12943","939","2","legacy","1024","1","44100","-16","experiment","lekal","2","0","0","0","1","Eng French, Dutch","32","","even","1504101","1501411","NA","NA","1523601","1504098","NA","203810","1503624","203811","203811","1417488","1433446","1640491","1638985","1641432","1468301","1446669","1501411","NA","1353217","1409156","1499754","1446447","1504101","1446673","NA","1640491","1640491","NA","NA","1638981","NAP perception","26","41189","43","yes","1024"
"61.3636363636","yes","61.3636363636","956.886363636","956.886363636","white","no","xpyriment","Ich habe die obigen Informationen gelesen und verstanden.","legacy","legacy","0","uniform","1","0","0","undefined","undefined","1","f","2","1","NA","0","1","0","0","0","0","0","0","0","0","53","53","53","0","0","0","NA","0","0","2","0","0","0","2","53","53","53","53","53","Fri Oct 27 14:02:09 2017","Forced-choice identification task with a practice and an experimental phase","yes","NAP_GER_AA_4blocks_noglides.osexp","/Users/aviadalbert/Documents/Academisch/UoC/Dissertation/Experiment/OpenSesame/NAP-FC/NAP_GER_AA_4blocks_noglides","yes","no","sans","no","20","no","black","no","Weiter","yes","768","legacy","43","9","0","/Users/aviadalbert/Documents/Academisch/UoC/Dissertation/Experiment/OpenSesame/NAP-FC/NAP_GER_AA_4blocks_noglides/subject-32.csv","xpyriment","Jazzy James","3.1.9","yes","yes","59a800d99ad5a1025d81bb03","59a801616c613b0251691de0","no","no","0","f","f","space","NA","space","space","f","914","19499","2158","NA","15954","12943","914","2","legacy","1024","1","44100","-16","experiment","sfal","2","0","0","0","1","Eng French, Dutch","32","","even","1504101","1501411","NA","NA","1523601","1504098","NA","203810","1503624","203811","203811","1417488","1433446","1643213","1641709","1644129","1468301","1446669","1501411","NA","1353217","1409156","1499754","1446447","1504101","1446673","NA","1643213","1643213","NA","NA","1641705","NAP perception","27","42103","44","yes","1024"
"60","yes","60","955","955","white","no","xpyriment","Ich habe die obigen Informationen gelesen und verstanden.","legacy","legacy","0","uniform","0","0","0","undefined","undefined","0","f","2","1","NA","0","1","0","0","0","0","0","0","0","0","54","54","54","0","0","0","NA","0","0","2","0","0","0","2","54","54","54","54","54","Fri Oct 27 14:02:09 2017","Forced-choice identification task with a practice and an experimental phase","yes","NAP_GER_AA_4blocks_noglides.osexp","/Users/aviadalbert/Documents/Academisch/UoC/Dissertation/Experiment/OpenSesame/NAP-FC/NAP_GER_AA_4blocks_noglides","yes","no","sans","no","20","no","black","no","Weiter","yes","768","legacy","44","9","0","/Users/aviadalbert/Documents/Academisch/UoC/Dissertation/Experiment/OpenSesame/NAP-FC/NAP_GER_AA_4blocks_noglides/subject-32.csv","xpyriment","Jazzy James","3.1.9","yes","yes","59a800d99ad5a1025d81bb03","59a801616c613b0251691de0","no","no","0","j","f","space","NA","space","space","j","872","19499","2158","NA","15954","12943","872","2","legacy","1024","1","44100","-16","experiment","nmal","2","0","0","0","1","Eng French, Dutch","32","","even","1504101","1501411","NA","NA","1523601","1504098","NA","203810","1503624","203811","203811","1417488","1433446","1645916","1644413","1646790","1468301","1446669","1501411","NA","1353217","1409156","1499754","1446447","1504101","1446673","NA","1645916","1645916","NA","NA","1644409","NAP perception","27","42975","45","yes","1024"
"60.8695652174","yes","60.8695652174","951.456521739","951.456521739","white","no","xpyriment","Ich habe die obigen Informationen gelesen und verstanden.","legacy","legacy","0","uniform","1","0","0","undefined","undefined","1","j","2","1","NA","0","1","0","0","0","0","0","0","0","0","55","55","55","0","0","0","NA","0","0","2","0","0","0","2","55","55","55","55","55","Fri Oct 27 14:02:09 2017","Forced-choice identification task with a practice and an experimental phase","yes","NAP_GER_AA_4blocks_noglides.osexp","/Users/aviadalbert/Documents/Academisch/UoC/Dissertation/Experiment/OpenSesame/NAP-FC/NAP_GER_AA_4blocks_noglides","yes","no","sans","no","20","no","black","no","Weiter","yes","768","legacy","45","9","0","/Users/aviadalbert/Documents/Academisch/UoC/Dissertation/Experiment/OpenSesame/NAP-FC/NAP_GER_AA_4blocks_noglides/subject-32.csv","xpyriment","Jazzy James","3.1.9","yes","yes","59a800d99ad5a1025d81bb03","59a801616c613b0251691de0","no","no","0","j","f","space","NA","space","space","j","792","19499","2158","NA","15954","12943","792","2","legacy","1024","1","44100","-16","experiment","nepal","2","0","0","0","1","Eng French, Dutch","32","","even","1504101","1501411","NA","NA","1523601","1504098","NA","203810","1503624","203811","203811","1417488","1433446","1648577","1647073","1649371","1468301","1446669","1501411","NA","1353217","1409156","1499754","1446447","1504101","1446673","NA","1648577","1648577","NA","NA","1647069","NAP perception","28","43767","46","yes","1024"
"61.7021276596","yes","61.7021276596","949.936170213","949.936170213","white","no","xpyriment","Ich habe die obigen Informationen gelesen und verstanden.","legacy","legacy","0","uniform","1","0","0","undefined","undefined","1","j","2","1","NA","0","1","0","0","0","0","0","0","0","0","56","56","56","0","0","0","NA","0","0","2","0","0","0","2","56","56","56","56","56","Fri Oct 27 14:02:09 2017","Forced-choice identification task with a practice and an experimental phase","yes","NAP_GER_AA_4blocks_noglides.osexp","/Users/aviadalbert/Documents/Academisch/UoC/Dissertation/Experiment/OpenSesame/NAP-FC/NAP_GER_AA_4blocks_noglides","yes","no","sans","no","20","no","black","no","Weiter","yes","768","legacy","46","9","0","/Users/aviadalbert/Documents/Academisch/UoC/Dissertation/Experiment/OpenSesame/NAP-FC/NAP_GER_AA_4blocks_noglides/subject-32.csv","xpyriment","Jazzy James","3.1.9","yes","yes","59a800d99ad5a1025d81bb03","59a801616c613b0251691de0","no","no","0","j","f","space","NA","space","space","j","880","19499","2158","NA","15954","12943","880","2","legacy","1024","1","44100","-16","experiment","fetal","2","0","0","0","1","Eng French, Dutch","32","","even","1504101","1501411","NA","NA","1523601","1504098","NA","203810","1503624","203811","203811","1417488","1433446","1651151","1649647","1652032","1468301","1446669","1501411","NA","1353217","1409156","1499754","1446447","1504101","1446673","NA","1651151","1651151","NA","NA","1649644","NAP perception","29","44647","47","yes","1024"
"60.4166666667","yes","60.4166666667","949.020833333","949.020833333","white","no","xpyriment","Ich habe die obigen Informationen gelesen und verstanden.","legacy","legacy","0","uniform","0","0","0","undefined","undefined","0","f","2","1","NA","0","1","0","0","0","0","0","0","0","0","57","57","57","0","0","0","NA","0","0","2","0","0","0","2","57","57","57","57","57","Fri Oct 27 14:02:09 2017","Forced-choice identification task with a practice and an experimental phase","yes","NAP_GER_AA_4blocks_noglides.osexp","/Users/aviadalbert/Documents/Academisch/UoC/Dissertation/Experiment/OpenSesame/NAP-FC/NAP_GER_AA_4blocks_noglides","yes","no","sans","no","20","no","black","no","Weiter","yes","768","legacy","47","9","0","/Users/aviadalbert/Documents/Academisch/UoC/Dissertation/Experiment/OpenSesame/NAP-FC/NAP_GER_AA_4blocks_noglides/subject-32.csv","xpyriment","Jazzy James","3.1.9","yes","yes","59a800d99ad5a1025d81bb03","59a801616c613b0251691de0","no","no","0","j","f","space","NA","space","space","j","906","19499","2158","NA","15954","12943","906","2","legacy","1024","1","44100","-16","experiment","nval","2","0","0","0","1","Eng French, Dutch","32","","even","1504101","1501411","NA","NA","1523601","1504098","NA","203810","1503624","203811","203811","1417488","1433446","1653820","1652316","1654727","1468301","1446669","1501411","NA","1353217","1409156","1499754","1446447","1504101","1446673","NA","1653820","1653820","NA","NA","1652312","NAP perception","29","45553","48","yes","1024"
"59.1836734694","yes","59.1836734694","948.795918367","948.795918367","white","no","xpyriment","Ich habe die obigen Informationen gelesen und verstanden.","legacy","legacy","0","uniform","0","0","0","undefined","undefined","0","f","2","1","NA","0","1","0","0","0","0","0","0","0","0","58","58","58","0","0","0","NA","0","0","2","0","0","0","2","58","58","58","58","58","Fri Oct 27 14:02:09 2017","Forced-choice identification task with a practice and an experimental phase","yes","NAP_GER_AA_4blocks_noglides.osexp","/Users/aviadalbert/Documents/Academisch/UoC/Dissertation/Experiment/OpenSesame/NAP-FC/NAP_GER_AA_4blocks_noglides","yes","no","sans","no","20","no","black","no","Weiter","yes","768","legacy","48","9","0","/Users/aviadalbert/Documents/Academisch/UoC/Dissertation/Experiment/OpenSesame/NAP-FC/NAP_GER_AA_4blocks_noglides/subject-32.csv","xpyriment","Jazzy James","3.1.9","yes","yes","59a800d99ad5a1025d81bb03","59a801616c613b0251691de0","no","no","0","j","f","space","NA","space","space","j","938","19499","2158","NA","15954","12943","938","2","legacy","1024","1","44100","-16","experiment","lval","2","0","0","0","1","Eng French, Dutch","32","","even","1504101","1501411","NA","NA","1523601","1504098","NA","203810","1503624","203811","203811","1417488","1433446","1656506","1655002","1657446","1468301","1446669","1501411","NA","1353217","1409156","1499754","1446447","1504101","1446673","NA","1656506","1656506","NA","NA","1654999","NAP perception","29","46491","49","yes","1024"
"60","yes","60","950.22","950.22","white","no","xpyriment","Ich habe die obigen Informationen gelesen und verstanden.","legacy","legacy","0","uniform","1","0","0","undefined","undefined","1","j","2","1","NA","0","1","0","0","0","0","0","0","0","0","59","59","59","0","0","0","NA","0","0","2","0","0","0","2","59","59","59","59","59","Fri Oct 27 14:02:09 2017","Forced-choice identification task with a practice and an experimental phase","yes","NAP_GER_AA_4blocks_noglides.osexp","/Users/aviadalbert/Documents/Academisch/UoC/Dissertation/Experiment/OpenSesame/NAP-FC/NAP_GER_AA_4blocks_noglides","yes","no","sans","no","20","no","black","no","Weiter","yes","768","legacy","49","9","0","/Users/aviadalbert/Documents/Academisch/UoC/Dissertation/Experiment/OpenSesame/NAP-FC/NAP_GER_AA_4blocks_noglides/subject-32.csv","xpyriment","Jazzy James","3.1.9","yes","yes","59a800d99ad5a1025d81bb03","59a801616c613b0251691de0","no","no","0","j","f","space","NA","space","space","j","1020","19499","2158","NA","15954","12943","1020","2","legacy","1024","1","44100","-16","experiment","fesal","2","0","0","0","1","Eng French, Dutch","32","","even","1504101","1501411","NA","NA","1523601","1504098","NA","203810","1503624","203811","203811","1417488","1433446","1659220","1657714","1660241","1468301","1446669","1501411","NA","1353217","1409156","1499754","1446447","1504101","1446673","NA","1659219","1659220","NA","NA","1657710","NAP perception","30","47511","50","yes","1024"
"60.7843137255","yes","60.7843137255","954.31372549","954.31372549","white","no","xpyriment","Ich habe die obigen Informationen gelesen und verstanden.","legacy","legacy","0","uniform","1","0","0","undefined","undefined","1","f","2","1","NA","0","1","0","0","0","0","0","0","0","0","60","60","60","0","0","0","NA","0","0","2","0","0","0","2","60","60","60","60","60","Fri Oct 27 14:02:09 2017","Forced-choice identification task with a practice and an experimental phase","yes","NAP_GER_AA_4blocks_noglides.osexp","/Users/aviadalbert/Documents/Academisch/UoC/Dissertation/Experiment/OpenSesame/NAP-FC/NAP_GER_AA_4blocks_noglides","yes","no","sans","no","20","no","black","no","Weiter","yes","768","legacy","50","9","0","/Users/aviadalbert/Documents/Academisch/UoC/Dissertation/Experiment/OpenSesame/NAP-FC/NAP_GER_AA_4blocks_noglides/subject-32.csv","xpyriment","Jazzy James","3.1.9","yes","yes","59a800d99ad5a1025d81bb03","59a801616c613b0251691de0","no","no","0","f","f","space","NA","space","space","f","1159","19499","2158","NA","15954","12943","1159","2","legacy","1024","1","44100","-16","experiment","fnal","2","0","0","0","1","Eng French, Dutch","32","","even","1504101","1501411","NA","NA","1523601","1504098","NA","203810","1503624","203811","203811","1417488","1433446","1662016","1660512","1663176","1468301","1446669","1501411","NA","1353217","1409156","1499754","1446447","1504101","1446673","NA","1662016","1662016","NA","NA","1660508","NAP perception","31","48670","51","yes","1024"
"61.5384615385","yes","61.5384615385","949.711538462","949.711538462","white","no","xpyriment","Ich habe die obigen Informationen gelesen und verstanden.","legacy","legacy","0","uniform","1","0","0","undefined","undefined","1","j","2","1","NA","0","1","0","0","0","0","0","0","0","0","61","61","61","0","0","0","NA","0","0","2","0","0","0","2","61","61","61","61","61","Fri Oct 27 14:02:09 2017","Forced-choice identification task with a practice and an experimental phase","yes","NAP_GER_AA_4blocks_noglides.osexp","/Users/aviadalbert/Documents/Academisch/UoC/Dissertation/Experiment/OpenSesame/NAP-FC/NAP_GER_AA_4blocks_noglides","yes","no","sans","no","20","no","black","no","Weiter","yes","768","legacy","51","9","0","/Users/aviadalbert/Documents/Academisch/UoC/Dissertation/Experiment/OpenSesame/NAP-FC/NAP_GER_AA_4blocks_noglides/subject-32.csv","xpyriment","Jazzy James","3.1.9","yes","yes","59a800d99ad5a1025d81bb03","59a801616c613b0251691de0","no","no","0","j","f","space","NA","space","space","j","715","19499","2158","NA","15954","12943","715","2","legacy","1024","1","44100","-16","experiment","emzal","2","0","0","0","1","Eng French, Dutch","32","","even","1504101","1501411","NA","NA","1523601","1504098","NA","203810","1503624","203811","203811","1417488","1433446","1664969","1663465","1665685","1468301","1446669","1501411","NA","1353217","1409156","1499754","1446447","1504101","1446673","NA","1664968","1664968","NA","NA","1663461","NAP perception","32","49385","52","yes","1024"
"62.2641509434","yes","62.2641509434","951.660377358","951.660377358","white","no","xpyriment","Ich habe die obigen Informationen gelesen und verstanden.","legacy","legacy","0","uniform","1","0","0","undefined","undefined","1","j","2","1","NA","0","1","0","0","0","0","0","0","0","0","62","62","62","0","0","0","NA","0","0","2","0","0","0","2","62","62","62","62","62","Fri Oct 27 14:02:09 2017","Forced-choice identification task with a practice and an experimental phase","yes","NAP_GER_AA_4blocks_noglides.osexp","/Users/aviadalbert/Documents/Academisch/UoC/Dissertation/Experiment/OpenSesame/NAP-FC/NAP_GER_AA_4blocks_noglides","yes","no","sans","no","20","no","black","no","Weiter","yes","768","legacy","52","9","0","/Users/aviadalbert/Documents/Academisch/UoC/Dissertation/Experiment/OpenSesame/NAP-FC/NAP_GER_AA_4blocks_noglides/subject-32.csv","xpyriment","Jazzy James","3.1.9","yes","yes","59a800d99ad5a1025d81bb03","59a801616c613b0251691de0","no","no","0","j","f","space","NA","space","space","j","1053","19499","2158","NA","15954","12943","1053","2","legacy","1024","1","44100","-16","experiment","efsal","2","0","0","0","1","Eng French, Dutch","32","","even","1504101","1501411","NA","NA","1523601","1504098","NA","203810","1503624","203811","203811","1417488","1433446","1667456","1665953","1668511","1468301","1446669","1501411","NA","1353217","1409156","1499754","1446447","1504101","1446673","NA","1667456","1667456","NA","NA","1665949","NAP perception","33","50438","53","yes","1024"
"62.962962963","yes","62.962962963","948.444444444","948.444444444","white","no","xpyriment","Ich habe die obigen Informationen gelesen und verstanden.","legacy","legacy","0","uniform","1","0","0","undefined","undefined","1","j","2","1","NA","0","1","0","0","0","0","0","0","0","0","63","63","63","0","0","0","NA","0","0","2","0","0","0","2","63","63","63","63","63","Fri Oct 27 14:02:09 2017","Forced-choice identification task with a practice and an experimental phase","yes","NAP_GER_AA_4blocks_noglides.osexp","/Users/aviadalbert/Documents/Academisch/UoC/Dissertation/Experiment/OpenSesame/NAP-FC/NAP_GER_AA_4blocks_noglides","yes","no","sans","no","20","no","black","no","Weiter","yes","768","legacy","53","9","0","/Users/aviadalbert/Documents/Academisch/UoC/Dissertation/Experiment/OpenSesame/NAP-FC/NAP_GER_AA_4blocks_noglides/subject-32.csv","xpyriment","Jazzy James","3.1.9","yes","yes","59a800d99ad5a1025d81bb03","59a801616c613b0251691de0","no","no","0","j","f","space","NA","space","space","j","778","19499","2158","NA","15954","12943","778","2","legacy","1024","1","44100","-16","experiment","ezval","2","0","0","0","1","Eng French, Dutch","32","","even","1504101","1501411","NA","NA","1523601","1504098","NA","203810","1503624","203811","203811","1417488","1433446","1670295","1668788","1671075","1468301","1446669","1501411","NA","1353217","1409156","1499754","1446447","1504101","1446673","NA","1670294","1670295","NA","NA","1668784","NAP perception","34","51216","54","yes","1024"
"63.6363636364","yes","63.6363636364","947.745454545","947.745454545","white","no","xpyriment","Ich habe die obigen Informationen gelesen und verstanden.","legacy","legacy","0","uniform","1","0","0","undefined","undefined","1","j","2","1","NA","0","1","0","0","0","0","0","0","0","0","64","64","64","0","0","0","NA","0","0","2","0","0","0","2","64","64","64","64","64","Fri Oct 27 14:02:09 2017","Forced-choice identification task with a practice and an experimental phase","yes","NAP_GER_AA_4blocks_noglides.osexp","/Users/aviadalbert/Documents/Academisch/UoC/Dissertation/Experiment/OpenSesame/NAP-FC/NAP_GER_AA_4blocks_noglides","yes","no","sans","no","20","no","black","no","Weiter","yes","768","legacy","54","9","0","/Users/aviadalbert/Documents/Academisch/UoC/Dissertation/Experiment/OpenSesame/NAP-FC/NAP_GER_AA_4blocks_noglides/subject-32.csv","xpyriment","Jazzy James","3.1.9","yes","yes","59a800d99ad5a1025d81bb03","59a801616c613b0251691de0","no","no","0","j","f","space","NA","space","space","j","910","19499","2158","NA","15954","12943","910","2","legacy","1024","1","44100","-16","experiment","emnal","2","0","0","0","1","Eng French, Dutch","32","","even","1504101","1501411","NA","NA","1523601","1504098","NA","203810","1503624","203811","203811","1417488","1433446","1672861","1671356","1673773","1468301","1446669","1501411","NA","1353217","1409156","1499754","1446447","1504101","1446673","NA","1672860","1672861","NA","NA","1671352","NAP perception","35","52126","55","yes","1024"
