"acc","accept_status","accuracy","average_response_time","avg_rt","background","bidi","canvas_backend","checkbox_status","clock_backend","color_backend","compensation","coordinates","correct","correct_block_activation","correct_block_exit","correct_instructions_1","correct_instructions_2","correct_keyboard_response","correct_response","count_block_activation","count_block_exit","count_block_info_QA","count_cont_e_block_message","count_e_block_loop","count_e_block_sequence","count_end_of_experiment","count_experiment","count_experimental_loop","count_form_consent","count_info_forms","count_instructions_1","count_instructions_2","count_keyboard_response","count_listen_message","count_logger","count_p_block_loop","count_p_block_sequence","count_p_feedback","count_pause_feedback","count_personal_details_form_1","count_personal_details_form_2","count_post_loop_blank","count_practice_loop","count_pre_e_block_message","count_pre_p_block_message","count_reset_feedback","count_stimulus_image","count_stimulus_sound","count_timeout_message","count_timeout_sound","count_trial_sequence","datetime","description","disable_garbage_collection","experiment_file","experiment_path","expyriment_opengl","font_bold","font_family","font_italic","font_size","font_underline","foreground","form_clicks","form_response","fullscreen","height","keyboard_backend","live_row","live_row_p_block_loop","live_row_practice_loop","logfile","mouse_backend","opensesame_codename","opensesame_version","osf_always_upload_data","osf_always_upload_experiment","osf_datanode_id","osf_id","practice","pygame_doublebuf","repeat_cycle","response","response_block_activation","response_block_exit","response_block_info_QA","response_instructions_1","response_instructions_2","response_keyboard_response","response_time","response_time_block_activation","response_time_block_exit","response_time_block_info_QA","response_time_instructions_1","response_time_instructions_2","response_time_keyboard_response","round_decimals","sampler_backend","sound_buf_size","sound_channels","sound_freq","sound_sample_size","start","stimulus","subject_age","subject_education","subject_gender","subject_german_native","subject_handedness","subject_language_other","subject_nr","subject_other_native_lang","subject_parity","time_block_activation","time_block_exit","time_block_info_QA","time_cont_e_block_message","time_e_block_loop","time_e_block_sequence","time_end_of_experiment","time_experiment","time_experimental_loop","time_form_consent","time_info_forms","time_instructions_1","time_instructions_2","time_keyboard_response","time_listen_message","time_logger","time_p_block_loop","time_p_block_sequence","time_p_feedback","time_pause_feedback","time_personal_details_form_1","time_personal_details_form_2","time_post_loop_blank","time_practice_loop","time_pre_e_block_message","time_pre_p_block_message","time_reset_feedback","time_stimulus_image","time_stimulus_sound","time_timeout_message","time_timeout_sound","time_trial_sequence","title","total_correct","total_response_time","total_responses","uniform_coordinates","width"
"100","yes","100","1160","1160","white","no","xpyriment","Ich habe die obigen Informationen gelesen und verstanden.","legacy","legacy","0","uniform","1","0","NA","undefined","undefined","1","f","0","0","NA","NA","NA","NA","NA","0","0","0","0","0","0","0","0","0","0","0","NA","NA","0","0","0","0","NA","0","0","0","0","0","0","0","Thu Oct 26 11:53:44 2017","Forced-choice identification task with a practice and an experimental phase","yes","NAP_GER_AA_4blocks_noglides.osexp","/Users/aviadalbert/Documents/Academisch/UoC/Dissertation/Experiment/OpenSesame/NAP-FC/NAP_GER_AA_4blocks_noglides","yes","no","sans","no","20","no","black","no","Weiter","yes","768","legacy","0","0","0","/Users/aviadalbert/Documents/Academisch/UoC/Dissertation/Experiment/OpenSesame/NAP-FC/NAP_GER_AA_4blocks_noglides/subject-23.csv","xpyriment","Jazzy James","3.1.9","yes","yes","59a800d99ad5a1025d81bb03","59a801616c613b0251691de0","yes","no","0","f","f","NA","NA","space","space","f","1160","2994","NA","NA","19785","17351","1160","2","legacy","1024","1","44100","-16","experiment","flal","2","0","1","0","1","Franzoesisch, Eng","23","","odd","7932975","NA","NA","NA","NA","NA","NA","7398199","NA","7398199","7398199","7895531","7915321","7937681","7936173","7938842","7935970","7932971","NA","NA","7814105","7884873","NA","7932741","NA","7932975","NA","7937681","7937681","NA","NA","7936170","NAP perception","1","1160","1","yes","1024"
"100","yes","100","1161","1161","white","no","xpyriment","Ich habe die obigen Informationen gelesen und verstanden.","legacy","legacy","0","uniform","1","0","NA","undefined","undefined","1","j","0","0","NA","NA","NA","NA","NA","0","0","0","0","0","0","1","1","1","0","0","NA","NA","0","0","0","0","NA","0","0","1","1","1","1","1","Thu Oct 26 11:53:44 2017","Forced-choice identification task with a practice and an experimental phase","yes","NAP_GER_AA_4blocks_noglides.osexp","/Users/aviadalbert/Documents/Academisch/UoC/Dissertation/Experiment/OpenSesame/NAP-FC/NAP_GER_AA_4blocks_noglides","yes","no","sans","no","20","no","black","no","Weiter","yes","768","legacy","1","1","0","/Users/aviadalbert/Documents/Academisch/UoC/Dissertation/Experiment/OpenSesame/NAP-FC/NAP_GER_AA_4blocks_noglides/subject-23.csv","xpyriment","Jazzy James","3.1.9","yes","yes","59a800d99ad5a1025d81bb03","59a801616c613b0251691de0","yes","no","0","j","f","NA","NA","space","space","j","1162","2994","NA","NA","19785","17351","1162","2","legacy","1024","1","44100","-16","experiment","lepal","2","0","1","0","1","Franzoesisch, Eng","23","","odd","7932975","NA","NA","NA","NA","NA","NA","7398199","NA","7398199","7398199","7895531","7915321","7940622","7939118","7941785","7935970","7932971","NA","NA","7814105","7884873","NA","7932741","NA","7932975","NA","7940621","7940621","NA","NA","7939114","NAP perception","2","2322","2","yes","1024"
"100","yes","100","1164","1164","white","no","xpyriment","Ich habe die obigen Informationen gelesen und verstanden.","legacy","legacy","0","uniform","1","0","NA","undefined","undefined","1","j","0","0","NA","NA","NA","NA","NA","0","0","0","0","0","0","2","2","2","0","0","NA","NA","0","0","0","0","NA","0","0","2","2","2","2","2","Thu Oct 26 11:53:44 2017","Forced-choice identification task with a practice and an experimental phase","yes","NAP_GER_AA_4blocks_noglides.osexp","/Users/aviadalbert/Documents/Academisch/UoC/Dissertation/Experiment/OpenSesame/NAP-FC/NAP_GER_AA_4blocks_noglides","yes","no","sans","no","20","no","black","no","Weiter","yes","768","legacy","2","2","0","/Users/aviadalbert/Documents/Academisch/UoC/Dissertation/Experiment/OpenSesame/NAP-FC/NAP_GER_AA_4blocks_noglides/subject-23.csv","xpyriment","Jazzy James","3.1.9","yes","yes","59a800d99ad5a1025d81bb03","59a801616c613b0251691de0","yes","no","0","j","f","NA","NA","space","space","j","1170","2994","NA","NA","19785","17351","1170","2","legacy","1024","1","44100","-16","experiment","emtal","2","0","1","0","1","Franzoesisch, Eng","23","","odd","7932975","NA","NA","NA","NA","NA","NA","7398199","NA","7398199","7398199","7895531","7915321","7943568","7942061","7944739","7935970","7932971","NA","NA","7814105","7884873","NA","7932741","NA","7932975","NA","7943568","7943568","NA","NA","7942057","NAP perception","3","3492","3","yes","1024"
"100","yes","100","1124.25","1124.25","white","no","xpyriment","Ich habe die obigen Informationen gelesen und verstanden.","legacy","legacy","0","uniform","1","0","NA","undefined","undefined","1","f","0","0","NA","NA","NA","NA","NA","0","0","0","0","0","0","3","3","3","0","0","NA","NA","0","0","0","0","NA","0","0","3","3","3","3","3","Thu Oct 26 11:53:44 2017","Forced-choice identification task with a practice and an experimental phase","yes","NAP_GER_AA_4blocks_noglides.osexp","/Users/aviadalbert/Documents/Academisch/UoC/Dissertation/Experiment/OpenSesame/NAP-FC/NAP_GER_AA_4blocks_noglides","yes","no","sans","no","20","no","black","no","Weiter","yes","768","legacy","3","3","0","/Users/aviadalbert/Documents/Academisch/UoC/Dissertation/Experiment/OpenSesame/NAP-FC/NAP_GER_AA_4blocks_noglides/subject-23.csv","xpyriment","Jazzy James","3.1.9","yes","yes","59a800d99ad5a1025d81bb03","59a801616c613b0251691de0","yes","no","0","f","f","NA","NA","space","space","f","1005","2994","NA","NA","19785","17351","1005","2","legacy","1024","1","44100","-16","experiment","ʃpal","2","0","1","0","1","Franzoesisch, Eng","23","","odd","7932975","NA","NA","NA","NA","NA","NA","7398199","NA","7398199","7398199","7895531","7915321","7946528","7945023","7947534","7935970","7932971","NA","NA","7814105","7884873","NA","7932741","NA","7932975","NA","7946528","7946528","NA","NA","7945019","NAP perception","4","4497","4","yes","1024"
"100","yes","100","1151.8","1151.8","white","no","xpyriment","Ich habe die obigen Informationen gelesen und verstanden.","legacy","legacy","0","uniform","1","0","NA","undefined","undefined","1","j","0","0","NA","NA","NA","NA","NA","0","0","0","0","0","0","4","4","4","0","0","NA","NA","0","0","0","0","NA","0","0","4","4","4","4","4","Thu Oct 26 11:53:44 2017","Forced-choice identification task with a practice and an experimental phase","yes","NAP_GER_AA_4blocks_noglides.osexp","/Users/aviadalbert/Documents/Academisch/UoC/Dissertation/Experiment/OpenSesame/NAP-FC/NAP_GER_AA_4blocks_noglides","yes","no","sans","no","20","no","black","no","Weiter","yes","768","legacy","4","4","0","/Users/aviadalbert/Documents/Academisch/UoC/Dissertation/Experiment/OpenSesame/NAP-FC/NAP_GER_AA_4blocks_noglides/subject-23.csv","xpyriment","Jazzy James","3.1.9","yes","yes","59a800d99ad5a1025d81bb03","59a801616c613b0251691de0","yes","no","0","j","f","NA","NA","space","space","j","1262","2994","NA","NA","19785","17351","1262","2","legacy","1024","1","44100","-16","experiment","nefal","2","0","1","0","1","Franzoesisch, Eng","23","","odd","7932975","NA","NA","NA","NA","NA","NA","7398199","NA","7398199","7398199","7895531","7915321","7949307","7947804","7950570","7935970","7932971","NA","NA","7814105","7884873","NA","7932741","NA","7932975","NA","7949307","7949307","NA","NA","7947800","NAP perception","5","5759","5","yes","1024"
"100","yes","100","1127.5","1127.5","white","no","xpyriment","Ich habe die obigen Informationen gelesen und verstanden.","legacy","legacy","0","uniform","1","0","NA","undefined","undefined","1","f","0","0","NA","NA","NA","NA","NA","0","0","0","0","0","0","5","5","5","0","0","NA","NA","0","0","0","0","NA","0","0","5","5","5","5","5","Thu Oct 26 11:53:44 2017","Forced-choice identification task with a practice and an experimental phase","yes","NAP_GER_AA_4blocks_noglides.osexp","/Users/aviadalbert/Documents/Academisch/UoC/Dissertation/Experiment/OpenSesame/NAP-FC/NAP_GER_AA_4blocks_noglides","yes","no","sans","no","20","no","black","no","Weiter","yes","768","legacy","5","5","0","/Users/aviadalbert/Documents/Academisch/UoC/Dissertation/Experiment/OpenSesame/NAP-FC/NAP_GER_AA_4blocks_noglides/subject-23.csv","xpyriment","Jazzy James","3.1.9","yes","yes","59a800d99ad5a1025d81bb03","59a801616c613b0251691de0","yes","no","0","f","f","NA","NA","space","space","f","1006","2994","NA","NA","19785","17351","1006","2","legacy","1024","1","44100","-16","experiment","sfal","2","0","1","0","1","Franzoesisch, Eng","23","","odd","7932975","NA","NA","NA","NA","NA","NA","7398199","NA","7398199","7398199","7895531","7915321","7952355","7950850","7953363","7935970","7932971","NA","NA","7814105","7884873","NA","7932741","NA","7932975","NA","7952355","7952355","NA","NA","7950846","NAP perception","6","6765","6","yes","1024"
"100","yes","100","1141","1141","white","no","xpyriment","Ich habe die obigen Informationen gelesen und verstanden.","legacy","legacy","0","uniform","1","0","NA","undefined","undefined","1","f","0","0","NA","NA","NA","NA","NA","0","0","0","0","0","0","6","6","6","0","0","NA","NA","0","0","0","0","NA","0","0","6","6","6","6","6","Thu Oct 26 11:53:44 2017","Forced-choice identification task with a practice and an experimental phase","yes","NAP_GER_AA_4blocks_noglides.osexp","/Users/aviadalbert/Documents/Academisch/UoC/Dissertation/Experiment/OpenSesame/NAP-FC/NAP_GER_AA_4blocks_noglides","yes","no","sans","no","20","no","black","no","Weiter","yes","768","legacy","6","6","0","/Users/aviadalbert/Documents/Academisch/UoC/Dissertation/Experiment/OpenSesame/NAP-FC/NAP_GER_AA_4blocks_noglides/subject-23.csv","xpyriment","Jazzy James","3.1.9","yes","yes","59a800d99ad5a1025d81bb03","59a801616c613b0251691de0","yes","no","0","f","f","NA","NA","space","space","f","1222","2994","NA","NA","19785","17351","1222","2","legacy","1024","1","44100","-16","experiment","zmal","2","0","1","0","1","Franzoesisch, Eng","23","","odd","7932975","NA","NA","NA","NA","NA","NA","7398199","NA","7398199","7398199","7895531","7915321","7955143","7953639","7956366","7935970","7932971","NA","NA","7814105","7884873","NA","7932741","NA","7932975","NA","7955142","7955142","NA","NA","7953635","NAP perception","7","7987","7","yes","1024"
"100","yes","100","1157.125","1157.125","white","no","xpyriment","Ich habe die obigen Informationen gelesen und verstanden.","legacy","legacy","0","uniform","1","0","NA","undefined","undefined","1","j","0","0","NA","NA","NA","NA","NA","0","0","0","0","0","0","7","7","7","0","0","NA","NA","0","0","0","0","NA","0","0","7","7","7","7","7","Thu Oct 26 11:53:44 2017","Forced-choice identification task with a practice and an experimental phase","yes","NAP_GER_AA_4blocks_noglides.osexp","/Users/aviadalbert/Documents/Academisch/UoC/Dissertation/Experiment/OpenSesame/NAP-FC/NAP_GER_AA_4blocks_noglides","yes","no","sans","no","20","no","black","no","Weiter","yes","768","legacy","7","7","0","/Users/aviadalbert/Documents/Academisch/UoC/Dissertation/Experiment/OpenSesame/NAP-FC/NAP_GER_AA_4blocks_noglides/subject-23.csv","xpyriment","Jazzy James","3.1.9","yes","yes","59a800d99ad5a1025d81bb03","59a801616c613b0251691de0","yes","no","0","j","f","NA","NA","space","space","j","1270","2994","NA","NA","19785","17351","1270","2","legacy","1024","1","44100","-16","experiment","mesal","2","0","1","0","1","Franzoesisch, Eng","23","","odd","7932975","NA","NA","NA","NA","NA","NA","7398199","NA","7398199","7398199","7895531","7915321","7958172","7956667","7959443","7935970","7932971","NA","NA","7814105","7884873","NA","7932741","NA","7932975","NA","7958172","7958172","NA","NA","7956663","NAP perception","8","9257","8","yes","1024"
"100","yes","100","1170.55555556","1170.55555556","white","no","xpyriment","Ich habe die obigen Informationen gelesen und verstanden.","legacy","legacy","0","uniform","1","0","NA","undefined","undefined","1","j","0","0","NA","NA","NA","NA","NA","0","0","0","0","0","0","8","8","8","0","0","NA","NA","0","0","0","0","NA","0","0","8","8","8","8","8","Thu Oct 26 11:53:44 2017","Forced-choice identification task with a practice and an experimental phase","yes","NAP_GER_AA_4blocks_noglides.osexp","/Users/aviadalbert/Documents/Academisch/UoC/Dissertation/Experiment/OpenSesame/NAP-FC/NAP_GER_AA_4blocks_noglides","yes","no","sans","no","20","no","black","no","Weiter","yes","768","legacy","8","8","0","/Users/aviadalbert/Documents/Academisch/UoC/Dissertation/Experiment/OpenSesame/NAP-FC/NAP_GER_AA_4blocks_noglides/subject-23.csv","xpyriment","Jazzy James","3.1.9","yes","yes","59a800d99ad5a1025d81bb03","59a801616c613b0251691de0","yes","no","0","j","f","NA","NA","space","space","j","1278","2994","NA","NA","19785","17351","1278","2","legacy","1024","1","44100","-16","experiment","enval","2","0","1","0","1","Franzoesisch, Eng","23","","odd","7932975","NA","NA","NA","NA","NA","NA","7398199","NA","7398199","7398199","7895531","7915321","7961240","7959736","7962519","7935970","7932971","NA","NA","7814105","7884873","NA","7932741","NA","7932975","NA","7961240","7961240","NA","NA","7959732","NAP perception","9","10535","9","yes","1024"
"100","yes","100","1143.3","1143.3","white","no","xpyriment","Ich habe die obigen Informationen gelesen und verstanden.","legacy","legacy","0","uniform","1","0","NA","undefined","undefined","1","f","0","0","NA","NA","NA","NA","NA","0","0","0","0","0","0","9","9","9","0","0","NA","NA","0","0","0","0","NA","0","0","9","9","9","9","9","Thu Oct 26 11:53:44 2017","Forced-choice identification task with a practice and an experimental phase","yes","NAP_GER_AA_4blocks_noglides.osexp","/Users/aviadalbert/Documents/Academisch/UoC/Dissertation/Experiment/OpenSesame/NAP-FC/NAP_GER_AA_4blocks_noglides","yes","no","sans","no","20","no","black","no","Weiter","yes","768","legacy","9","9","0","/Users/aviadalbert/Documents/Academisch/UoC/Dissertation/Experiment/OpenSesame/NAP-FC/NAP_GER_AA_4blocks_noglides/subject-23.csv","xpyriment","Jazzy James","3.1.9","yes","yes","59a800d99ad5a1025d81bb03","59a801616c613b0251691de0","yes","no","0","f","f","NA","NA","space","space","f","898","2994","NA","NA","19785","17351","898","2","legacy","1024","1","44100","-16","experiment","vlal","2","0","1","0","1","Franzoesisch, Eng","23","","odd","7932975","NA","NA","NA","NA","NA","NA","7398199","NA","7398199","7398199","7895531","7915321","7964295","7962791","7965194","7935970","7932971","NA","NA","7814105","7884873","NA","7932741","NA","7932975","NA","7964295","7964295","NA","NA","7962787","NAP perception","10","11433","10","yes","1024"
"0","yes","0","1242","1242","white","no","xpyriment","Ich habe die obigen Informationen gelesen und verstanden.","legacy","legacy","0","uniform","0","0","0","undefined","undefined","0","j","2","1","NA","0","1","0","0","0","0","0","0","0","0","10","10","10","0","0","0","NA","0","0","2","0","0","0","2","10","10","10","10","10","Thu Oct 26 11:53:44 2017","Forced-choice identification task with a practice and an experimental phase","yes","NAP_GER_AA_4blocks_noglides.osexp","/Users/aviadalbert/Documents/Academisch/UoC/Dissertation/Experiment/OpenSesame/NAP-FC/NAP_GER_AA_4blocks_noglides","yes","no","sans","no","20","no","black","no","Weiter","yes","768","legacy","0","9","0","/Users/aviadalbert/Documents/Academisch/UoC/Dissertation/Experiment/OpenSesame/NAP-FC/NAP_GER_AA_4blocks_noglides/subject-23.csv","xpyriment","Jazzy James","3.1.9","yes","yes","59a800d99ad5a1025d81bb03","59a801616c613b0251691de0","no","no","0","f","f","space","NA","space","space","f","1242","3140","17885","NA","19785","17351","1242","2","legacy","1024","1","44100","-16","experiment","lekal","2","0","1","0","1","Franzoesisch, Eng","23","","odd","7985311","7966913","NA","NA","7988452","7985308","NA","7398199","7984853","7398199","7398199","7895531","7915321","7990194","7988690","7991437","7935970","7932971","7966913","NA","7814105","7884873","7965256","7932741","7985311","7932975","NA","7990194","7990194","NA","NA","7988686","NAP perception","0","1242","1","yes","1024"
"0","yes","0","1131","1131","white","no","xpyriment","Ich habe die obigen Informationen gelesen und verstanden.","legacy","legacy","0","uniform","0","0","0","undefined","undefined","0","f","2","1","NA","0","1","0","0","0","0","0","0","0","0","11","11","11","0","0","0","NA","0","0","2","0","0","0","2","11","11","11","11","11","Thu Oct 26 11:53:44 2017","Forced-choice identification task with a practice and an experimental phase","yes","NAP_GER_AA_4blocks_noglides.osexp","/Users/aviadalbert/Documents/Academisch/UoC/Dissertation/Experiment/OpenSesame/NAP-FC/NAP_GER_AA_4blocks_noglides","yes","no","sans","no","20","no","black","no","Weiter","yes","768","legacy","1","9","0","/Users/aviadalbert/Documents/Academisch/UoC/Dissertation/Experiment/OpenSesame/NAP-FC/NAP_GER_AA_4blocks_noglides/subject-23.csv","xpyriment","Jazzy James","3.1.9","yes","yes","59a800d99ad5a1025d81bb03","59a801616c613b0251691de0","no","no","0","j","f","space","NA","space","space","j","1020","3140","17885","NA","19785","17351","1020","2","legacy","1024","1","44100","-16","experiment","msal","2","0","1","0","1","Franzoesisch, Eng","23","","odd","7985311","7966913","NA","NA","7988452","7985308","NA","7398199","7984853","7398199","7398199","7895531","7915321","7993219","7991715","7994240","7935970","7932971","7966913","NA","7814105","7884873","7965256","7932741","7985311","7932975","NA","7993218","7993218","NA","NA","7991711","NAP perception","0","2262","2","yes","1024"
"33.3333333333","yes","33.3333333333","1209","1209","white","no","xpyriment","Ich habe die obigen Informationen gelesen und verstanden.","legacy","legacy","0","uniform","1","0","0","undefined","undefined","1","f","2","1","NA","0","1","0","0","0","0","0","0","0","0","12","12","12","0","0","0","NA","0","0","2","0","0","0","2","12","12","12","12","12","Thu Oct 26 11:53:44 2017","Forced-choice identification task with a practice and an experimental phase","yes","NAP_GER_AA_4blocks_noglides.osexp","/Users/aviadalbert/Documents/Academisch/UoC/Dissertation/Experiment/OpenSesame/NAP-FC/NAP_GER_AA_4blocks_noglides","yes","no","sans","no","20","no","black","no","Weiter","yes","768","legacy","2","9","0","/Users/aviadalbert/Documents/Academisch/UoC/Dissertation/Experiment/OpenSesame/NAP-FC/NAP_GER_AA_4blocks_noglides/subject-23.csv","xpyriment","Jazzy James","3.1.9","yes","yes","59a800d99ad5a1025d81bb03","59a801616c613b0251691de0","no","no","0","f","f","space","NA","space","space","f","1365","3140","17885","NA","19785","17351","1365","2","legacy","1024","1","44100","-16","experiment","lfal","2","0","1","0","1","Franzoesisch, Eng","23","","odd","7985311","7966913","NA","NA","7988452","7985308","NA","7398199","7984853","7398199","7398199","7895531","7915321","7996022","7994517","7997388","7935970","7932971","7966913","NA","7814105","7884873","7965256","7932741","7985311","7932975","NA","7996022","7996022","NA","NA","7994513","NAP perception","1","3627","3","yes","1024"
"50","yes","50","1255.5","1255.5","white","no","xpyriment","Ich habe die obigen Informationen gelesen und verstanden.","legacy","legacy","0","uniform","1","0","0","undefined","undefined","1","j","2","1","NA","0","1","0","0","0","0","0","0","0","0","13","13","13","0","0","0","NA","0","0","2","0","0","0","2","13","13","13","13","13","Thu Oct 26 11:53:44 2017","Forced-choice identification task with a practice and an experimental phase","yes","NAP_GER_AA_4blocks_noglides.osexp","/Users/aviadalbert/Documents/Academisch/UoC/Dissertation/Experiment/OpenSesame/NAP-FC/NAP_GER_AA_4blocks_noglides","yes","no","sans","no","20","no","black","no","Weiter","yes","768","legacy","3","9","0","/Users/aviadalbert/Documents/Academisch/UoC/Dissertation/Experiment/OpenSesame/NAP-FC/NAP_GER_AA_4blocks_noglides/subject-23.csv","xpyriment","Jazzy James","3.1.9","yes","yes","59a800d99ad5a1025d81bb03","59a801616c613b0251691de0","no","no","0","j","f","space","NA","space","space","j","1395","3140","17885","NA","19785","17351","1395","2","legacy","1024","1","44100","-16","experiment","ʃemal","2","0","1","0","1","Franzoesisch, Eng","23","","odd","7985311","7966913","NA","NA","7988452","7985308","NA","7398199","7984853","7398199","7398199","7895531","7915321","7999169","7997666","8000567","7935970","7932971","7966913","NA","7814105","7884873","7965256","7932741","7985311","7932975","NA","7999169","7999169","NA","NA","7997662","NAP perception","2","5022","4","yes","1024"
"60","yes","60","1332.6","1332.6","white","no","xpyriment","Ich habe die obigen Informationen gelesen und verstanden.","legacy","legacy","0","uniform","1","0","0","undefined","undefined","1","j","2","1","NA","0","1","0","0","0","0","0","0","0","0","14","14","14","0","0","0","NA","0","0","2","0","0","0","2","14","14","14","14","14","Thu Oct 26 11:53:44 2017","Forced-choice identification task with a practice and an experimental phase","yes","NAP_GER_AA_4blocks_noglides.osexp","/Users/aviadalbert/Documents/Academisch/UoC/Dissertation/Experiment/OpenSesame/NAP-FC/NAP_GER_AA_4blocks_noglides","yes","no","sans","no","20","no","black","no","Weiter","yes","768","legacy","4","9","0","/Users/aviadalbert/Documents/Academisch/UoC/Dissertation/Experiment/OpenSesame/NAP-FC/NAP_GER_AA_4blocks_noglides/subject-23.csv","xpyriment","Jazzy James","3.1.9","yes","yes","59a800d99ad5a1025d81bb03","59a801616c613b0251691de0","no","no","0","j","f","space","NA","space","space","j","1641","3140","17885","NA","19785","17351","1641","2","legacy","1024","1","44100","-16","experiment","elfal","2","0","1","0","1","Franzoesisch, Eng","23","","odd","7985311","7966913","NA","NA","7988452","7985308","NA","7398199","7984853","7398199","7398199","7895531","7915321","8002363","8000859","8004005","7935970","7932971","7966913","NA","7814105","7884873","7965256","7932741","7985311","7932975","NA","8002362","8002362","NA","NA","8000855","NAP perception","3","6663","5","yes","1024"
"66.6666666667","yes","66.6666666667","1315","1315","white","no","xpyriment","Ich habe die obigen Informationen gelesen und verstanden.","legacy","legacy","0","uniform","1","0","0","undefined","undefined","1","j","2","1","NA","0","1","0","0","0","0","0","0","0","0","15","15","15","0","0","0","NA","0","0","2","0","0","0","2","15","15","15","15","15","Thu Oct 26 11:53:44 2017","Forced-choice identification task with a practice and an experimental phase","yes","NAP_GER_AA_4blocks_noglides.osexp","/Users/aviadalbert/Documents/Academisch/UoC/Dissertation/Experiment/OpenSesame/NAP-FC/NAP_GER_AA_4blocks_noglides","yes","no","sans","no","20","no","black","no","Weiter","yes","768","legacy","5","9","0","/Users/aviadalbert/Documents/Academisch/UoC/Dissertation/Experiment/OpenSesame/NAP-FC/NAP_GER_AA_4blocks_noglides/subject-23.csv","xpyriment","Jazzy James","3.1.9","yes","yes","59a800d99ad5a1025d81bb03","59a801616c613b0251691de0","no","no","0","j","f","space","NA","space","space","j","1227","3140","17885","NA","19785","17351","1227","2","legacy","1024","1","44100","-16","experiment","nemal","2","0","1","0","1","Franzoesisch, Eng","23","","odd","7985311","7966913","NA","NA","7988452","7985308","NA","7398199","7984853","7398199","7398199","7895531","7915321","8005787","8004280","8007015","7935970","7932971","7966913","NA","7814105","7884873","7965256","7932741","7985311","7932975","NA","8005787","8005787","NA","NA","8004276","NAP perception","4","7890","6","yes","1024"
"71.4285714286","yes","71.4285714286","1297","1297","white","no","xpyriment","Ich habe die obigen Informationen gelesen und verstanden.","legacy","legacy","0","uniform","1","0","0","undefined","undefined","1","j","2","1","NA","0","1","0","0","0","0","0","0","0","0","16","16","16","0","0","0","NA","0","0","2","0","0","0","2","16","16","16","16","16","Thu Oct 26 11:53:44 2017","Forced-choice identification task with a practice and an experimental phase","yes","NAP_GER_AA_4blocks_noglides.osexp","/Users/aviadalbert/Documents/Academisch/UoC/Dissertation/Experiment/OpenSesame/NAP-FC/NAP_GER_AA_4blocks_noglides","yes","no","sans","no","20","no","black","no","Weiter","yes","768","legacy","6","9","0","/Users/aviadalbert/Documents/Academisch/UoC/Dissertation/Experiment/OpenSesame/NAP-FC/NAP_GER_AA_4blocks_noglides/subject-23.csv","xpyriment","Jazzy James","3.1.9","yes","yes","59a800d99ad5a1025d81bb03","59a801616c613b0251691de0","no","no","0","j","f","space","NA","space","space","j","1189","3140","17885","NA","19785","17351","1189","2","legacy","1024","1","44100","-16","experiment","elkal","2","0","1","0","1","Franzoesisch, Eng","23","","odd","7985311","7966913","NA","NA","7988452","7985308","NA","7398199","7984853","7398199","7398199","7895531","7915321","8008811","8007305","8010000","7935970","7932971","7966913","NA","7814105","7884873","7965256","7932741","7985311","7932975","NA","8008810","8008810","NA","NA","8007301","NAP perception","5","9079","7","yes","1024"
"75","yes","75","1293.125","1293.125","white","no","xpyriment","Ich habe die obigen Informationen gelesen und verstanden.","legacy","legacy","0","uniform","1","0","0","undefined","undefined","1","j","2","1","NA","0","1","0","0","0","0","0","0","0","0","17","17","17","0","0","0","NA","0","0","2","0","0","0","2","17","17","17","17","17","Thu Oct 26 11:53:44 2017","Forced-choice identification task with a practice and an experimental phase","yes","NAP_GER_AA_4blocks_noglides.osexp","/Users/aviadalbert/Documents/Academisch/UoC/Dissertation/Experiment/OpenSesame/NAP-FC/NAP_GER_AA_4blocks_noglides","yes","no","sans","no","20","no","black","no","Weiter","yes","768","legacy","7","9","0","/Users/aviadalbert/Documents/Academisch/UoC/Dissertation/Experiment/OpenSesame/NAP-FC/NAP_GER_AA_4blocks_noglides/subject-23.csv","xpyriment","Jazzy James","3.1.9","yes","yes","59a800d99ad5a1025d81bb03","59a801616c613b0251691de0","no","no","0","j","f","space","NA","space","space","j","1266","3140","17885","NA","19785","17351","1266","2","legacy","1024","1","44100","-16","experiment","efsal","2","0","1","0","1","Franzoesisch, Eng","23","","odd","7985311","7966913","NA","NA","7988452","7985308","NA","7398199","7984853","7398199","7398199","7895531","7915321","8011778","8010273","8013045","7935970","7932971","7966913","NA","7814105","7884873","7965256","7932741","7985311","7932975","NA","8011778","8011778","NA","NA","8010269","NAP perception","6","10345","8","yes","1024"
"77.7777777778","yes","77.7777777778","1325.33333333","1325.33333333","white","no","xpyriment","Ich habe die obigen Informationen gelesen und verstanden.","legacy","legacy","0","uniform","1","0","0","undefined","undefined","1","f","2","1","NA","0","1","0","0","0","0","0","0","0","0","18","18","18","0","0","0","NA","0","0","2","0","0","0","2","18","18","18","18","18","Thu Oct 26 11:53:44 2017","Forced-choice identification task with a practice and an experimental phase","yes","NAP_GER_AA_4blocks_noglides.osexp","/Users/aviadalbert/Documents/Academisch/UoC/Dissertation/Experiment/OpenSesame/NAP-FC/NAP_GER_AA_4blocks_noglides","yes","no","sans","no","20","no","black","no","Weiter","yes","768","legacy","8","9","0","/Users/aviadalbert/Documents/Academisch/UoC/Dissertation/Experiment/OpenSesame/NAP-FC/NAP_GER_AA_4blocks_noglides/subject-23.csv","xpyriment","Jazzy James","3.1.9","yes","yes","59a800d99ad5a1025d81bb03","59a801616c613b0251691de0","no","no","0","f","f","space","NA","space","space","f","1583","3140","17885","NA","19785","17351","1583","2","legacy","1024","1","44100","-16","experiment","nval","2","0","1","0","1","Franzoesisch, Eng","23","","odd","7985311","7966913","NA","NA","7988452","7985308","NA","7398199","7984853","7398199","7398199","7895531","7915321","8014826","8013321","8016410","7935970","7932971","7966913","NA","7814105","7884873","7965256","7932741","7985311","7932975","NA","8014825","8014825","NA","NA","8013317","NAP perception","7","11928","9","yes","1024"
"80","yes","80","1298.7","1298.7","white","no","xpyriment","Ich habe die obigen Informationen gelesen und verstanden.","legacy","legacy","0","uniform","1","0","0","undefined","undefined","1","f","2","1","NA","0","1","0","0","0","0","0","0","0","0","19","19","19","0","0","0","NA","0","0","2","0","0","0","2","19","19","19","19","19","Thu Oct 26 11:53:44 2017","Forced-choice identification task with a practice and an experimental phase","yes","NAP_GER_AA_4blocks_noglides.osexp","/Users/aviadalbert/Documents/Academisch/UoC/Dissertation/Experiment/OpenSesame/NAP-FC/NAP_GER_AA_4blocks_noglides","yes","no","sans","no","20","no","black","no","Weiter","yes","768","legacy","9","9","0","/Users/aviadalbert/Documents/Academisch/UoC/Dissertation/Experiment/OpenSesame/NAP-FC/NAP_GER_AA_4blocks_noglides/subject-23.csv","xpyriment","Jazzy James","3.1.9","yes","yes","59a800d99ad5a1025d81bb03","59a801616c613b0251691de0","no","no","0","f","f","space","NA","space","space","f","1059","3140","17885","NA","19785","17351","1059","2","legacy","1024","1","44100","-16","experiment","fsal","2","0","1","0","1","Franzoesisch, Eng","23","","odd","7985311","7966913","NA","NA","7988452","7985308","NA","7398199","7984853","7398199","7398199","7895531","7915321","8018198","8016693","8019258","7935970","7932971","7966913","NA","7814105","7884873","7965256","7932741","7985311","7932975","NA","8018198","8018198","NA","NA","8016689","NAP perception","8","12987","10","yes","1024"
"81.8181818182","yes","81.8181818182","1287","1287","white","no","xpyriment","Ich habe die obigen Informationen gelesen und verstanden.","legacy","legacy","0","uniform","1","0","0","undefined","undefined","1","f","2","1","NA","0","1","0","0","0","0","0","0","0","0","20","20","20","0","0","0","NA","0","0","2","0","0","0","2","20","20","20","20","20","Thu Oct 26 11:53:44 2017","Forced-choice identification task with a practice and an experimental phase","yes","NAP_GER_AA_4blocks_noglides.osexp","/Users/aviadalbert/Documents/Academisch/UoC/Dissertation/Experiment/OpenSesame/NAP-FC/NAP_GER_AA_4blocks_noglides","yes","no","sans","no","20","no","black","no","Weiter","yes","768","legacy","10","9","0","/Users/aviadalbert/Documents/Academisch/UoC/Dissertation/Experiment/OpenSesame/NAP-FC/NAP_GER_AA_4blocks_noglides/subject-23.csv","xpyriment","Jazzy James","3.1.9","yes","yes","59a800d99ad5a1025d81bb03","59a801616c613b0251691de0","no","no","0","f","f","space","NA","space","space","f","1170","3140","17885","NA","19785","17351","1170","2","legacy","1024","1","44100","-16","experiment","lpal","2","0","1","0","1","Franzoesisch, Eng","23","","odd","7985311","7966913","NA","NA","7988452","7985308","NA","7398199","7984853","7398199","7398199","7895531","7915321","8021036","8019532","8022207","7935970","7932971","7966913","NA","7814105","7884873","7965256","7932741","7985311","7932975","NA","8021036","8021036","NA","NA","8019528","NAP perception","9","14157","11","yes","1024"
"75","yes","75","1276.5","1276.5","white","no","xpyriment","Ich habe die obigen Informationen gelesen und verstanden.","legacy","legacy","0","uniform","0","0","0","undefined","undefined","0","j","2","1","NA","0","1","0","0","0","0","0","0","0","0","21","21","21","0","0","0","NA","0","0","2","0","0","0","2","21","21","21","21","21","Thu Oct 26 11:53:44 2017","Forced-choice identification task with a practice and an experimental phase","yes","NAP_GER_AA_4blocks_noglides.osexp","/Users/aviadalbert/Documents/Academisch/UoC/Dissertation/Experiment/OpenSesame/NAP-FC/NAP_GER_AA_4blocks_noglides","yes","no","sans","no","20","no","black","no","Weiter","yes","768","legacy","11","9","0","/Users/aviadalbert/Documents/Academisch/UoC/Dissertation/Experiment/OpenSesame/NAP-FC/NAP_GER_AA_4blocks_noglides/subject-23.csv","xpyriment","Jazzy James","3.1.9","yes","yes","59a800d99ad5a1025d81bb03","59a801616c613b0251691de0","no","no","0","f","f","space","NA","space","space","f","1161","3140","17885","NA","19785","17351","1161","2","legacy","1024","1","44100","-16","experiment","fesal","2","0","1","0","1","Franzoesisch, Eng","23","","odd","7985311","7966913","NA","NA","7988452","7985308","NA","7398199","7984853","7398199","7398199","7895531","7915321","8023993","8022489","8025155","7935970","7932971","7966913","NA","7814105","7884873","7965256","7932741","7985311","7932975","NA","8023993","8023993","NA","NA","8022485","NAP perception","9","15318","12","yes","1024"
"76.9230769231","yes","76.9230769231","1284","1284","white","no","xpyriment","Ich habe die obigen Informationen gelesen und verstanden.","legacy","legacy","0","uniform","1","0","0","undefined","undefined","1","f","2","1","NA","0","1","0","0","0","0","0","0","0","0","22","22","22","0","0","0","NA","0","0","2","0","0","0","2","22","22","22","22","22","Thu Oct 26 11:53:44 2017","Forced-choice identification task with a practice and an experimental phase","yes","NAP_GER_AA_4blocks_noglides.osexp","/Users/aviadalbert/Documents/Academisch/UoC/Dissertation/Experiment/OpenSesame/NAP-FC/NAP_GER_AA_4blocks_noglides","yes","no","sans","no","20","no","black","no","Weiter","yes","768","legacy","12","9","0","/Users/aviadalbert/Documents/Academisch/UoC/Dissertation/Experiment/OpenSesame/NAP-FC/NAP_GER_AA_4blocks_noglides/subject-23.csv","xpyriment","Jazzy James","3.1.9","yes","yes","59a800d99ad5a1025d81bb03","59a801616c613b0251691de0","no","no","0","f","f","space","NA","space","space","f","1374","3140","17885","NA","19785","17351","1374","2","legacy","1024","1","44100","-16","experiment","mnal","2","0","1","0","1","Franzoesisch, Eng","23","","odd","7985311","7966913","NA","NA","7988452","7985308","NA","7398199","7984853","7398199","7398199","7895531","7915321","8026926","8025421","8028302","7935970","7932971","7966913","NA","7814105","7884873","7965256","7932741","7985311","7932975","NA","8026926","8026926","NA","NA","8025417","NAP perception","10","16692","13","yes","1024"
"78.5714285714","yes","78.5714285714","1305.35714286","1305.35714286","white","no","xpyriment","Ich habe die obigen Informationen gelesen und verstanden.","legacy","legacy","0","uniform","1","0","0","undefined","undefined","1","f","2","1","NA","0","1","0","0","0","0","0","0","0","0","23","23","23","0","0","0","NA","0","0","2","0","0","0","2","23","23","23","23","23","Thu Oct 26 11:53:44 2017","Forced-choice identification task with a practice and an experimental phase","yes","NAP_GER_AA_4blocks_noglides.osexp","/Users/aviadalbert/Documents/Academisch/UoC/Dissertation/Experiment/OpenSesame/NAP-FC/NAP_GER_AA_4blocks_noglides","yes","no","sans","no","20","no","black","no","Weiter","yes","768","legacy","13","9","0","/Users/aviadalbert/Documents/Academisch/UoC/Dissertation/Experiment/OpenSesame/NAP-FC/NAP_GER_AA_4blocks_noglides/subject-23.csv","xpyriment","Jazzy James","3.1.9","yes","yes","59a800d99ad5a1025d81bb03","59a801616c613b0251691de0","no","no","0","f","f","space","NA","space","space","f","1583","3140","17885","NA","19785","17351","1583","2","legacy","1024","1","44100","-16","experiment","zval","2","0","1","0","1","Franzoesisch, Eng","23","","odd","7985311","7966913","NA","NA","7988452","7985308","NA","7398199","7984853","7398199","7398199","7895531","7915321","8030086","8028581","8031671","7935970","7932971","7966913","NA","7814105","7884873","7965256","7932741","7985311","7932975","NA","8030086","8030086","NA","NA","8028577","NAP perception","11","18275","14","yes","1024"
"80","yes","80","1356.93333333","1356.93333333","white","no","xpyriment","Ich habe die obigen Informationen gelesen und verstanden.","legacy","legacy","0","uniform","1","0","0","undefined","undefined","1","j","2","1","NA","0","1","0","0","0","0","0","0","0","0","24","24","24","0","0","0","NA","0","0","2","0","0","0","2","24","24","24","24","24","Thu Oct 26 11:53:44 2017","Forced-choice identification task with a practice and an experimental phase","yes","NAP_GER_AA_4blocks_noglides.osexp","/Users/aviadalbert/Documents/Academisch/UoC/Dissertation/Experiment/OpenSesame/NAP-FC/NAP_GER_AA_4blocks_noglides","yes","no","sans","no","20","no","black","no","Weiter","yes","768","legacy","14","9","0","/Users/aviadalbert/Documents/Academisch/UoC/Dissertation/Experiment/OpenSesame/NAP-FC/NAP_GER_AA_4blocks_noglides/subject-23.csv","xpyriment","Jazzy James","3.1.9","yes","yes","59a800d99ad5a1025d81bb03","59a801616c613b0251691de0","no","no","0","j","f","space","NA","space","space","j","2079","3140","17885","NA","19785","17351","2079","2","legacy","1024","1","44100","-16","experiment","lepal","2","0","1","0","1","Franzoesisch, Eng","23","","odd","7985311","7966913","NA","NA","7988452","7985308","NA","7398199","7984853","7398199","7398199","7895531","7915321","8033458","8031955","8035539","7935970","7932971","7966913","NA","7814105","7884873","7965256","7932741","7985311","7932975","NA","8033458","8033458","NA","NA","8031951","NAP perception","12","20354","15","yes","1024"
"81.25","yes","81.25","1323.6875","1323.6875","white","no","xpyriment","Ich habe die obigen Informationen gelesen und verstanden.","legacy","legacy","0","uniform","1","0","0","undefined","undefined","1","f","2","1","NA","0","1","0","0","0","0","0","0","0","0","25","25","25","0","0","0","NA","0","0","2","0","0","0","2","25","25","25","25","25","Thu Oct 26 11:53:44 2017","Forced-choice identification task with a practice and an experimental phase","yes","NAP_GER_AA_4blocks_noglides.osexp","/Users/aviadalbert/Documents/Academisch/UoC/Dissertation/Experiment/OpenSesame/NAP-FC/NAP_GER_AA_4blocks_noglides","yes","no","sans","no","20","no","black","no","Weiter","yes","768","legacy","15","9","0","/Users/aviadalbert/Documents/Academisch/UoC/Dissertation/Experiment/OpenSesame/NAP-FC/NAP_GER_AA_4blocks_noglides/subject-23.csv","xpyriment","Jazzy James","3.1.9","yes","yes","59a800d99ad5a1025d81bb03","59a801616c613b0251691de0","no","no","0","f","f","space","NA","space","space","f","825","3140","17885","NA","19785","17351","825","2","legacy","1024","1","44100","-16","experiment","sfal","2","0","1","0","1","Franzoesisch, Eng","23","","odd","7985311","7966913","NA","NA","7988452","7985308","NA","7398199","7984853","7398199","7398199","7895531","7915321","8037337","8035833","8038164","7935970","7932971","7966913","NA","7814105","7884873","7965256","7932741","7985311","7932975","NA","8037336","8037337","NA","NA","8035829","NAP perception","13","21179","16","yes","1024"
"76.4705882353","yes","76.4705882353","1357.52941176","1357.52941176","white","no","xpyriment","Ich habe die obigen Informationen gelesen und verstanden.","legacy","legacy","0","uniform","0","0","0","undefined","undefined","0","j","2","1","NA","0","1","0","0","0","0","0","0","0","0","26","26","26","0","0","0","NA","0","0","2","0","0","0","2","26","26","26","26","26","Thu Oct 26 11:53:44 2017","Forced-choice identification task with a practice and an experimental phase","yes","NAP_GER_AA_4blocks_noglides.osexp","/Users/aviadalbert/Documents/Academisch/UoC/Dissertation/Experiment/OpenSesame/NAP-FC/NAP_GER_AA_4blocks_noglides","yes","no","sans","no","20","no","black","no","Weiter","yes","768","legacy","16","9","0","/Users/aviadalbert/Documents/Academisch/UoC/Dissertation/Experiment/OpenSesame/NAP-FC/NAP_GER_AA_4blocks_noglides/subject-23.csv","xpyriment","Jazzy James","3.1.9","yes","yes","59a800d99ad5a1025d81bb03","59a801616c613b0251691de0","no","no","0","f","f","space","NA","space","space","f","1899","3140","17885","NA","19785","17351","1899","2","legacy","1024","1","44100","-16","experiment","efnal","2","0","1","0","1","Franzoesisch, Eng","23","","odd","7985311","7966913","NA","NA","7988452","7985308","NA","7398199","7984853","7398199","7398199","7895531","7915321","8039947","8038444","8041847","7935970","7932971","7966913","NA","7814105","7884873","7965256","7932741","7985311","7932975","NA","8039947","8039947","NA","NA","8038440","NAP perception","13","23078","17","yes","1024"
"77.7777777778","yes","77.7777777778","1334.88888889","1334.88888889","white","no","xpyriment","Ich habe die obigen Informationen gelesen und verstanden.","legacy","legacy","0","uniform","1","0","0","undefined","undefined","1","f","2","1","NA","0","1","0","0","0","0","0","0","0","0","27","27","27","0","0","0","NA","0","0","2","0","0","0","2","27","27","27","27","27","Thu Oct 26 11:53:44 2017","Forced-choice identification task with a practice and an experimental phase","yes","NAP_GER_AA_4blocks_noglides.osexp","/Users/aviadalbert/Documents/Academisch/UoC/Dissertation/Experiment/OpenSesame/NAP-FC/NAP_GER_AA_4blocks_noglides","yes","no","sans","no","20","no","black","no","Weiter","yes","768","legacy","17","9","0","/Users/aviadalbert/Documents/Academisch/UoC/Dissertation/Experiment/OpenSesame/NAP-FC/NAP_GER_AA_4blocks_noglides/subject-23.csv","xpyriment","Jazzy James","3.1.9","yes","yes","59a800d99ad5a1025d81bb03","59a801616c613b0251691de0","no","no","0","f","f","space","NA","space","space","f","950","3140","17885","NA","19785","17351","950","2","legacy","1024","1","44100","-16","experiment","fnal","2","0","1","0","1","Franzoesisch, Eng","23","","odd","7985311","7966913","NA","NA","7988452","7985308","NA","7398199","7984853","7398199","7398199","7895531","7915321","8043630","8042125","8044581","7935970","7932971","7966913","NA","7814105","7884873","7965256","7932741","7985311","7932975","NA","8043629","8043630","NA","NA","8042121","NAP perception","14","24028","18","yes","1024"
"78.9473684211","yes","78.9473684211","1362.68421053","1362.68421053","white","no","xpyriment","Ich habe die obigen Informationen gelesen und verstanden.","legacy","legacy","0","uniform","1","0","0","undefined","undefined","1","f","2","1","NA","0","1","0","0","0","0","0","0","0","0","28","28","28","0","0","0","NA","0","0","2","0","0","0","2","28","28","28","28","28","Thu Oct 26 11:53:44 2017","Forced-choice identification task with a practice and an experimental phase","yes","NAP_GER_AA_4blocks_noglides.osexp","/Users/aviadalbert/Documents/Academisch/UoC/Dissertation/Experiment/OpenSesame/NAP-FC/NAP_GER_AA_4blocks_noglides","yes","no","sans","no","20","no","black","no","Weiter","yes","768","legacy","18","9","0","/Users/aviadalbert/Documents/Academisch/UoC/Dissertation/Experiment/OpenSesame/NAP-FC/NAP_GER_AA_4blocks_noglides/subject-23.csv","xpyriment","Jazzy James","3.1.9","yes","yes","59a800d99ad5a1025d81bb03","59a801616c613b0251691de0","no","no","0","f","f","space","NA","space","space","f","1863","3140","17885","NA","19785","17351","1863","2","legacy","1024","1","44100","-16","experiment","lval","2","0","1","0","1","Franzoesisch, Eng","23","","odd","7985311","7966913","NA","NA","7988452","7985308","NA","7398199","7984853","7398199","7398199","7895531","7915321","8046376","8044870","8048241","7935970","7932971","7966913","NA","7814105","7884873","7965256","7932741","7985311","7932975","NA","8046375","8046375","NA","NA","8044866","NAP perception","15","25891","19","yes","1024"
"80","yes","80","1353.8","1353.8","white","no","xpyriment","Ich habe die obigen Informationen gelesen und verstanden.","legacy","legacy","0","uniform","1","0","0","undefined","undefined","1","f","2","1","NA","0","1","0","0","0","0","0","0","0","0","29","29","29","0","0","0","NA","0","0","2","0","0","0","2","29","29","29","29","29","Thu Oct 26 11:53:44 2017","Forced-choice identification task with a practice and an experimental phase","yes","NAP_GER_AA_4blocks_noglides.osexp","/Users/aviadalbert/Documents/Academisch/UoC/Dissertation/Experiment/OpenSesame/NAP-FC/NAP_GER_AA_4blocks_noglides","yes","no","sans","no","20","no","black","no","Weiter","yes","768","legacy","19","9","0","/Users/aviadalbert/Documents/Academisch/UoC/Dissertation/Experiment/OpenSesame/NAP-FC/NAP_GER_AA_4blocks_noglides/subject-23.csv","xpyriment","Jazzy James","3.1.9","yes","yes","59a800d99ad5a1025d81bb03","59a801616c613b0251691de0","no","no","0","f","f","space","NA","space","space","f","1185","3140","17885","NA","19785","17351","1185","2","legacy","1024","1","44100","-16","experiment","ʃpal","2","0","1","0","1","Franzoesisch, Eng","23","","odd","7985311","7966913","NA","NA","7988452","7985308","NA","7398199","7984853","7398199","7398199","7895531","7915321","8050023","8048515","8051210","7935970","7932971","7966913","NA","7814105","7884873","7965256","7932741","7985311","7932975","NA","8050022","8050022","NA","NA","8048511","NAP perception","16","27076","20","yes","1024"
"76.1904761905","yes","76.1904761905","1334.52380952","1334.52380952","white","no","xpyriment","Ich habe die obigen Informationen gelesen und verstanden.","legacy","legacy","0","uniform","0","0","0","undefined","undefined","0","j","2","1","NA","0","1","0","0","0","0","0","0","0","0","30","30","30","0","0","0","NA","0","0","2","0","0","0","2","30","30","30","30","30","Thu Oct 26 11:53:44 2017","Forced-choice identification task with a practice and an experimental phase","yes","NAP_GER_AA_4blocks_noglides.osexp","/Users/aviadalbert/Documents/Academisch/UoC/Dissertation/Experiment/OpenSesame/NAP-FC/NAP_GER_AA_4blocks_noglides","yes","no","sans","no","20","no","black","no","Weiter","yes","768","legacy","20","9","0","/Users/aviadalbert/Documents/Academisch/UoC/Dissertation/Experiment/OpenSesame/NAP-FC/NAP_GER_AA_4blocks_noglides/subject-23.csv","xpyriment","Jazzy James","3.1.9","yes","yes","59a800d99ad5a1025d81bb03","59a801616c613b0251691de0","no","no","0","f","f","space","NA","space","space","f","949","3140","17885","NA","19785","17351","949","2","legacy","1024","1","44100","-16","experiment","lefal","2","0","1","0","1","Franzoesisch, Eng","23","","odd","7985311","7966913","NA","NA","7988452","7985308","NA","7398199","7984853","7398199","7398199","7895531","7915321","8053008","8051502","8053958","7935970","7932971","7966913","NA","7814105","7884873","7965256","7932741","7985311","7932975","NA","8053008","8053008","NA","NA","8051498","NAP perception","16","28025","21","yes","1024"
"72.7272727273","yes","72.7272727273","1346.31818182","1346.31818182","white","no","xpyriment","Ich habe die obigen Informationen gelesen und verstanden.","legacy","legacy","0","uniform","0","0","0","undefined","undefined","0","f","2","1","NA","0","1","0","0","0","0","0","0","0","0","31","31","31","0","0","0","NA","0","0","2","0","0","0","2","31","31","31","31","31","Thu Oct 26 11:53:44 2017","Forced-choice identification task with a practice and an experimental phase","yes","NAP_GER_AA_4blocks_noglides.osexp","/Users/aviadalbert/Documents/Academisch/UoC/Dissertation/Experiment/OpenSesame/NAP-FC/NAP_GER_AA_4blocks_noglides","yes","no","sans","no","20","no","black","no","Weiter","yes","768","legacy","21","9","0","/Users/aviadalbert/Documents/Academisch/UoC/Dissertation/Experiment/OpenSesame/NAP-FC/NAP_GER_AA_4blocks_noglides/subject-23.csv","xpyriment","Jazzy James","3.1.9","yes","yes","59a800d99ad5a1025d81bb03","59a801616c613b0251691de0","no","no","0","j","f","space","NA","space","space","j","1594","3140","17885","NA","19785","17351","1594","2","legacy","1024","1","44100","-16","experiment","npal","2","0","1","0","1","Franzoesisch, Eng","23","","odd","7985311","7966913","NA","NA","7988452","7985308","NA","7398199","7984853","7398199","7398199","7895531","7915321","8055746","8054238","8057341","7935970","7932971","7966913","NA","7814105","7884873","7965256","7932741","7985311","7932975","NA","8055746","8055746","NA","NA","8054234","NAP perception","16","29619","22","yes","1024"
"73.9130434783","yes","73.9130434783","1335.2173913","1335.2173913","white","no","xpyriment","Ich habe die obigen Informationen gelesen und verstanden.","legacy","legacy","0","uniform","1","0","0","undefined","undefined","1","f","2","1","NA","0","1","0","0","0","0","0","0","0","0","32","32","32","0","0","0","NA","0","0","2","0","0","0","2","32","32","32","32","32","Thu Oct 26 11:53:44 2017","Forced-choice identification task with a practice and an experimental phase","yes","NAP_GER_AA_4blocks_noglides.osexp","/Users/aviadalbert/Documents/Academisch/UoC/Dissertation/Experiment/OpenSesame/NAP-FC/NAP_GER_AA_4blocks_noglides","yes","no","sans","no","20","no","black","no","Weiter","yes","768","legacy","22","9","0","/Users/aviadalbert/Documents/Academisch/UoC/Dissertation/Experiment/OpenSesame/NAP-FC/NAP_GER_AA_4blocks_noglides/subject-23.csv","xpyriment","Jazzy James","3.1.9","yes","yes","59a800d99ad5a1025d81bb03","59a801616c613b0251691de0","no","no","0","f","f","space","NA","space","space","f","1091","3140","17885","NA","19785","17351","1091","2","legacy","1024","1","44100","-16","experiment","spal","2","0","1","0","1","Franzoesisch, Eng","23","","odd","7985311","7966913","NA","NA","7988452","7985308","NA","7398199","7984853","7398199","7398199","7895531","7915321","8059144","8057641","8060236","7935970","7932971","7966913","NA","7814105","7884873","7965256","7932741","7985311","7932975","NA","8059144","8059144","NA","NA","8057637","NAP perception","17","30710","23","yes","1024"
"75","yes","75","1323.83333333","1323.83333333","white","no","xpyriment","Ich habe die obigen Informationen gelesen und verstanden.","legacy","legacy","0","uniform","1","0","0","undefined","undefined","1","f","2","1","NA","0","1","0","0","0","0","0","0","0","0","33","33","33","0","0","0","NA","0","0","2","0","0","0","2","33","33","33","33","33","Thu Oct 26 11:53:44 2017","Forced-choice identification task with a practice and an experimental phase","yes","NAP_GER_AA_4blocks_noglides.osexp","/Users/aviadalbert/Documents/Academisch/UoC/Dissertation/Experiment/OpenSesame/NAP-FC/NAP_GER_AA_4blocks_noglides","yes","no","sans","no","20","no","black","no","Weiter","yes","768","legacy","23","9","0","/Users/aviadalbert/Documents/Academisch/UoC/Dissertation/Experiment/OpenSesame/NAP-FC/NAP_GER_AA_4blocks_noglides/subject-23.csv","xpyriment","Jazzy James","3.1.9","yes","yes","59a800d99ad5a1025d81bb03","59a801616c613b0251691de0","no","no","0","f","f","space","NA","space","space","f","1062","3140","17885","NA","19785","17351","1062","2","legacy","1024","1","44100","-16","experiment","fnal","2","0","1","0","1","Franzoesisch, Eng","23","","odd","7985311","7966913","NA","NA","7988452","7985308","NA","7398199","7984853","7398199","7398199","7895531","7915321","8062028","8060521","8063092","7935970","7932971","7966913","NA","7814105","7884873","7965256","7932741","7985311","7932975","NA","8062027","8062028","NA","NA","8060517","NAP perception","18","31772","24","yes","1024"
"72","yes","72","1350.24","1350.24","white","no","xpyriment","Ich habe die obigen Informationen gelesen und verstanden.","legacy","legacy","0","uniform","0","0","0","undefined","undefined","0","j","2","1","NA","0","1","0","0","0","0","0","0","0","0","34","34","34","0","0","0","NA","0","0","2","0","0","0","2","34","34","34","34","34","Thu Oct 26 11:53:44 2017","Forced-choice identification task with a practice and an experimental phase","yes","NAP_GER_AA_4blocks_noglides.osexp","/Users/aviadalbert/Documents/Academisch/UoC/Dissertation/Experiment/OpenSesame/NAP-FC/NAP_GER_AA_4blocks_noglides","yes","no","sans","no","20","no","black","no","Weiter","yes","768","legacy","24","9","0","/Users/aviadalbert/Documents/Academisch/UoC/Dissertation/Experiment/OpenSesame/NAP-FC/NAP_GER_AA_4blocks_noglides/subject-23.csv","xpyriment","Jazzy James","3.1.9","yes","yes","59a800d99ad5a1025d81bb03","59a801616c613b0251691de0","no","no","0","f","f","space","NA","space","space","f","1984","3140","17885","NA","19785","17351","1984","2","legacy","1024","1","44100","-16","experiment","enval","2","0","1","0","1","Franzoesisch, Eng","23","","odd","7985311","7966913","NA","NA","7988452","7985308","NA","7398199","7984853","7398199","7398199","7895531","7915321","8064884","8063378","8066869","7935970","7932971","7966913","NA","7814105","7884873","7965256","7932741","7985311","7932975","NA","8064884","8064884","NA","NA","8063374","NAP perception","18","33756","25","yes","1024"
"73.0769230769","yes","73.0769230769","1346.96153846","1346.96153846","white","no","xpyriment","Ich habe die obigen Informationen gelesen und verstanden.","legacy","legacy","0","uniform","1","0","0","undefined","undefined","1","j","2","1","NA","0","1","0","0","0","0","0","0","0","0","35","35","35","0","0","0","NA","0","0","2","0","0","0","2","35","35","35","35","35","Thu Oct 26 11:53:44 2017","Forced-choice identification task with a practice and an experimental phase","yes","NAP_GER_AA_4blocks_noglides.osexp","/Users/aviadalbert/Documents/Academisch/UoC/Dissertation/Experiment/OpenSesame/NAP-FC/NAP_GER_AA_4blocks_noglides","yes","no","sans","no","20","no","black","no","Weiter","yes","768","legacy","25","9","0","/Users/aviadalbert/Documents/Academisch/UoC/Dissertation/Experiment/OpenSesame/NAP-FC/NAP_GER_AA_4blocks_noglides/subject-23.csv","xpyriment","Jazzy James","3.1.9","yes","yes","59a800d99ad5a1025d81bb03","59a801616c613b0251691de0","no","no","0","j","f","space","NA","space","space","j","1265","3140","17885","NA","19785","17351","1265","2","legacy","1024","1","44100","-16","experiment","zeval","2","0","1","0","1","Franzoesisch, Eng","23","","odd","7985311","7966913","NA","NA","7988452","7985308","NA","7398199","7984853","7398199","7398199","7895531","7915321","8068645","8067142","8069912","7935970","7932971","7966913","NA","7814105","7884873","7965256","7932741","7985311","7932975","NA","8068645","8068645","NA","NA","8067138","NAP perception","19","35021","26","yes","1024"
"74.0740740741","yes","74.0740740741","1344.48148148","1344.48148148","white","no","xpyriment","Ich habe die obigen Informationen gelesen und verstanden.","legacy","legacy","0","uniform","1","0","0","undefined","undefined","1","j","2","1","NA","0","1","0","0","0","0","0","0","0","0","36","36","36","0","0","0","NA","0","0","2","0","0","0","2","36","36","36","36","36","Thu Oct 26 11:53:44 2017","Forced-choice identification task with a practice and an experimental phase","yes","NAP_GER_AA_4blocks_noglides.osexp","/Users/aviadalbert/Documents/Academisch/UoC/Dissertation/Experiment/OpenSesame/NAP-FC/NAP_GER_AA_4blocks_noglides","yes","no","sans","no","20","no","black","no","Weiter","yes","768","legacy","26","9","0","/Users/aviadalbert/Documents/Academisch/UoC/Dissertation/Experiment/OpenSesame/NAP-FC/NAP_GER_AA_4blocks_noglides/subject-23.csv","xpyriment","Jazzy James","3.1.9","yes","yes","59a800d99ad5a1025d81bb03","59a801616c613b0251691de0","no","no","0","j","f","space","NA","space","space","j","1280","3140","17885","NA","19785","17351","1280","2","legacy","1024","1","44100","-16","experiment","ezval","2","0","1","0","1","Franzoesisch, Eng","23","","odd","7985311","7966913","NA","NA","7988452","7985308","NA","7398199","7984853","7398199","7398199","7895531","7915321","8071702","8070199","8072984","7935970","7932971","7966913","NA","7814105","7884873","7965256","7932741","7985311","7932975","NA","8071702","8071702","NA","NA","8070195","NAP perception","20","36301","27","yes","1024"
"75","yes","75","1339.28571429","1339.28571429","white","no","xpyriment","Ich habe die obigen Informationen gelesen und verstanden.","legacy","legacy","0","uniform","1","0","0","undefined","undefined","1","f","2","1","NA","0","1","0","0","0","0","0","0","0","0","37","37","37","0","0","0","NA","0","0","2","0","0","0","2","37","37","37","37","37","Thu Oct 26 11:53:44 2017","Forced-choice identification task with a practice and an experimental phase","yes","NAP_GER_AA_4blocks_noglides.osexp","/Users/aviadalbert/Documents/Academisch/UoC/Dissertation/Experiment/OpenSesame/NAP-FC/NAP_GER_AA_4blocks_noglides","yes","no","sans","no","20","no","black","no","Weiter","yes","768","legacy","27","9","0","/Users/aviadalbert/Documents/Academisch/UoC/Dissertation/Experiment/OpenSesame/NAP-FC/NAP_GER_AA_4blocks_noglides/subject-23.csv","xpyriment","Jazzy James","3.1.9","yes","yes","59a800d99ad5a1025d81bb03","59a801616c613b0251691de0","no","no","0","f","f","space","NA","space","space","f","1199","3140","17885","NA","19785","17351","1199","2","legacy","1024","1","44100","-16","experiment","msal","2","0","1","0","1","Franzoesisch, Eng","23","","odd","7985311","7966913","NA","NA","7988452","7985308","NA","7398199","7984853","7398199","7398199","7895531","7915321","8074767","8073263","8075968","7935970","7932971","7966913","NA","7814105","7884873","7965256","7932741","7985311","7932975","NA","8074767","8074767","NA","NA","8073259","NAP perception","21","37500","28","yes","1024"
"75.8620689655","yes","75.8620689655","1323.75862069","1323.75862069","white","no","xpyriment","Ich habe die obigen Informationen gelesen und verstanden.","legacy","legacy","0","uniform","1","0","0","undefined","undefined","1","f","2","1","NA","0","1","0","0","0","0","0","0","0","0","38","38","38","0","0","0","NA","0","0","2","0","0","0","2","38","38","38","38","38","Thu Oct 26 11:53:44 2017","Forced-choice identification task with a practice and an experimental phase","yes","NAP_GER_AA_4blocks_noglides.osexp","/Users/aviadalbert/Documents/Academisch/UoC/Dissertation/Experiment/OpenSesame/NAP-FC/NAP_GER_AA_4blocks_noglides","yes","no","sans","no","20","no","black","no","Weiter","yes","768","legacy","28","9","0","/Users/aviadalbert/Documents/Academisch/UoC/Dissertation/Experiment/OpenSesame/NAP-FC/NAP_GER_AA_4blocks_noglides/subject-23.csv","xpyriment","Jazzy James","3.1.9","yes","yes","59a800d99ad5a1025d81bb03","59a801616c613b0251691de0","no","no","0","f","f","space","NA","space","space","f","889","3140","17885","NA","19785","17351","889","2","legacy","1024","1","44100","-16","experiment","ftal","2","0","1","0","1","Franzoesisch, Eng","23","","odd","7985311","7966913","NA","NA","7988452","7985308","NA","7398199","7984853","7398199","7398199","7895531","7915321","8077772","8076264","8078663","7935970","7932971","7966913","NA","7814105","7884873","7965256","7932741","7985311","7932975","NA","8077772","8077772","NA","NA","8076260","NAP perception","22","38389","29","yes","1024"
"76.6666666667","yes","76.6666666667","1341.03333333","1341.03333333","white","no","xpyriment","Ich habe die obigen Informationen gelesen und verstanden.","legacy","legacy","0","uniform","1","0","0","undefined","undefined","1","f","2","1","NA","0","1","0","0","0","0","0","0","0","0","39","39","39","0","0","0","NA","0","0","2","0","0","0","2","39","39","39","39","39","Thu Oct 26 11:53:44 2017","Forced-choice identification task with a practice and an experimental phase","yes","NAP_GER_AA_4blocks_noglides.osexp","/Users/aviadalbert/Documents/Academisch/UoC/Dissertation/Experiment/OpenSesame/NAP-FC/NAP_GER_AA_4blocks_noglides","yes","no","sans","no","20","no","black","no","Weiter","yes","768","legacy","29","9","0","/Users/aviadalbert/Documents/Academisch/UoC/Dissertation/Experiment/OpenSesame/NAP-FC/NAP_GER_AA_4blocks_noglides/subject-23.csv","xpyriment","Jazzy James","3.1.9","yes","yes","59a800d99ad5a1025d81bb03","59a801616c613b0251691de0","no","no","0","f","f","space","NA","space","space","f","1842","3140","17885","NA","19785","17351","1842","2","legacy","1024","1","44100","-16","experiment","flal","2","0","1","0","1","Franzoesisch, Eng","23","","odd","7985311","7966913","NA","NA","7988452","7985308","NA","7398199","7984853","7398199","7398199","7895531","7915321","8080441","8078938","8082285","7935970","7932971","7966913","NA","7814105","7884873","7965256","7932741","7985311","7932975","NA","8080441","8080441","NA","NA","8078934","NAP perception","23","40231","30","yes","1024"
"77.4193548387","yes","77.4193548387","1385.77419355","1385.77419355","white","no","xpyriment","Ich habe die obigen Informationen gelesen und verstanden.","legacy","legacy","0","uniform","1","0","0","undefined","undefined","1","f","2","1","NA","0","1","0","0","0","0","0","0","0","0","40","40","40","0","0","0","NA","0","0","2","0","0","0","2","40","40","40","40","40","Thu Oct 26 11:53:44 2017","Forced-choice identification task with a practice and an experimental phase","yes","NAP_GER_AA_4blocks_noglides.osexp","/Users/aviadalbert/Documents/Academisch/UoC/Dissertation/Experiment/OpenSesame/NAP-FC/NAP_GER_AA_4blocks_noglides","yes","no","sans","no","20","no","black","no","Weiter","yes","768","legacy","30","9","0","/Users/aviadalbert/Documents/Academisch/UoC/Dissertation/Experiment/OpenSesame/NAP-FC/NAP_GER_AA_4blocks_noglides/subject-23.csv","xpyriment","Jazzy James","3.1.9","yes","yes","59a800d99ad5a1025d81bb03","59a801616c613b0251691de0","no","no","0","f","f","space","NA","space","space","f","2728","3140","17885","NA","19785","17351","2728","2","legacy","1024","1","44100","-16","experiment","spal","2","0","1","0","1","Franzoesisch, Eng","23","","odd","7985311","7966913","NA","NA","7988452","7985308","NA","7398199","7984853","7398199","7398199","7895531","7915321","8084079","8082575","8086808","7935970","7932971","7966913","NA","7814105","7884873","7965256","7932741","7985311","7932975","NA","8084079","8084079","NA","NA","8082571","NAP perception","24","42959","31","yes","1024"
"75","yes","75","1414.25","1414.25","white","no","xpyriment","Ich habe die obigen Informationen gelesen und verstanden.","legacy","legacy","0","uniform","0","0","0","undefined","undefined","0","j","2","1","NA","0","1","0","0","0","0","0","0","0","0","41","41","41","0","0","0","NA","0","0","2","0","0","0","2","41","41","41","41","41","Thu Oct 26 11:53:44 2017","Forced-choice identification task with a practice and an experimental phase","yes","NAP_GER_AA_4blocks_noglides.osexp","/Users/aviadalbert/Documents/Academisch/UoC/Dissertation/Experiment/OpenSesame/NAP-FC/NAP_GER_AA_4blocks_noglides","yes","no","sans","no","20","no","black","no","Weiter","yes","768","legacy","31","9","0","/Users/aviadalbert/Documents/Academisch/UoC/Dissertation/Experiment/OpenSesame/NAP-FC/NAP_GER_AA_4blocks_noglides/subject-23.csv","xpyriment","Jazzy James","3.1.9","yes","yes","59a800d99ad5a1025d81bb03","59a801616c613b0251691de0","no","no","0","f","f","space","NA","space","space","f","2297","3140","17885","NA","19785","17351","2297","2","legacy","1024","1","44100","-16","experiment","menal","2","0","1","0","1","Franzoesisch, Eng","23","","odd","7985311","7966913","NA","NA","7988452","7985308","NA","7398199","7984853","7398199","7398199","7895531","7915321","8088586","8087082","8090884","7935970","7932971","7966913","NA","7814105","7884873","7965256","7932741","7985311","7932975","NA","8088585","8088585","NA","NA","8087078","NAP perception","24","45256","32","yes","1024"
"75.7575757576","yes","75.7575757576","1406.93939394","1406.93939394","white","no","xpyriment","Ich habe die obigen Informationen gelesen und verstanden.","legacy","legacy","0","uniform","1","0","0","undefined","undefined","1","f","2","1","NA","0","1","0","0","0","0","0","0","0","0","42","42","42","0","0","0","NA","0","0","2","0","0","0","2","42","42","42","42","42","Thu Oct 26 11:53:44 2017","Forced-choice identification task with a practice and an experimental phase","yes","NAP_GER_AA_4blocks_noglides.osexp","/Users/aviadalbert/Documents/Academisch/UoC/Dissertation/Experiment/OpenSesame/NAP-FC/NAP_GER_AA_4blocks_noglides","yes","no","sans","no","20","no","black","no","Weiter","yes","768","legacy","32","9","0","/Users/aviadalbert/Documents/Academisch/UoC/Dissertation/Experiment/OpenSesame/NAP-FC/NAP_GER_AA_4blocks_noglides/subject-23.csv","xpyriment","Jazzy James","3.1.9","yes","yes","59a800d99ad5a1025d81bb03","59a801616c613b0251691de0","no","no","0","f","f","space","NA","space","space","f","1173","3140","17885","NA","19785","17351","1173","2","legacy","1024","1","44100","-16","experiment","lval","2","0","1","0","1","Franzoesisch, Eng","23","","odd","7985311","7966913","NA","NA","7988452","7985308","NA","7398199","7984853","7398199","7398199","7895531","7915321","8092669","8091162","8093843","7935970","7932971","7966913","NA","7814105","7884873","7965256","7932741","7985311","7932975","NA","8092669","8092669","NA","NA","8091158","NAP perception","25","46429","33","yes","1024"
"76.4705882353","yes","76.4705882353","1417.73529412","1417.73529412","white","no","xpyriment","Ich habe die obigen Informationen gelesen und verstanden.","legacy","legacy","0","uniform","1","0","0","undefined","undefined","1","j","2","1","NA","0","1","0","0","0","0","0","0","0","0","43","43","43","0","0","0","NA","0","0","2","0","0","0","2","43","43","43","43","43","Thu Oct 26 11:53:44 2017","Forced-choice identification task with a practice and an experimental phase","yes","NAP_GER_AA_4blocks_noglides.osexp","/Users/aviadalbert/Documents/Academisch/UoC/Dissertation/Experiment/OpenSesame/NAP-FC/NAP_GER_AA_4blocks_noglides","yes","no","sans","no","20","no","black","no","Weiter","yes","768","legacy","33","9","0","/Users/aviadalbert/Documents/Academisch/UoC/Dissertation/Experiment/OpenSesame/NAP-FC/NAP_GER_AA_4blocks_noglides/subject-23.csv","xpyriment","Jazzy James","3.1.9","yes","yes","59a800d99ad5a1025d81bb03","59a801616c613b0251691de0","no","no","0","j","f","space","NA","space","space","j","1774","3140","17885","NA","19785","17351","1774","2","legacy","1024","1","44100","-16","experiment","emtal","2","0","1","0","1","Franzoesisch, Eng","23","","odd","7985311","7966913","NA","NA","7988452","7985308","NA","7398199","7984853","7398199","7398199","7895531","7915321","8095622","8094118","8097398","7935970","7932971","7966913","NA","7814105","7884873","7965256","7932741","7985311","7932975","NA","8095622","8095622","NA","NA","8094114","NAP perception","26","48203","34","yes","1024"
"77.1428571429","yes","77.1428571429","1405.02857143","1405.02857143","white","no","xpyriment","Ich habe die obigen Informationen gelesen und verstanden.","legacy","legacy","0","uniform","1","0","0","undefined","undefined","1","j","2","1","NA","0","1","0","0","0","0","0","0","0","0","44","44","44","0","0","0","NA","0","0","2","0","0","0","2","44","44","44","44","44","Thu Oct 26 11:53:44 2017","Forced-choice identification task with a practice and an experimental phase","yes","NAP_GER_AA_4blocks_noglides.osexp","/Users/aviadalbert/Documents/Academisch/UoC/Dissertation/Experiment/OpenSesame/NAP-FC/NAP_GER_AA_4blocks_noglides","yes","no","sans","no","20","no","black","no","Weiter","yes","768","legacy","34","9","0","/Users/aviadalbert/Documents/Academisch/UoC/Dissertation/Experiment/OpenSesame/NAP-FC/NAP_GER_AA_4blocks_noglides/subject-23.csv","xpyriment","Jazzy James","3.1.9","yes","yes","59a800d99ad5a1025d81bb03","59a801616c613b0251691de0","no","no","0","j","f","space","NA","space","space","j","973","3140","17885","NA","19785","17351","973","2","legacy","1024","1","44100","-16","experiment","ʃefal","2","0","1","0","1","Franzoesisch, Eng","23","","odd","7985311","7966913","NA","NA","7988452","7985308","NA","7398199","7984853","7398199","7398199","7895531","7915321","8099181","8097677","8100156","7935970","7932971","7966913","NA","7814105","7884873","7965256","7932741","7985311","7932975","NA","8099181","8099181","NA","NA","8097673","NAP perception","27","49176","35","yes","1024"
"77.7777777778","yes","77.7777777778","1404.75","1404.75","white","no","xpyriment","Ich habe die obigen Informationen gelesen und verstanden.","legacy","legacy","0","uniform","1","0","0","undefined","undefined","1","f","2","1","NA","0","1","0","0","0","0","0","0","0","0","45","45","45","0","0","0","NA","0","0","2","0","0","0","2","45","45","45","45","45","Thu Oct 26 11:53:44 2017","Forced-choice identification task with a practice and an experimental phase","yes","NAP_GER_AA_4blocks_noglides.osexp","/Users/aviadalbert/Documents/Academisch/UoC/Dissertation/Experiment/OpenSesame/NAP-FC/NAP_GER_AA_4blocks_noglides","yes","no","sans","no","20","no","black","no","Weiter","yes","768","legacy","35","9","0","/Users/aviadalbert/Documents/Academisch/UoC/Dissertation/Experiment/OpenSesame/NAP-FC/NAP_GER_AA_4blocks_noglides/subject-23.csv","xpyriment","Jazzy James","3.1.9","yes","yes","59a800d99ad5a1025d81bb03","59a801616c613b0251691de0","no","no","0","f","f","space","NA","space","space","f","1395","3140","17885","NA","19785","17351","1395","2","legacy","1024","1","44100","-16","experiment","mnal","2","0","1","0","1","Franzoesisch, Eng","23","","odd","7985311","7966913","NA","NA","7988452","7985308","NA","7398199","7984853","7398199","7398199","7895531","7915321","8101936","8100433","8103333","7935970","7932971","7966913","NA","7814105","7884873","7965256","7932741","7985311","7932975","NA","8101936","8101936","NA","NA","8100428","NAP perception","28","50571","36","yes","1024"
"78.3783783784","yes","78.3783783784","1414","1414","white","no","xpyriment","Ich habe die obigen Informationen gelesen und verstanden.","legacy","legacy","0","uniform","1","0","0","undefined","undefined","1","j","2","1","NA","0","1","0","0","0","0","0","0","0","0","46","46","46","0","0","0","NA","0","0","2","0","0","0","2","46","46","46","46","46","Thu Oct 26 11:53:44 2017","Forced-choice identification task with a practice and an experimental phase","yes","NAP_GER_AA_4blocks_noglides.osexp","/Users/aviadalbert/Documents/Academisch/UoC/Dissertation/Experiment/OpenSesame/NAP-FC/NAP_GER_AA_4blocks_noglides","yes","no","sans","no","20","no","black","no","Weiter","yes","768","legacy","36","9","0","/Users/aviadalbert/Documents/Academisch/UoC/Dissertation/Experiment/OpenSesame/NAP-FC/NAP_GER_AA_4blocks_noglides/subject-23.csv","xpyriment","Jazzy James","3.1.9","yes","yes","59a800d99ad5a1025d81bb03","59a801616c613b0251691de0","no","no","0","j","f","space","NA","space","space","j","1747","3140","17885","NA","19785","17351","1747","2","legacy","1024","1","44100","-16","experiment","esmal","2","0","1","0","1","Franzoesisch, Eng","23","","odd","7985311","7966913","NA","NA","7988452","7985308","NA","7398199","7984853","7398199","7398199","7895531","7915321","8105127","8103622","8106876","7935970","7932971","7966913","NA","7814105","7884873","7965256","7932741","7985311","7932975","NA","8105127","8105127","NA","NA","8103618","NAP perception","29","52318","37","yes","1024"
"78.9473684211","yes","78.9473684211","1430.07894737","1430.07894737","white","no","xpyriment","Ich habe die obigen Informationen gelesen und verstanden.","legacy","legacy","0","uniform","1","0","0","undefined","undefined","1","f","2","1","NA","0","1","0","0","0","0","0","0","0","0","47","47","47","0","0","0","NA","0","0","2","0","0","0","2","47","47","47","47","47","Thu Oct 26 11:53:44 2017","Forced-choice identification task with a practice and an experimental phase","yes","NAP_GER_AA_4blocks_noglides.osexp","/Users/aviadalbert/Documents/Academisch/UoC/Dissertation/Experiment/OpenSesame/NAP-FC/NAP_GER_AA_4blocks_noglides","yes","no","sans","no","20","no","black","no","Weiter","yes","768","legacy","37","9","0","/Users/aviadalbert/Documents/Academisch/UoC/Dissertation/Experiment/OpenSesame/NAP-FC/NAP_GER_AA_4blocks_noglides/subject-23.csv","xpyriment","Jazzy James","3.1.9","yes","yes","59a800d99ad5a1025d81bb03","59a801616c613b0251691de0","no","no","0","f","f","space","NA","space","space","f","2025","3140","17885","NA","19785","17351","2025","2","legacy","1024","1","44100","-16","experiment","lpal","2","0","1","0","1","Franzoesisch, Eng","23","","odd","7985311","7966913","NA","NA","7988452","7985308","NA","7398199","7984853","7398199","7398199","7895531","7915321","8108670","8107166","8110696","7935970","7932971","7966913","NA","7814105","7884873","7965256","7932741","7985311","7932975","NA","8108670","8108670","NA","NA","8107162","NAP perception","30","54343","38","yes","1024"
"79.4871794872","yes","79.4871794872","1431.74358974","1431.74358974","white","no","xpyriment","Ich habe die obigen Informationen gelesen und verstanden.","legacy","legacy","0","uniform","1","0","0","undefined","undefined","1","f","2","1","NA","0","1","0","0","0","0","0","0","0","0","48","48","48","0","0","0","NA","0","0","2","0","0","0","2","48","48","48","48","48","Thu Oct 26 11:53:44 2017","Forced-choice identification task with a practice and an experimental phase","yes","NAP_GER_AA_4blocks_noglides.osexp","/Users/aviadalbert/Documents/Academisch/UoC/Dissertation/Experiment/OpenSesame/NAP-FC/NAP_GER_AA_4blocks_noglides","yes","no","sans","no","20","no","black","no","Weiter","yes","768","legacy","38","9","0","/Users/aviadalbert/Documents/Academisch/UoC/Dissertation/Experiment/OpenSesame/NAP-FC/NAP_GER_AA_4blocks_noglides/subject-23.csv","xpyriment","Jazzy James","3.1.9","yes","yes","59a800d99ad5a1025d81bb03","59a801616c613b0251691de0","no","no","0","f","f","space","NA","space","space","f","1495","3140","17885","NA","19785","17351","1495","2","legacy","1024","1","44100","-16","experiment","ftal","2","0","1","0","1","Franzoesisch, Eng","23","","odd","7985311","7966913","NA","NA","7988452","7985308","NA","7398199","7984853","7398199","7398199","7895531","7915321","8112487","8110984","8113983","7935970","7932971","7966913","NA","7814105","7884873","7965256","7932741","7985311","7932975","NA","8112487","8112487","NA","NA","8110980","NAP perception","31","55838","39","yes","1024"
"80","yes","80","1442.025","1442.025","white","no","xpyriment","Ich habe die obigen Informationen gelesen und verstanden.","legacy","legacy","0","uniform","1","0","0","undefined","undefined","1","j","2","1","NA","0","1","0","0","0","0","0","0","0","0","49","49","49","0","0","0","NA","0","0","2","0","0","0","2","49","49","49","49","49","Thu Oct 26 11:53:44 2017","Forced-choice identification task with a practice and an experimental phase","yes","NAP_GER_AA_4blocks_noglides.osexp","/Users/aviadalbert/Documents/Academisch/UoC/Dissertation/Experiment/OpenSesame/NAP-FC/NAP_GER_AA_4blocks_noglides","yes","no","sans","no","20","no","black","no","Weiter","yes","768","legacy","39","9","0","/Users/aviadalbert/Documents/Academisch/UoC/Dissertation/Experiment/OpenSesame/NAP-FC/NAP_GER_AA_4blocks_noglides/subject-23.csv","xpyriment","Jazzy James","3.1.9","yes","yes","59a800d99ad5a1025d81bb03","59a801616c613b0251691de0","no","no","0","j","f","space","NA","space","space","j","1843","3140","17885","NA","19785","17351","1843","2","legacy","1024","1","44100","-16","experiment","leval","2","0","1","0","1","Franzoesisch, Eng","23","","odd","7985311","7966913","NA","NA","7988452","7985308","NA","7398199","7984853","7398199","7398199","7895531","7915321","8115773","8114266","8117618","7935970","7932971","7966913","NA","7814105","7884873","7965256","7932741","7985311","7932975","NA","8115773","8115773","NA","NA","8114262","NAP perception","32","57681","40","yes","1024"
"80.487804878","yes","80.487804878","1454.07317073","1454.07317073","white","no","xpyriment","Ich habe die obigen Informationen gelesen und verstanden.","legacy","legacy","0","uniform","1","0","0","undefined","undefined","1","j","2","1","NA","0","1","0","0","0","0","0","0","0","0","50","50","50","0","0","0","NA","0","0","2","0","0","0","2","50","50","50","50","50","Thu Oct 26 11:53:44 2017","Forced-choice identification task with a practice and an experimental phase","yes","NAP_GER_AA_4blocks_noglides.osexp","/Users/aviadalbert/Documents/Academisch/UoC/Dissertation/Experiment/OpenSesame/NAP-FC/NAP_GER_AA_4blocks_noglides","yes","no","sans","no","20","no","black","no","Weiter","yes","768","legacy","40","9","0","/Users/aviadalbert/Documents/Academisch/UoC/Dissertation/Experiment/OpenSesame/NAP-FC/NAP_GER_AA_4blocks_noglides/subject-23.csv","xpyriment","Jazzy James","3.1.9","yes","yes","59a800d99ad5a1025d81bb03","59a801616c613b0251691de0","no","no","0","j","f","space","NA","space","space","j","1936","3140","17885","NA","19785","17351","1936","2","legacy","1024","1","44100","-16","experiment","nepal","2","0","1","0","1","Franzoesisch, Eng","23","","odd","7985311","7966913","NA","NA","7988452","7985308","NA","7398199","7984853","7398199","7398199","7895531","7915321","8119399","8117896","8121336","7935970","7932971","7966913","NA","7814105","7884873","7965256","7932741","7985311","7932975","NA","8119399","8119399","NA","NA","8117892","NAP perception","33","59617","41","yes","1024"
"78.5714285714","yes","78.5714285714","1490.88095238","1490.88095238","white","no","xpyriment","Ich habe die obigen Informationen gelesen und verstanden.","legacy","legacy","0","uniform","0","0","0","undefined","undefined","0","f","2","1","NA","0","1","0","0","0","0","0","0","0","0","51","51","51","0","0","0","NA","0","0","2","0","0","0","2","51","51","51","51","51","Thu Oct 26 11:53:44 2017","Forced-choice identification task with a practice and an experimental phase","yes","NAP_GER_AA_4blocks_noglides.osexp","/Users/aviadalbert/Documents/Academisch/UoC/Dissertation/Experiment/OpenSesame/NAP-FC/NAP_GER_AA_4blocks_noglides","yes","no","sans","no","20","no","black","no","Weiter","yes","768","legacy","41","9","0","/Users/aviadalbert/Documents/Academisch/UoC/Dissertation/Experiment/OpenSesame/NAP-FC/NAP_GER_AA_4blocks_noglides/subject-23.csv","xpyriment","Jazzy James","3.1.9","yes","yes","59a800d99ad5a1025d81bb03","59a801616c613b0251691de0","no","no","0","None","f","space","NA","space","space","None","3000","3140","17885","NA","19785","17351","3000","2","legacy","1024","1","44100","-16","experiment","vzal","2","0","1","0","1","Franzoesisch, Eng","23","","odd","7985311","7966913","NA","NA","7988452","7985308","NA","7398199","7984853","7398199","7398199","7895531","7915321","8123120","8121614","8127125","7935970","7932971","7966913","NA","7814105","7884873","7965256","7932741","7985311","7932975","NA","8123120","8123120","8126124","8126121","8121610","NAP perception","33","62617","42","yes","1024"
"76.7441860465","yes","76.7441860465","1497.23255814","1497.23255814","white","no","xpyriment","Ich habe die obigen Informationen gelesen und verstanden.","legacy","legacy","0","uniform","0","0","0","undefined","undefined","0","f","2","1","NA","0","1","0","0","0","0","0","0","0","0","52","52","52","0","0","0","NA","0","0","2","0","0","0","2","52","52","52","52","52","Thu Oct 26 11:53:44 2017","Forced-choice identification task with a practice and an experimental phase","yes","NAP_GER_AA_4blocks_noglides.osexp","/Users/aviadalbert/Documents/Academisch/UoC/Dissertation/Experiment/OpenSesame/NAP-FC/NAP_GER_AA_4blocks_noglides","yes","no","sans","no","20","no","black","no","Weiter","yes","768","legacy","42","9","0","/Users/aviadalbert/Documents/Academisch/UoC/Dissertation/Experiment/OpenSesame/NAP-FC/NAP_GER_AA_4blocks_noglides/subject-23.csv","xpyriment","Jazzy James","3.1.9","yes","yes","59a800d99ad5a1025d81bb03","59a801616c613b0251691de0","no","no","0","j","f","space","NA","space","space","j","1764","3140","17885","NA","19785","17351","1764","2","legacy","1024","1","44100","-16","experiment","nval","2","0","1","0","1","Franzoesisch, Eng","23","","odd","7985311","7966913","NA","NA","7988452","7985308","NA","7398199","7984853","7398199","7398199","7895531","7915321","8128903","8127398","8130669","7935970","7932971","7966913","NA","7814105","7884873","7965256","7932741","7985311","7932975","NA","8128903","8128903","8126124","8126121","8127394","NAP perception","33","64381","43","yes","1024"
"77.2727272727","yes","77.2727272727","1504.61363636","1504.61363636","white","no","xpyriment","Ich habe die obigen Informationen gelesen und verstanden.","legacy","legacy","0","uniform","1","0","0","undefined","undefined","1","j","2","1","NA","0","1","0","0","0","0","0","0","0","0","53","53","53","0","0","0","NA","0","0","2","0","0","0","2","53","53","53","53","53","Thu Oct 26 11:53:44 2017","Forced-choice identification task with a practice and an experimental phase","yes","NAP_GER_AA_4blocks_noglides.osexp","/Users/aviadalbert/Documents/Academisch/UoC/Dissertation/Experiment/OpenSesame/NAP-FC/NAP_GER_AA_4blocks_noglides","yes","no","sans","no","20","no","black","no","Weiter","yes","768","legacy","43","9","0","/Users/aviadalbert/Documents/Academisch/UoC/Dissertation/Experiment/OpenSesame/NAP-FC/NAP_GER_AA_4blocks_noglides/subject-23.csv","xpyriment","Jazzy James","3.1.9","yes","yes","59a800d99ad5a1025d81bb03","59a801616c613b0251691de0","no","no","0","j","f","space","NA","space","space","j","1822","3140","17885","NA","19785","17351","1822","2","legacy","1024","1","44100","-16","experiment","emnal","2","0","1","0","1","Franzoesisch, Eng","23","","odd","7985311","7966913","NA","NA","7988452","7985308","NA","7398199","7984853","7398199","7398199","7895531","7915321","8132444","8130939","8134268","7935970","7932971","7966913","NA","7814105","7884873","7965256","7932741","7985311","7932975","NA","8132444","8132444","8126124","8126121","8130935","NAP perception","34","66203","44","yes","1024"
"77.7777777778","yes","77.7777777778","1490.4","1490.4","white","no","xpyriment","Ich habe die obigen Informationen gelesen und verstanden.","legacy","legacy","0","uniform","1","0","0","undefined","undefined","1","f","2","1","NA","0","1","0","0","0","0","0","0","0","0","54","54","54","0","0","0","NA","0","0","2","0","0","0","2","54","54","54","54","54","Thu Oct 26 11:53:44 2017","Forced-choice identification task with a practice and an experimental phase","yes","NAP_GER_AA_4blocks_noglides.osexp","/Users/aviadalbert/Documents/Academisch/UoC/Dissertation/Experiment/OpenSesame/NAP-FC/NAP_GER_AA_4blocks_noglides","yes","no","sans","no","20","no","black","no","Weiter","yes","768","legacy","44","9","0","/Users/aviadalbert/Documents/Academisch/UoC/Dissertation/Experiment/OpenSesame/NAP-FC/NAP_GER_AA_4blocks_noglides/subject-23.csv","xpyriment","Jazzy James","3.1.9","yes","yes","59a800d99ad5a1025d81bb03","59a801616c613b0251691de0","no","no","0","f","f","space","NA","space","space","f","865","3140","17885","NA","19785","17351","865","2","legacy","1024","1","44100","-16","experiment","zmal","2","0","1","0","1","Franzoesisch, Eng","23","","odd","7985311","7966913","NA","NA","7988452","7985308","NA","7398199","7984853","7398199","7398199","7895531","7915321","8136043","8134535","8136909","7935970","7932971","7966913","NA","7814105","7884873","7965256","7932741","7985311","7932975","NA","8136043","8136043","8126124","8126121","8134531","NAP perception","35","67068","45","yes","1024"
"78.2608695652","yes","78.2608695652","1499.08695652","1499.08695652","white","no","xpyriment","Ich habe die obigen Informationen gelesen und verstanden.","legacy","legacy","0","uniform","1","0","0","undefined","undefined","1","f","2","1","NA","0","1","0","0","0","0","0","0","0","0","55","55","55","0","0","0","NA","0","0","2","0","0","0","2","55","55","55","55","55","Thu Oct 26 11:53:44 2017","Forced-choice identification task with a practice and an experimental phase","yes","NAP_GER_AA_4blocks_noglides.osexp","/Users/aviadalbert/Documents/Academisch/UoC/Dissertation/Experiment/OpenSesame/NAP-FC/NAP_GER_AA_4blocks_noglides","yes","no","sans","no","20","no","black","no","Weiter","yes","768","legacy","45","9","0","/Users/aviadalbert/Documents/Academisch/UoC/Dissertation/Experiment/OpenSesame/NAP-FC/NAP_GER_AA_4blocks_noglides/subject-23.csv","xpyriment","Jazzy James","3.1.9","yes","yes","59a800d99ad5a1025d81bb03","59a801616c613b0251691de0","no","no","0","f","f","space","NA","space","space","f","1890","3140","17885","NA","19785","17351","1890","2","legacy","1024","1","44100","-16","experiment","lkal","2","0","1","0","1","Franzoesisch, Eng","23","","odd","7985311","7966913","NA","NA","7988452","7985308","NA","7398199","7984853","7398199","7398199","7895531","7915321","8138694","8137189","8140587","7935970","7932971","7966913","NA","7814105","7884873","7965256","7932741","7985311","7932975","NA","8138694","8138694","8126124","8126121","8137185","NAP perception","36","68958","46","yes","1024"
"78.7234042553","yes","78.7234042553","1508.87234043","1508.87234043","white","no","xpyriment","Ich habe die obigen Informationen gelesen und verstanden.","legacy","legacy","0","uniform","1","0","0","undefined","undefined","1","j","2","1","NA","0","1","0","0","0","0","0","0","0","0","56","56","56","0","0","0","NA","0","0","2","0","0","0","2","56","56","56","56","56","Thu Oct 26 11:53:44 2017","Forced-choice identification task with a practice and an experimental phase","yes","NAP_GER_AA_4blocks_noglides.osexp","/Users/aviadalbert/Documents/Academisch/UoC/Dissertation/Experiment/OpenSesame/NAP-FC/NAP_GER_AA_4blocks_noglides","yes","no","sans","no","20","no","black","no","Weiter","yes","768","legacy","46","9","0","/Users/aviadalbert/Documents/Academisch/UoC/Dissertation/Experiment/OpenSesame/NAP-FC/NAP_GER_AA_4blocks_noglides/subject-23.csv","xpyriment","Jazzy James","3.1.9","yes","yes","59a800d99ad5a1025d81bb03","59a801616c613b0251691de0","no","no","0","j","f","space","NA","space","space","j","1959","3140","17885","NA","19785","17351","1959","2","legacy","1024","1","44100","-16","experiment","felal","2","0","1","0","1","Franzoesisch, Eng","23","","odd","7985311","7966913","NA","NA","7988452","7985308","NA","7398199","7984853","7398199","7398199","7895531","7915321","8142384","8140881","8144345","7935970","7932971","7966913","NA","7814105","7884873","7965256","7932741","7985311","7932975","NA","8142384","8142384","8126124","8126121","8140877","NAP perception","37","70917","47","yes","1024"
"79.1666666667","yes","79.1666666667","1513.97916667","1513.97916667","white","no","xpyriment","Ich habe die obigen Informationen gelesen und verstanden.","legacy","legacy","0","uniform","1","0","0","undefined","undefined","1","f","2","1","NA","0","1","0","0","0","0","0","0","0","0","57","57","57","0","0","0","NA","0","0","2","0","0","0","2","57","57","57","57","57","Thu Oct 26 11:53:44 2017","Forced-choice identification task with a practice and an experimental phase","yes","NAP_GER_AA_4blocks_noglides.osexp","/Users/aviadalbert/Documents/Academisch/UoC/Dissertation/Experiment/OpenSesame/NAP-FC/NAP_GER_AA_4blocks_noglides","yes","no","sans","no","20","no","black","no","Weiter","yes","768","legacy","47","9","0","/Users/aviadalbert/Documents/Academisch/UoC/Dissertation/Experiment/OpenSesame/NAP-FC/NAP_GER_AA_4blocks_noglides/subject-23.csv","xpyriment","Jazzy James","3.1.9","yes","yes","59a800d99ad5a1025d81bb03","59a801616c613b0251691de0","no","no","0","f","f","space","NA","space","space","f","1754","3140","17885","NA","19785","17351","1754","2","legacy","1024","1","44100","-16","experiment","ʃmal","2","0","1","0","1","Franzoesisch, Eng","23","","odd","7985311","7966913","NA","NA","7988452","7985308","NA","7398199","7984853","7398199","7398199","7895531","7915321","8146132","8144629","8147888","7935970","7932971","7966913","NA","7814105","7884873","7965256","7932741","7985311","7932975","NA","8146132","8146132","8126124","8126121","8144625","NAP perception","38","72671","48","yes","1024"
"79.5918367347","yes","79.5918367347","1516.28571429","1516.28571429","white","no","xpyriment","Ich habe die obigen Informationen gelesen und verstanden.","legacy","legacy","0","uniform","1","0","0","undefined","undefined","1","f","2","1","NA","0","1","0","0","0","0","0","0","0","0","58","58","58","0","0","0","NA","0","0","2","0","0","0","2","58","58","58","58","58","Thu Oct 26 11:53:44 2017","Forced-choice identification task with a practice and an experimental phase","yes","NAP_GER_AA_4blocks_noglides.osexp","/Users/aviadalbert/Documents/Academisch/UoC/Dissertation/Experiment/OpenSesame/NAP-FC/NAP_GER_AA_4blocks_noglides","yes","no","sans","no","20","no","black","no","Weiter","yes","768","legacy","48","9","0","/Users/aviadalbert/Documents/Academisch/UoC/Dissertation/Experiment/OpenSesame/NAP-FC/NAP_GER_AA_4blocks_noglides/subject-23.csv","xpyriment","Jazzy James","3.1.9","yes","yes","59a800d99ad5a1025d81bb03","59a801616c613b0251691de0","no","no","0","f","f","space","NA","space","space","f","1627","3140","17885","NA","19785","17351","1627","2","legacy","1024","1","44100","-16","experiment","ʃpal","2","0","1","0","1","Franzoesisch, Eng","23","","odd","7985311","7966913","NA","NA","7988452","7985308","NA","7398199","7984853","7398199","7398199","7895531","7915321","8149674","8148170","8151304","7935970","7932971","7966913","NA","7814105","7884873","7965256","7932741","7985311","7932975","NA","8149674","8149674","8126124","8126121","8148166","NAP perception","39","74298","49","yes","1024"
"80","yes","80","1507.52","1507.52","white","no","xpyriment","Ich habe die obigen Informationen gelesen und verstanden.","legacy","legacy","0","uniform","1","0","0","undefined","undefined","1","f","2","1","NA","0","1","0","0","0","0","0","0","0","0","59","59","59","0","0","0","NA","0","0","2","0","0","0","2","59","59","59","59","59","Thu Oct 26 11:53:44 2017","Forced-choice identification task with a practice and an experimental phase","yes","NAP_GER_AA_4blocks_noglides.osexp","/Users/aviadalbert/Documents/Academisch/UoC/Dissertation/Experiment/OpenSesame/NAP-FC/NAP_GER_AA_4blocks_noglides","yes","no","sans","no","20","no","black","no","Weiter","yes","768","legacy","49","9","0","/Users/aviadalbert/Documents/Academisch/UoC/Dissertation/Experiment/OpenSesame/NAP-FC/NAP_GER_AA_4blocks_noglides/subject-23.csv","xpyriment","Jazzy James","3.1.9","yes","yes","59a800d99ad5a1025d81bb03","59a801616c613b0251691de0","no","no","0","f","f","space","NA","space","space","f","1078","3140","17885","NA","19785","17351","1078","2","legacy","1024","1","44100","-16","experiment","vnal","2","0","1","0","1","Franzoesisch, Eng","23","","odd","7985311","7966913","NA","NA","7988452","7985308","NA","7398199","7984853","7398199","7398199","7895531","7915321","8153091","8151588","8154171","7935970","7932971","7966913","NA","7814105","7884873","7965256","7932741","7985311","7932975","NA","8153091","8153091","8126124","8126121","8151584","NAP perception","40","75376","50","yes","1024"
"80.3921568627","yes","80.3921568627","1513.54901961","1513.54901961","white","no","xpyriment","Ich habe die obigen Informationen gelesen und verstanden.","legacy","legacy","0","uniform","1","0","0","undefined","undefined","1","j","2","1","NA","0","1","0","0","0","0","0","0","0","0","60","60","60","0","0","0","NA","0","0","2","0","0","0","2","60","60","60","60","60","Thu Oct 26 11:53:44 2017","Forced-choice identification task with a practice and an experimental phase","yes","NAP_GER_AA_4blocks_noglides.osexp","/Users/aviadalbert/Documents/Academisch/UoC/Dissertation/Experiment/OpenSesame/NAP-FC/NAP_GER_AA_4blocks_noglides","yes","no","sans","no","20","no","black","no","Weiter","yes","768","legacy","50","9","0","/Users/aviadalbert/Documents/Academisch/UoC/Dissertation/Experiment/OpenSesame/NAP-FC/NAP_GER_AA_4blocks_noglides/subject-23.csv","xpyriment","Jazzy James","3.1.9","yes","yes","59a800d99ad5a1025d81bb03","59a801616c613b0251691de0","no","no","0","j","f","space","NA","space","space","j","1815","3140","17885","NA","19785","17351","1815","2","legacy","1024","1","44100","-16","experiment","eʃfal","2","0","1","0","1","Franzoesisch, Eng","23","","odd","7985311","7966913","NA","NA","7988452","7985308","NA","7398199","7984853","7398199","7398199","7895531","7915321","8155956","8154450","8157773","7935970","7932971","7966913","NA","7814105","7884873","7965256","7932741","7985311","7932975","NA","8155956","8155956","8126124","8126121","8154446","NAP perception","41","77191","51","yes","1024"
"78.8461538462","yes","78.8461538462","1522.59615385","1522.59615385","white","no","xpyriment","Ich habe die obigen Informationen gelesen und verstanden.","legacy","legacy","0","uniform","0","0","0","undefined","undefined","0","j","2","1","NA","0","1","0","0","0","0","0","0","0","0","61","61","61","0","0","0","NA","0","0","2","0","0","0","2","61","61","61","61","61","Thu Oct 26 11:53:44 2017","Forced-choice identification task with a practice and an experimental phase","yes","NAP_GER_AA_4blocks_noglides.osexp","/Users/aviadalbert/Documents/Academisch/UoC/Dissertation/Experiment/OpenSesame/NAP-FC/NAP_GER_AA_4blocks_noglides","yes","no","sans","no","20","no","black","no","Weiter","yes","768","legacy","51","9","0","/Users/aviadalbert/Documents/Academisch/UoC/Dissertation/Experiment/OpenSesame/NAP-FC/NAP_GER_AA_4blocks_noglides/subject-23.csv","xpyriment","Jazzy James","3.1.9","yes","yes","59a800d99ad5a1025d81bb03","59a801616c613b0251691de0","no","no","0","f","f","space","NA","space","space","f","1984","3140","17885","NA","19785","17351","1984","2","legacy","1024","1","44100","-16","experiment","enmal","2","0","1","0","1","Franzoesisch, Eng","23","","odd","7985311","7966913","NA","NA","7988452","7985308","NA","7398199","7984853","7398199","7398199","7895531","7915321","8159579","8158073","8161565","7935970","7932971","7966913","NA","7814105","7884873","7965256","7932741","7985311","7932975","NA","8159579","8159579","8126124","8126121","8158069","NAP perception","41","79175","52","yes","1024"
"79.2452830189","yes","79.2452830189","1520.64150943","1520.64150943","white","no","xpyriment","Ich habe die obigen Informationen gelesen und verstanden.","legacy","legacy","0","uniform","1","0","0","undefined","undefined","1","j","2","1","NA","0","1","0","0","0","0","0","0","0","0","62","62","62","0","0","0","NA","0","0","2","0","0","0","2","62","62","62","62","62","Thu Oct 26 11:53:44 2017","Forced-choice identification task with a practice and an experimental phase","yes","NAP_GER_AA_4blocks_noglides.osexp","/Users/aviadalbert/Documents/Academisch/UoC/Dissertation/Experiment/OpenSesame/NAP-FC/NAP_GER_AA_4blocks_noglides","yes","no","sans","no","20","no","black","no","Weiter","yes","768","legacy","52","9","0","/Users/aviadalbert/Documents/Academisch/UoC/Dissertation/Experiment/OpenSesame/NAP-FC/NAP_GER_AA_4blocks_noglides/subject-23.csv","xpyriment","Jazzy James","3.1.9","yes","yes","59a800d99ad5a1025d81bb03","59a801616c613b0251691de0","no","no","0","j","f","space","NA","space","space","j","1419","3140","17885","NA","19785","17351","1419","2","legacy","1024","1","44100","-16","experiment","ezmal","2","0","1","0","1","Franzoesisch, Eng","23","","odd","7985311","7966913","NA","NA","7988452","7985308","NA","7398199","7984853","7398199","7398199","7895531","7915321","8163351","8161846","8164772","7935970","7932971","7966913","NA","7814105","7884873","7965256","7932741","7985311","7932975","NA","8163351","8163351","8126124","8126121","8161842","NAP perception","42","80594","53","yes","1024"
"79.6296296296","yes","79.6296296296","1509.24074074","1509.24074074","white","no","xpyriment","Ich habe die obigen Informationen gelesen und verstanden.","legacy","legacy","0","uniform","1","0","0","undefined","undefined","1","f","2","1","NA","0","1","0","0","0","0","0","0","0","0","63","63","63","0","0","0","NA","0","0","2","0","0","0","2","63","63","63","63","63","Thu Oct 26 11:53:44 2017","Forced-choice identification task with a practice and an experimental phase","yes","NAP_GER_AA_4blocks_noglides.osexp","/Users/aviadalbert/Documents/Academisch/UoC/Dissertation/Experiment/OpenSesame/NAP-FC/NAP_GER_AA_4blocks_noglides","yes","no","sans","no","20","no","black","no","Weiter","yes","768","legacy","53","9","0","/Users/aviadalbert/Documents/Academisch/UoC/Dissertation/Experiment/OpenSesame/NAP-FC/NAP_GER_AA_4blocks_noglides/subject-23.csv","xpyriment","Jazzy James","3.1.9","yes","yes","59a800d99ad5a1025d81bb03","59a801616c613b0251691de0","no","no","0","f","f","space","NA","space","space","f","905","3140","17885","NA","19785","17351","905","2","legacy","1024","1","44100","-16","experiment","vlal","2","0","1","0","1","Franzoesisch, Eng","23","","odd","7985311","7966913","NA","NA","7988452","7985308","NA","7398199","7984853","7398199","7398199","7895531","7915321","8166554","8165049","8167460","7935970","7932971","7966913","NA","7814105","7884873","7965256","7932741","7985311","7932975","NA","8166554","8166554","8126124","8126121","8165045","NAP perception","43","81499","54","yes","1024"
"80","yes","80","1521.85454545","1521.85454545","white","no","xpyriment","Ich habe die obigen Informationen gelesen und verstanden.","legacy","legacy","0","uniform","1","0","0","undefined","undefined","1","j","2","1","NA","0","1","0","0","0","0","0","0","0","0","64","64","64","0","0","0","NA","0","0","2","0","0","0","2","64","64","64","64","64","Thu Oct 26 11:53:44 2017","Forced-choice identification task with a practice and an experimental phase","yes","NAP_GER_AA_4blocks_noglides.osexp","/Users/aviadalbert/Documents/Academisch/UoC/Dissertation/Experiment/OpenSesame/NAP-FC/NAP_GER_AA_4blocks_noglides","yes","no","sans","no","20","no","black","no","Weiter","yes","768","legacy","54","9","0","/Users/aviadalbert/Documents/Academisch/UoC/Dissertation/Experiment/OpenSesame/NAP-FC/NAP_GER_AA_4blocks_noglides/subject-23.csv","xpyriment","Jazzy James","3.1.9","yes","yes","59a800d99ad5a1025d81bb03","59a801616c613b0251691de0","no","no","0","j","f","space","NA","space","space","j","2203","3140","17885","NA","19785","17351","2203","2","legacy","1024","1","44100","-16","experiment","lemal","2","0","1","0","1","Franzoesisch, Eng","23","","odd","7985311","7966913","NA","NA","7988452","7985308","NA","7398199","7984853","7398199","7398199","7895531","7915321","8169237","8167733","8171442","7935970","7932971","7966913","NA","7814105","7884873","7965256","7932741","7985311","7932975","NA","8169237","8169237","8126124","8126121","8167729","NAP perception","44","83702","55","yes","1024"
