"acc","accept_status","accuracy","average_response_time","avg_rt","background","bidi","canvas_backend","checkbox_status","clock_backend","color_backend","compensation","coordinates","correct","correct_block_activation","correct_block_exit","correct_instructions_1","correct_instructions_2","correct_keyboard_response","correct_response","count_block_activation","count_block_exit","count_block_info_QA","count_cont_e_block_message","count_e_block_loop","count_e_block_sequence","count_end_of_experiment","count_experiment","count_experimental_loop","count_form_consent","count_info_forms","count_instructions_1","count_instructions_2","count_keyboard_response","count_listen_message","count_logger","count_p_block_loop","count_p_block_sequence","count_p_feedback","count_pause_feedback","count_personal_details_form_1","count_personal_details_form_2","count_post_loop_blank","count_practice_loop","count_pre_e_block_message","count_pre_p_block_message","count_reset_feedback","count_stimulus_image","count_stimulus_sound","count_timeout_message","count_timeout_sound","count_trial_sequence","datetime","description","disable_garbage_collection","experiment_file","experiment_path","expyriment_opengl","font_bold","font_family","font_italic","font_size","font_underline","foreground","form_clicks","form_response","fullscreen","height","keyboard_backend","live_row","live_row_p_block_loop","live_row_practice_loop","logfile","mouse_backend","opensesame_codename","opensesame_version","osf_always_upload_data","osf_always_upload_experiment","osf_datanode_id","osf_id","practice","pygame_doublebuf","repeat_cycle","response","response_block_activation","response_block_exit","response_block_info_QA","response_instructions_1","response_instructions_2","response_keyboard_response","response_time","response_time_block_activation","response_time_block_exit","response_time_block_info_QA","response_time_instructions_1","response_time_instructions_2","response_time_keyboard_response","round_decimals","sampler_backend","sound_buf_size","sound_channels","sound_freq","sound_sample_size","start","stimulus","subject_age","subject_education","subject_gender","subject_german_native","subject_handedness","subject_language_other","subject_nr","subject_other_native_lang","subject_parity","time_block_activation","time_block_exit","time_block_info_QA","time_cont_e_block_message","time_e_block_loop","time_e_block_sequence","time_end_of_experiment","time_experiment","time_experimental_loop","time_form_consent","time_info_forms","time_instructions_1","time_instructions_2","time_keyboard_response","time_listen_message","time_logger","time_p_block_loop","time_p_block_sequence","time_p_feedback","time_pause_feedback","time_personal_details_form_1","time_personal_details_form_2","time_post_loop_blank","time_practice_loop","time_pre_e_block_message","time_pre_p_block_message","time_reset_feedback","time_stimulus_image","time_stimulus_sound","time_timeout_message","time_timeout_sound","time_trial_sequence","title","total_correct","total_response_time","total_responses","uniform_coordinates","width"
"100","yes","100","1475","1475","white","no","xpyriment","Ich habe die obigen Informationen gelesen und verstanden.","legacy","legacy","0","uniform","1","0","NA","undefined","undefined","1","f","0","0","NA","NA","NA","NA","NA","0","0","0","0","0","0","0","0","0","0","0","NA","NA","0","0","0","0","NA","0","0","0","0","0","0","0","Sat Nov 11 20:51:37 2017","Forced-choice identification task with a practice and an experimental phase","yes","NAP_GER_AA_4blocks_noglides.osexp","/Users/aviadalbert/Documents/Academisch/UoC/Dissertation/Experiment/OpenSesame/NAP-FC/NAP_GER_AA_4blocks_noglides","yes","no","sans","no","20","no","black","no","Weiter","yes","768","legacy","0","0","0","/Users/aviadalbert/Documents/Academisch/UoC/Dissertation/Experiment/OpenSesame/NAP-FC/NAP_GER_AA_4blocks_noglides/subject-49.csv","xpyriment","Jazzy James","3.1.9","yes","yes","59a800d99ad5a1025d81bb03","59a801616c613b0251691de0","yes","no","0","f","f","NA","NA","k","k","f","1475","3948","NA","NA","35609","29938","1475","2","legacy","1024","1","44100","-16","experiment","flal","3","2","1","0","1","eng","49","","odd","5662862","NA","NA","NA","NA","NA","NA","5472461","NA","5472462","5472462","5597014","5632627","5668530","5667027","5670006","5666811","5662858","NA","NA","5545233","5575794","NA","5662634","NA","5662862","NA","5668530","5668530","NA","NA","5667023","NAP perception","1","1475","1","yes","1024"
"100","yes","100","1208","1208","white","no","xpyriment","Ich habe die obigen Informationen gelesen und verstanden.","legacy","legacy","0","uniform","1","0","NA","undefined","undefined","1","j","0","0","NA","NA","NA","NA","NA","0","0","0","0","0","0","1","1","1","0","0","NA","NA","0","0","0","0","NA","0","0","1","1","1","1","1","Sat Nov 11 20:51:37 2017","Forced-choice identification task with a practice and an experimental phase","yes","NAP_GER_AA_4blocks_noglides.osexp","/Users/aviadalbert/Documents/Academisch/UoC/Dissertation/Experiment/OpenSesame/NAP-FC/NAP_GER_AA_4blocks_noglides","yes","no","sans","no","20","no","black","no","Weiter","yes","768","legacy","1","1","0","/Users/aviadalbert/Documents/Academisch/UoC/Dissertation/Experiment/OpenSesame/NAP-FC/NAP_GER_AA_4blocks_noglides/subject-49.csv","xpyriment","Jazzy James","3.1.9","yes","yes","59a800d99ad5a1025d81bb03","59a801616c613b0251691de0","yes","no","0","j","f","NA","NA","k","k","j","941","3948","NA","NA","35609","29938","941","2","legacy","1024","1","44100","-16","experiment","lepal","3","2","1","0","1","eng","49","","odd","5662862","NA","NA","NA","NA","NA","NA","5472461","NA","5472462","5472462","5597014","5632627","5671801","5670297","5672743","5666811","5662858","NA","NA","5545233","5575794","NA","5662634","NA","5662862","NA","5671801","5671801","NA","NA","5670293","NAP perception","2","2416","2","yes","1024"
"100","yes","100","1136.66666667","1136.66666667","white","no","xpyriment","Ich habe die obigen Informationen gelesen und verstanden.","legacy","legacy","0","uniform","1","0","NA","undefined","undefined","1","j","0","0","NA","NA","NA","NA","NA","0","0","0","0","0","0","2","2","2","0","0","NA","NA","0","0","0","0","NA","0","0","2","2","2","2","2","Sat Nov 11 20:51:37 2017","Forced-choice identification task with a practice and an experimental phase","yes","NAP_GER_AA_4blocks_noglides.osexp","/Users/aviadalbert/Documents/Academisch/UoC/Dissertation/Experiment/OpenSesame/NAP-FC/NAP_GER_AA_4blocks_noglides","yes","no","sans","no","20","no","black","no","Weiter","yes","768","legacy","2","2","0","/Users/aviadalbert/Documents/Academisch/UoC/Dissertation/Experiment/OpenSesame/NAP-FC/NAP_GER_AA_4blocks_noglides/subject-49.csv","xpyriment","Jazzy James","3.1.9","yes","yes","59a800d99ad5a1025d81bb03","59a801616c613b0251691de0","yes","no","0","j","f","NA","NA","k","k","j","994","3948","NA","NA","35609","29938","994","2","legacy","1024","1","44100","-16","experiment","emtal","3","2","1","0","1","eng","49","","odd","5662862","NA","NA","NA","NA","NA","NA","5472461","NA","5472462","5472462","5597014","5632627","5674530","5673023","5675525","5666811","5662858","NA","NA","5545233","5575794","NA","5662634","NA","5662862","NA","5674529","5674530","NA","NA","5673019","NAP perception","3","3410","3","yes","1024"
"100","yes","100","1111","1111","white","no","xpyriment","Ich habe die obigen Informationen gelesen und verstanden.","legacy","legacy","0","uniform","1","0","NA","undefined","undefined","1","f","0","0","NA","NA","NA","NA","NA","0","0","0","0","0","0","3","3","3","0","0","NA","NA","0","0","0","0","NA","0","0","3","3","3","3","3","Sat Nov 11 20:51:37 2017","Forced-choice identification task with a practice and an experimental phase","yes","NAP_GER_AA_4blocks_noglides.osexp","/Users/aviadalbert/Documents/Academisch/UoC/Dissertation/Experiment/OpenSesame/NAP-FC/NAP_GER_AA_4blocks_noglides","yes","no","sans","no","20","no","black","no","Weiter","yes","768","legacy","3","3","0","/Users/aviadalbert/Documents/Academisch/UoC/Dissertation/Experiment/OpenSesame/NAP-FC/NAP_GER_AA_4blocks_noglides/subject-49.csv","xpyriment","Jazzy James","3.1.9","yes","yes","59a800d99ad5a1025d81bb03","59a801616c613b0251691de0","yes","no","0","f","f","NA","NA","k","k","f","1034","3948","NA","NA","35609","29938","1034","2","legacy","1024","1","44100","-16","experiment","ʃpal","3","2","1","0","1","eng","49","","odd","5662862","NA","NA","NA","NA","NA","NA","5472461","NA","5472462","5472462","5597014","5632627","5677316","5675810","5678351","5666811","5662858","NA","NA","5545233","5575794","NA","5662634","NA","5662862","NA","5677316","5677316","NA","NA","5675806","NAP perception","4","4444","4","yes","1024"
"100","yes","100","1133.8","1133.8","white","no","xpyriment","Ich habe die obigen Informationen gelesen und verstanden.","legacy","legacy","0","uniform","1","0","NA","undefined","undefined","1","j","0","0","NA","NA","NA","NA","NA","0","0","0","0","0","0","4","4","4","0","0","NA","NA","0","0","0","0","NA","0","0","4","4","4","4","4","Sat Nov 11 20:51:37 2017","Forced-choice identification task with a practice and an experimental phase","yes","NAP_GER_AA_4blocks_noglides.osexp","/Users/aviadalbert/Documents/Academisch/UoC/Dissertation/Experiment/OpenSesame/NAP-FC/NAP_GER_AA_4blocks_noglides","yes","no","sans","no","20","no","black","no","Weiter","yes","768","legacy","4","4","0","/Users/aviadalbert/Documents/Academisch/UoC/Dissertation/Experiment/OpenSesame/NAP-FC/NAP_GER_AA_4blocks_noglides/subject-49.csv","xpyriment","Jazzy James","3.1.9","yes","yes","59a800d99ad5a1025d81bb03","59a801616c613b0251691de0","yes","no","0","j","f","NA","NA","k","k","j","1225","3948","NA","NA","35609","29938","1225","2","legacy","1024","1","44100","-16","experiment","nefal","3","2","1","0","1","eng","49","","odd","5662862","NA","NA","NA","NA","NA","NA","5472461","NA","5472462","5472462","5597014","5632627","5680128","5678625","5681354","5666811","5662858","NA","NA","5545233","5575794","NA","5662634","NA","5662862","NA","5680128","5680128","NA","NA","5678621","NAP perception","5","5669","5","yes","1024"
"100","yes","100","1136.83333333","1136.83333333","white","no","xpyriment","Ich habe die obigen Informationen gelesen und verstanden.","legacy","legacy","0","uniform","1","0","NA","undefined","undefined","1","f","0","0","NA","NA","NA","NA","NA","0","0","0","0","0","0","5","5","5","0","0","NA","NA","0","0","0","0","NA","0","0","5","5","5","5","5","Sat Nov 11 20:51:37 2017","Forced-choice identification task with a practice and an experimental phase","yes","NAP_GER_AA_4blocks_noglides.osexp","/Users/aviadalbert/Documents/Academisch/UoC/Dissertation/Experiment/OpenSesame/NAP-FC/NAP_GER_AA_4blocks_noglides","yes","no","sans","no","20","no","black","no","Weiter","yes","768","legacy","5","5","0","/Users/aviadalbert/Documents/Academisch/UoC/Dissertation/Experiment/OpenSesame/NAP-FC/NAP_GER_AA_4blocks_noglides/subject-49.csv","xpyriment","Jazzy James","3.1.9","yes","yes","59a800d99ad5a1025d81bb03","59a801616c613b0251691de0","yes","no","0","f","f","NA","NA","k","k","f","1152","3948","NA","NA","35609","29938","1152","2","legacy","1024","1","44100","-16","experiment","sfal","3","2","1","0","1","eng","49","","odd","5662862","NA","NA","NA","NA","NA","NA","5472461","NA","5472462","5472462","5597014","5632627","5683144","5681637","5684298","5666811","5662858","NA","NA","5545233","5575794","NA","5662634","NA","5662862","NA","5683144","5683144","NA","NA","5681633","NAP perception","6","6821","6","yes","1024"
"100","yes","100","1137.14285714","1137.14285714","white","no","xpyriment","Ich habe die obigen Informationen gelesen und verstanden.","legacy","legacy","0","uniform","1","0","NA","undefined","undefined","1","f","0","0","NA","NA","NA","NA","NA","0","0","0","0","0","0","6","6","6","0","0","NA","NA","0","0","0","0","NA","0","0","6","6","6","6","6","Sat Nov 11 20:51:37 2017","Forced-choice identification task with a practice and an experimental phase","yes","NAP_GER_AA_4blocks_noglides.osexp","/Users/aviadalbert/Documents/Academisch/UoC/Dissertation/Experiment/OpenSesame/NAP-FC/NAP_GER_AA_4blocks_noglides","yes","no","sans","no","20","no","black","no","Weiter","yes","768","legacy","6","6","0","/Users/aviadalbert/Documents/Academisch/UoC/Dissertation/Experiment/OpenSesame/NAP-FC/NAP_GER_AA_4blocks_noglides/subject-49.csv","xpyriment","Jazzy James","3.1.9","yes","yes","59a800d99ad5a1025d81bb03","59a801616c613b0251691de0","yes","no","0","f","f","NA","NA","k","k","f","1139","3948","NA","NA","35609","29938","1139","2","legacy","1024","1","44100","-16","experiment","zmal","3","2","1","0","1","eng","49","","odd","5662862","NA","NA","NA","NA","NA","NA","5472461","NA","5472462","5472462","5597014","5632627","5686088","5684584","5687228","5666811","5662858","NA","NA","5545233","5575794","NA","5662634","NA","5662862","NA","5686087","5686088","NA","NA","5684580","NAP perception","7","7960","7","yes","1024"
"100","yes","100","1123.5","1123.5","white","no","xpyriment","Ich habe die obigen Informationen gelesen und verstanden.","legacy","legacy","0","uniform","1","0","NA","undefined","undefined","1","j","0","0","NA","NA","NA","NA","NA","0","0","0","0","0","0","7","7","7","0","0","NA","NA","0","0","0","0","NA","0","0","7","7","7","7","7","Sat Nov 11 20:51:37 2017","Forced-choice identification task with a practice and an experimental phase","yes","NAP_GER_AA_4blocks_noglides.osexp","/Users/aviadalbert/Documents/Academisch/UoC/Dissertation/Experiment/OpenSesame/NAP-FC/NAP_GER_AA_4blocks_noglides","yes","no","sans","no","20","no","black","no","Weiter","yes","768","legacy","7","7","0","/Users/aviadalbert/Documents/Academisch/UoC/Dissertation/Experiment/OpenSesame/NAP-FC/NAP_GER_AA_4blocks_noglides/subject-49.csv","xpyriment","Jazzy James","3.1.9","yes","yes","59a800d99ad5a1025d81bb03","59a801616c613b0251691de0","yes","no","0","j","f","NA","NA","k","k","j","1028","3948","NA","NA","35609","29938","1028","2","legacy","1024","1","44100","-16","experiment","mesal","3","2","1","0","1","eng","49","","odd","5662862","NA","NA","NA","NA","NA","NA","5472461","NA","5472462","5472462","5597014","5632627","5688997","5687492","5690027","5666811","5662858","NA","NA","5545233","5575794","NA","5662634","NA","5662862","NA","5688997","5688997","NA","NA","5687489","NAP perception","8","8988","8","yes","1024"
"88.8888888889","yes","88.8888888889","1133.88888889","1133.88888889","white","no","xpyriment","Ich habe die obigen Informationen gelesen und verstanden.","legacy","legacy","0","uniform","0","0","NA","undefined","undefined","0","j","0","0","NA","NA","NA","NA","NA","0","0","0","0","0","0","8","8","8","0","0","NA","NA","0","0","0","0","NA","0","0","8","8","8","8","8","Sat Nov 11 20:51:37 2017","Forced-choice identification task with a practice and an experimental phase","yes","NAP_GER_AA_4blocks_noglides.osexp","/Users/aviadalbert/Documents/Academisch/UoC/Dissertation/Experiment/OpenSesame/NAP-FC/NAP_GER_AA_4blocks_noglides","yes","no","sans","no","20","no","black","no","Weiter","yes","768","legacy","8","8","0","/Users/aviadalbert/Documents/Academisch/UoC/Dissertation/Experiment/OpenSesame/NAP-FC/NAP_GER_AA_4blocks_noglides/subject-49.csv","xpyriment","Jazzy James","3.1.9","yes","yes","59a800d99ad5a1025d81bb03","59a801616c613b0251691de0","yes","no","0","f","f","NA","NA","k","k","f","1217","3948","NA","NA","35609","29938","1217","2","legacy","1024","1","44100","-16","experiment","enval","3","2","1","0","1","eng","49","","odd","5662862","NA","NA","NA","NA","NA","NA","5472461","NA","5472462","5472462","5597014","5632627","5691806","5690299","5693025","5666811","5662858","NA","NA","5545233","5575794","NA","5662634","NA","5662862","NA","5691806","5691806","NA","NA","5690295","NAP perception","8","10205","9","yes","1024"
"90","yes","90","1119.4","1119.4","white","no","xpyriment","Ich habe die obigen Informationen gelesen und verstanden.","legacy","legacy","0","uniform","1","0","NA","undefined","undefined","1","f","0","0","NA","NA","NA","NA","NA","0","0","0","0","0","0","9","9","9","0","0","NA","NA","0","0","0","0","NA","0","0","9","9","9","9","9","Sat Nov 11 20:51:37 2017","Forced-choice identification task with a practice and an experimental phase","yes","NAP_GER_AA_4blocks_noglides.osexp","/Users/aviadalbert/Documents/Academisch/UoC/Dissertation/Experiment/OpenSesame/NAP-FC/NAP_GER_AA_4blocks_noglides","yes","no","sans","no","20","no","black","no","Weiter","yes","768","legacy","9","9","0","/Users/aviadalbert/Documents/Academisch/UoC/Dissertation/Experiment/OpenSesame/NAP-FC/NAP_GER_AA_4blocks_noglides/subject-49.csv","xpyriment","Jazzy James","3.1.9","yes","yes","59a800d99ad5a1025d81bb03","59a801616c613b0251691de0","yes","no","0","f","f","NA","NA","k","k","f","989","3948","NA","NA","35609","29938","989","2","legacy","1024","1","44100","-16","experiment","vlal","3","2","1","0","1","eng","49","","odd","5662862","NA","NA","NA","NA","NA","NA","5472461","NA","5472462","5472462","5597014","5632627","5694820","5693315","5695810","5666811","5662858","NA","NA","5545233","5575794","NA","5662634","NA","5662862","NA","5694820","5694820","NA","NA","5693311","NAP perception","9","11194","10","yes","1024"
"100","yes","100","1148","1148","white","no","xpyriment","Ich habe die obigen Informationen gelesen und verstanden.","legacy","legacy","0","uniform","1","0","0","undefined","undefined","1","j","2","1","NA","0","1","0","0","0","0","0","0","0","0","10","10","10","0","0","0","NA","0","0","2","0","0","0","2","10","10","10","10","10","Sat Nov 11 20:51:37 2017","Forced-choice identification task with a practice and an experimental phase","yes","NAP_GER_AA_4blocks_noglides.osexp","/Users/aviadalbert/Documents/Academisch/UoC/Dissertation/Experiment/OpenSesame/NAP-FC/NAP_GER_AA_4blocks_noglides","yes","no","sans","no","20","no","black","no","Weiter","yes","768","legacy","0","9","0","/Users/aviadalbert/Documents/Academisch/UoC/Dissertation/Experiment/OpenSesame/NAP-FC/NAP_GER_AA_4blocks_noglides/subject-49.csv","xpyriment","Jazzy James","3.1.9","yes","yes","59a800d99ad5a1025d81bb03","59a801616c613b0251691de0","no","no","0","j","f","space","NA","k","k","j","1148","3008","54265","NA","35609","29938","1148","2","legacy","1024","1","44100","-16","experiment","eftal","3","2","1","0","1","eng","49","","odd","5752343","5697551","NA","NA","5755352","5752339","NA","5472461","5751874","5472462","5472462","5597014","5632627","5757086","5755579","5758235","5666811","5662858","5697551","NA","5545233","5575794","5695873","5662634","5752342","5662862","NA","5757085","5757085","NA","NA","5755575","NAP perception","1","1148","1","yes","1024"
"100","yes","100","992.5","992.5","white","no","xpyriment","Ich habe die obigen Informationen gelesen und verstanden.","legacy","legacy","0","uniform","1","0","0","undefined","undefined","1","j","2","1","NA","0","1","0","0","0","0","0","0","0","0","11","11","11","0","0","0","NA","0","0","2","0","0","0","2","11","11","11","11","11","Sat Nov 11 20:51:37 2017","Forced-choice identification task with a practice and an experimental phase","yes","NAP_GER_AA_4blocks_noglides.osexp","/Users/aviadalbert/Documents/Academisch/UoC/Dissertation/Experiment/OpenSesame/NAP-FC/NAP_GER_AA_4blocks_noglides","yes","no","sans","no","20","no","black","no","Weiter","yes","768","legacy","1","9","0","/Users/aviadalbert/Documents/Academisch/UoC/Dissertation/Experiment/OpenSesame/NAP-FC/NAP_GER_AA_4blocks_noglides/subject-49.csv","xpyriment","Jazzy James","3.1.9","yes","yes","59a800d99ad5a1025d81bb03","59a801616c613b0251691de0","no","no","0","j","f","space","NA","k","k","j","837","3008","54265","NA","35609","29938","837","2","legacy","1024","1","44100","-16","experiment","nemal","3","2","1","0","1","eng","49","","odd","5752343","5697551","NA","NA","5755352","5752339","NA","5472461","5751874","5472462","5472462","5597014","5632627","5760021","5758518","5760859","5666811","5662858","5697551","NA","5545233","5575794","5695873","5662634","5752342","5662862","NA","5760021","5760021","NA","NA","5758514","NAP perception","2","1985","2","yes","1024"
"100","yes","100","941","941","white","no","xpyriment","Ich habe die obigen Informationen gelesen und verstanden.","legacy","legacy","0","uniform","1","0","0","undefined","undefined","1","f","2","1","NA","0","1","0","0","0","0","0","0","0","0","12","12","12","0","0","0","NA","0","0","2","0","0","0","2","12","12","12","12","12","Sat Nov 11 20:51:37 2017","Forced-choice identification task with a practice and an experimental phase","yes","NAP_GER_AA_4blocks_noglides.osexp","/Users/aviadalbert/Documents/Academisch/UoC/Dissertation/Experiment/OpenSesame/NAP-FC/NAP_GER_AA_4blocks_noglides","yes","no","sans","no","20","no","black","no","Weiter","yes","768","legacy","2","9","0","/Users/aviadalbert/Documents/Academisch/UoC/Dissertation/Experiment/OpenSesame/NAP-FC/NAP_GER_AA_4blocks_noglides/subject-49.csv","xpyriment","Jazzy James","3.1.9","yes","yes","59a800d99ad5a1025d81bb03","59a801616c613b0251691de0","no","no","0","f","f","space","NA","k","k","f","838","3008","54265","NA","35609","29938","838","2","legacy","1024","1","44100","-16","experiment","spal","3","2","1","0","1","eng","49","","odd","5752343","5697551","NA","NA","5755352","5752339","NA","5472461","5751874","5472462","5472462","5597014","5632627","5762641","5761136","5763480","5666811","5662858","5697551","NA","5545233","5575794","5695873","5662634","5752342","5662862","NA","5762641","5762641","NA","NA","5761132","NAP perception","3","2823","3","yes","1024"
"100","yes","100","918.25","918.25","white","no","xpyriment","Ich habe die obigen Informationen gelesen und verstanden.","legacy","legacy","0","uniform","1","0","0","undefined","undefined","1","j","2","1","NA","0","1","0","0","0","0","0","0","0","0","13","13","13","0","0","0","NA","0","0","2","0","0","0","2","13","13","13","13","13","Sat Nov 11 20:51:37 2017","Forced-choice identification task with a practice and an experimental phase","yes","NAP_GER_AA_4blocks_noglides.osexp","/Users/aviadalbert/Documents/Academisch/UoC/Dissertation/Experiment/OpenSesame/NAP-FC/NAP_GER_AA_4blocks_noglides","yes","no","sans","no","20","no","black","no","Weiter","yes","768","legacy","3","9","0","/Users/aviadalbert/Documents/Academisch/UoC/Dissertation/Experiment/OpenSesame/NAP-FC/NAP_GER_AA_4blocks_noglides/subject-49.csv","xpyriment","Jazzy James","3.1.9","yes","yes","59a800d99ad5a1025d81bb03","59a801616c613b0251691de0","no","no","0","j","f","space","NA","k","k","j","850","3008","54265","NA","35609","29938","850","2","legacy","1024","1","44100","-16","experiment","elfal","3","2","1","0","1","eng","49","","odd","5752343","5697551","NA","NA","5755352","5752339","NA","5472461","5751874","5472462","5472462","5597014","5632627","5765259","5763756","5766111","5666811","5662858","5697551","NA","5545233","5575794","5695873","5662634","5752342","5662862","NA","5765259","5765259","NA","NA","5763752","NAP perception","4","3673","4","yes","1024"
"100","yes","100","890.6","890.6","white","no","xpyriment","Ich habe die obigen Informationen gelesen und verstanden.","legacy","legacy","0","uniform","1","0","0","undefined","undefined","1","j","2","1","NA","0","1","0","0","0","0","0","0","0","0","14","14","14","0","0","0","NA","0","0","2","0","0","0","2","14","14","14","14","14","Sat Nov 11 20:51:37 2017","Forced-choice identification task with a practice and an experimental phase","yes","NAP_GER_AA_4blocks_noglides.osexp","/Users/aviadalbert/Documents/Academisch/UoC/Dissertation/Experiment/OpenSesame/NAP-FC/NAP_GER_AA_4blocks_noglides","yes","no","sans","no","20","no","black","no","Weiter","yes","768","legacy","4","9","0","/Users/aviadalbert/Documents/Academisch/UoC/Dissertation/Experiment/OpenSesame/NAP-FC/NAP_GER_AA_4blocks_noglides/subject-49.csv","xpyriment","Jazzy James","3.1.9","yes","yes","59a800d99ad5a1025d81bb03","59a801616c613b0251691de0","no","no","0","j","f","space","NA","k","k","j","780","3008","54265","NA","35609","29938","780","2","legacy","1024","1","44100","-16","experiment","emtal","3","2","1","0","1","eng","49","","odd","5752343","5697551","NA","NA","5755352","5752339","NA","5472461","5751874","5472462","5472462","5597014","5632627","5767897","5766392","5768678","5666811","5662858","5697551","NA","5545233","5575794","5695873","5662634","5752342","5662862","NA","5767897","5767897","NA","NA","5766388","NAP perception","5","4453","5","yes","1024"
"83.3333333333","yes","83.3333333333","888","888","white","no","xpyriment","Ich habe die obigen Informationen gelesen und verstanden.","legacy","legacy","0","uniform","0","0","0","undefined","undefined","0","f","2","1","NA","0","1","0","0","0","0","0","0","0","0","15","15","15","0","0","0","NA","0","0","2","0","0","0","2","15","15","15","15","15","Sat Nov 11 20:51:37 2017","Forced-choice identification task with a practice and an experimental phase","yes","NAP_GER_AA_4blocks_noglides.osexp","/Users/aviadalbert/Documents/Academisch/UoC/Dissertation/Experiment/OpenSesame/NAP-FC/NAP_GER_AA_4blocks_noglides","yes","no","sans","no","20","no","black","no","Weiter","yes","768","legacy","5","9","0","/Users/aviadalbert/Documents/Academisch/UoC/Dissertation/Experiment/OpenSesame/NAP-FC/NAP_GER_AA_4blocks_noglides/subject-49.csv","xpyriment","Jazzy James","3.1.9","yes","yes","59a800d99ad5a1025d81bb03","59a801616c613b0251691de0","no","no","0","j","f","space","NA","k","k","j","875","3008","54265","NA","35609","29938","875","2","legacy","1024","1","44100","-16","experiment","lpal","3","2","1","0","1","eng","49","","odd","5752343","5697551","NA","NA","5755352","5752339","NA","5472461","5751874","5472462","5472462","5597014","5632627","5770478","5768973","5771354","5666811","5662858","5697551","NA","5545233","5575794","5695873","5662634","5752342","5662862","NA","5770477","5770477","NA","NA","5768969","NAP perception","5","5328","6","yes","1024"
"71.4285714286","yes","71.4285714286","889","889","white","no","xpyriment","Ich habe die obigen Informationen gelesen und verstanden.","legacy","legacy","0","uniform","0","0","0","undefined","undefined","0","f","2","1","NA","0","1","0","0","0","0","0","0","0","0","16","16","16","0","0","0","NA","0","0","2","0","0","0","2","16","16","16","16","16","Sat Nov 11 20:51:37 2017","Forced-choice identification task with a practice and an experimental phase","yes","NAP_GER_AA_4blocks_noglides.osexp","/Users/aviadalbert/Documents/Academisch/UoC/Dissertation/Experiment/OpenSesame/NAP-FC/NAP_GER_AA_4blocks_noglides","yes","no","sans","no","20","no","black","no","Weiter","yes","768","legacy","6","9","0","/Users/aviadalbert/Documents/Academisch/UoC/Dissertation/Experiment/OpenSesame/NAP-FC/NAP_GER_AA_4blocks_noglides/subject-49.csv","xpyriment","Jazzy James","3.1.9","yes","yes","59a800d99ad5a1025d81bb03","59a801616c613b0251691de0","no","no","0","j","f","space","NA","k","k","j","895","3008","54265","NA","35609","29938","895","2","legacy","1024","1","44100","-16","experiment","lfal","3","2","1","0","1","eng","49","","odd","5752343","5697551","NA","NA","5755352","5752339","NA","5472461","5751874","5472462","5472462","5597014","5632627","5773128","5771625","5774024","5666811","5662858","5697551","NA","5545233","5575794","5695873","5662634","5752342","5662862","NA","5773128","5773128","NA","NA","5771621","NAP perception","5","6223","7","yes","1024"
"62.5","yes","62.5","911.625","911.625","white","no","xpyriment","Ich habe die obigen Informationen gelesen und verstanden.","legacy","legacy","0","uniform","0","0","0","undefined","undefined","0","f","2","1","NA","0","1","0","0","0","0","0","0","0","0","17","17","17","0","0","0","NA","0","0","2","0","0","0","2","17","17","17","17","17","Sat Nov 11 20:51:37 2017","Forced-choice identification task with a practice and an experimental phase","yes","NAP_GER_AA_4blocks_noglides.osexp","/Users/aviadalbert/Documents/Academisch/UoC/Dissertation/Experiment/OpenSesame/NAP-FC/NAP_GER_AA_4blocks_noglides","yes","no","sans","no","20","no","black","no","Weiter","yes","768","legacy","7","9","0","/Users/aviadalbert/Documents/Academisch/UoC/Dissertation/Experiment/OpenSesame/NAP-FC/NAP_GER_AA_4blocks_noglides/subject-49.csv","xpyriment","Jazzy James","3.1.9","yes","yes","59a800d99ad5a1025d81bb03","59a801616c613b0251691de0","no","no","0","j","f","space","NA","k","k","j","1070","3008","54265","NA","35609","29938","1070","2","legacy","1024","1","44100","-16","experiment","lval","3","2","1","0","1","eng","49","","odd","5752343","5697551","NA","NA","5755352","5752339","NA","5472461","5751874","5472462","5472462","5597014","5632627","5775809","5774302","5776881","5666811","5662858","5697551","NA","5545233","5575794","5695873","5662634","5752342","5662862","NA","5775808","5775809","NA","NA","5774298","NAP perception","5","7293","8","yes","1024"
"66.6666666667","yes","66.6666666667","1018.22222222","1018.22222222","white","no","xpyriment","Ich habe die obigen Informationen gelesen und verstanden.","legacy","legacy","0","uniform","1","0","0","undefined","undefined","1","f","2","1","NA","0","1","0","0","0","0","0","0","0","0","18","18","18","0","0","0","NA","0","0","2","0","0","0","2","18","18","18","18","18","Sat Nov 11 20:51:37 2017","Forced-choice identification task with a practice and an experimental phase","yes","NAP_GER_AA_4blocks_noglides.osexp","/Users/aviadalbert/Documents/Academisch/UoC/Dissertation/Experiment/OpenSesame/NAP-FC/NAP_GER_AA_4blocks_noglides","yes","no","sans","no","20","no","black","no","Weiter","yes","768","legacy","8","9","0","/Users/aviadalbert/Documents/Academisch/UoC/Dissertation/Experiment/OpenSesame/NAP-FC/NAP_GER_AA_4blocks_noglides/subject-49.csv","xpyriment","Jazzy James","3.1.9","yes","yes","59a800d99ad5a1025d81bb03","59a801616c613b0251691de0","no","no","0","f","f","space","NA","k","k","f","1871","3008","54265","NA","35609","29938","1871","2","legacy","1024","1","44100","-16","experiment","vzal","3","2","1","0","1","eng","49","","odd","5752343","5697551","NA","NA","5755352","5752339","NA","5472461","5751874","5472462","5472462","5597014","5632627","5778653","5777146","5780526","5666811","5662858","5697551","NA","5545233","5575794","5695873","5662634","5752342","5662862","NA","5778652","5778653","NA","NA","5777142","NAP perception","6","9164","9","yes","1024"
"70","yes","70","1012.5","1012.5","white","no","xpyriment","Ich habe die obigen Informationen gelesen und verstanden.","legacy","legacy","0","uniform","1","0","0","undefined","undefined","1","f","2","1","NA","0","1","0","0","0","0","0","0","0","0","19","19","19","0","0","0","NA","0","0","2","0","0","0","2","19","19","19","19","19","Sat Nov 11 20:51:37 2017","Forced-choice identification task with a practice and an experimental phase","yes","NAP_GER_AA_4blocks_noglides.osexp","/Users/aviadalbert/Documents/Academisch/UoC/Dissertation/Experiment/OpenSesame/NAP-FC/NAP_GER_AA_4blocks_noglides","yes","no","sans","no","20","no","black","no","Weiter","yes","768","legacy","9","9","0","/Users/aviadalbert/Documents/Academisch/UoC/Dissertation/Experiment/OpenSesame/NAP-FC/NAP_GER_AA_4blocks_noglides/subject-49.csv","xpyriment","Jazzy James","3.1.9","yes","yes","59a800d99ad5a1025d81bb03","59a801616c613b0251691de0","no","no","0","f","f","space","NA","k","k","f","961","3008","54265","NA","35609","29938","961","2","legacy","1024","1","44100","-16","experiment","sfal","3","2","1","0","1","eng","49","","odd","5752343","5697551","NA","NA","5755352","5752339","NA","5472461","5751874","5472462","5472462","5597014","5632627","5782292","5780786","5783254","5666811","5662858","5697551","NA","5545233","5575794","5695873","5662634","5752342","5662862","NA","5782291","5782292","NA","NA","5780782","NAP perception","7","10125","10","yes","1024"
"72.7272727273","yes","72.7272727273","1022","1022","white","no","xpyriment","Ich habe die obigen Informationen gelesen und verstanden.","legacy","legacy","0","uniform","1","0","0","undefined","undefined","1","j","2","1","NA","0","1","0","0","0","0","0","0","0","0","20","20","20","0","0","0","NA","0","0","2","0","0","0","2","20","20","20","20","20","Sat Nov 11 20:51:37 2017","Forced-choice identification task with a practice and an experimental phase","yes","NAP_GER_AA_4blocks_noglides.osexp","/Users/aviadalbert/Documents/Academisch/UoC/Dissertation/Experiment/OpenSesame/NAP-FC/NAP_GER_AA_4blocks_noglides","yes","no","sans","no","20","no","black","no","Weiter","yes","768","legacy","10","9","0","/Users/aviadalbert/Documents/Academisch/UoC/Dissertation/Experiment/OpenSesame/NAP-FC/NAP_GER_AA_4blocks_noglides/subject-49.csv","xpyriment","Jazzy James","3.1.9","yes","yes","59a800d99ad5a1025d81bb03","59a801616c613b0251691de0","no","no","0","j","f","space","NA","k","k","j","1117","3008","54265","NA","35609","29938","1117","2","legacy","1024","1","44100","-16","experiment","esfal","3","2","1","0","1","eng","49","","odd","5752343","5697551","NA","NA","5755352","5752339","NA","5472461","5751874","5472462","5472462","5597014","5632627","5785019","5783515","5786137","5666811","5662858","5697551","NA","5545233","5575794","5695873","5662634","5752342","5662862","NA","5785019","5785019","NA","NA","5783511","NAP perception","8","11242","11","yes","1024"
"75","yes","75","1016","1016","white","no","xpyriment","Ich habe die obigen Informationen gelesen und verstanden.","legacy","legacy","0","uniform","1","0","0","undefined","undefined","1","j","2","1","NA","0","1","0","0","0","0","0","0","0","0","21","21","21","0","0","0","NA","0","0","2","0","0","0","2","21","21","21","21","21","Sat Nov 11 20:51:37 2017","Forced-choice identification task with a practice and an experimental phase","yes","NAP_GER_AA_4blocks_noglides.osexp","/Users/aviadalbert/Documents/Academisch/UoC/Dissertation/Experiment/OpenSesame/NAP-FC/NAP_GER_AA_4blocks_noglides","yes","no","sans","no","20","no","black","no","Weiter","yes","768","legacy","11","9","0","/Users/aviadalbert/Documents/Academisch/UoC/Dissertation/Experiment/OpenSesame/NAP-FC/NAP_GER_AA_4blocks_noglides/subject-49.csv","xpyriment","Jazzy James","3.1.9","yes","yes","59a800d99ad5a1025d81bb03","59a801616c613b0251691de0","no","no","0","j","f","space","NA","k","k","j","950","3008","54265","NA","35609","29938","950","2","legacy","1024","1","44100","-16","experiment","lemal","3","2","1","0","1","eng","49","","odd","5752343","5697551","NA","NA","5755352","5752339","NA","5472461","5751874","5472462","5472462","5597014","5632627","5787924","5786420","5788875","5666811","5662858","5697551","NA","5545233","5575794","5695873","5662634","5752342","5662862","NA","5787924","5787924","NA","NA","5786416","NAP perception","9","12192","12","yes","1024"
"76.9230769231","yes","76.9230769231","1005.76923077","1005.76923077","white","no","xpyriment","Ich habe die obigen Informationen gelesen und verstanden.","legacy","legacy","0","uniform","1","0","0","undefined","undefined","1","f","2","1","NA","0","1","0","0","0","0","0","0","0","0","22","22","22","0","0","0","NA","0","0","2","0","0","0","2","22","22","22","22","22","Sat Nov 11 20:51:37 2017","Forced-choice identification task with a practice and an experimental phase","yes","NAP_GER_AA_4blocks_noglides.osexp","/Users/aviadalbert/Documents/Academisch/UoC/Dissertation/Experiment/OpenSesame/NAP-FC/NAP_GER_AA_4blocks_noglides","yes","no","sans","no","20","no","black","no","Weiter","yes","768","legacy","12","9","0","/Users/aviadalbert/Documents/Academisch/UoC/Dissertation/Experiment/OpenSesame/NAP-FC/NAP_GER_AA_4blocks_noglides/subject-49.csv","xpyriment","Jazzy James","3.1.9","yes","yes","59a800d99ad5a1025d81bb03","59a801616c613b0251691de0","no","no","0","f","f","space","NA","k","k","f","883","3008","54265","NA","35609","29938","883","2","legacy","1024","1","44100","-16","experiment","vlal","3","2","1","0","1","eng","49","","odd","5752343","5697551","NA","NA","5755352","5752339","NA","5472461","5751874","5472462","5472462","5597014","5632627","5790646","5789139","5791530","5666811","5662858","5697551","NA","5545233","5575794","5695873","5662634","5752342","5662862","NA","5790646","5790646","NA","NA","5789135","NAP perception","10","13075","13","yes","1024"
"78.5714285714","yes","78.5714285714","989.642857143","989.642857143","white","no","xpyriment","Ich habe die obigen Informationen gelesen und verstanden.","legacy","legacy","0","uniform","1","0","0","undefined","undefined","1","j","2","1","NA","0","1","0","0","0","0","0","0","0","0","23","23","23","0","0","0","NA","0","0","2","0","0","0","2","23","23","23","23","23","Sat Nov 11 20:51:37 2017","Forced-choice identification task with a practice and an experimental phase","yes","NAP_GER_AA_4blocks_noglides.osexp","/Users/aviadalbert/Documents/Academisch/UoC/Dissertation/Experiment/OpenSesame/NAP-FC/NAP_GER_AA_4blocks_noglides","yes","no","sans","no","20","no","black","no","Weiter","yes","768","legacy","13","9","0","/Users/aviadalbert/Documents/Academisch/UoC/Dissertation/Experiment/OpenSesame/NAP-FC/NAP_GER_AA_4blocks_noglides/subject-49.csv","xpyriment","Jazzy James","3.1.9","yes","yes","59a800d99ad5a1025d81bb03","59a801616c613b0251691de0","no","no","0","j","f","space","NA","k","k","j","780","3008","54265","NA","35609","29938","780","2","legacy","1024","1","44100","-16","experiment","zemal","3","2","1","0","1","eng","49","","odd","5752343","5697551","NA","NA","5755352","5752339","NA","5472461","5751874","5472462","5472462","5597014","5632627","5793308","5791805","5794090","5666811","5662858","5697551","NA","5545233","5575794","5695873","5662634","5752342","5662862","NA","5793308","5793308","NA","NA","5791801","NAP perception","11","13855","14","yes","1024"
"80","yes","80","986.133333333","986.133333333","white","no","xpyriment","Ich habe die obigen Informationen gelesen und verstanden.","legacy","legacy","0","uniform","1","0","0","undefined","undefined","1","f","2","1","NA","0","1","0","0","0","0","0","0","0","0","24","24","24","0","0","0","NA","0","0","2","0","0","0","2","24","24","24","24","24","Sat Nov 11 20:51:37 2017","Forced-choice identification task with a practice and an experimental phase","yes","NAP_GER_AA_4blocks_noglides.osexp","/Users/aviadalbert/Documents/Academisch/UoC/Dissertation/Experiment/OpenSesame/NAP-FC/NAP_GER_AA_4blocks_noglides","yes","no","sans","no","20","no","black","no","Weiter","yes","768","legacy","14","9","0","/Users/aviadalbert/Documents/Academisch/UoC/Dissertation/Experiment/OpenSesame/NAP-FC/NAP_GER_AA_4blocks_noglides/subject-49.csv","xpyriment","Jazzy James","3.1.9","yes","yes","59a800d99ad5a1025d81bb03","59a801616c613b0251691de0","no","no","0","f","f","space","NA","k","k","f","937","3008","54265","NA","35609","29938","937","2","legacy","1024","1","44100","-16","experiment","ftal","3","2","1","0","1","eng","49","","odd","5752343","5697551","NA","NA","5755352","5752339","NA","5472461","5751874","5472462","5472462","5597014","5632627","5795868","5794362","5796806","5666811","5662858","5697551","NA","5545233","5575794","5695873","5662634","5752342","5662862","NA","5795867","5795867","NA","NA","5794358","NAP perception","12","14792","15","yes","1024"
"81.25","yes","81.25","1022.0625","1022.0625","white","no","xpyriment","Ich habe die obigen Informationen gelesen und verstanden.","legacy","legacy","0","uniform","1","0","0","undefined","undefined","1","j","2","1","NA","0","1","0","0","0","0","0","0","0","0","25","25","25","0","0","0","NA","0","0","2","0","0","0","2","25","25","25","25","25","Sat Nov 11 20:51:37 2017","Forced-choice identification task with a practice and an experimental phase","yes","NAP_GER_AA_4blocks_noglides.osexp","/Users/aviadalbert/Documents/Academisch/UoC/Dissertation/Experiment/OpenSesame/NAP-FC/NAP_GER_AA_4blocks_noglides","yes","no","sans","no","20","no","black","no","Weiter","yes","768","legacy","15","9","0","/Users/aviadalbert/Documents/Academisch/UoC/Dissertation/Experiment/OpenSesame/NAP-FC/NAP_GER_AA_4blocks_noglides/subject-49.csv","xpyriment","Jazzy James","3.1.9","yes","yes","59a800d99ad5a1025d81bb03","59a801616c613b0251691de0","no","no","0","j","f","space","NA","k","k","j","1561","3008","54265","NA","35609","29938","1561","2","legacy","1024","1","44100","-16","experiment","eflal","3","2","1","0","1","eng","49","","odd","5752343","5697551","NA","NA","5755352","5752339","NA","5472461","5751874","5472462","5472462","5597014","5632627","5798588","5797085","5800150","5666811","5662858","5697551","NA","5545233","5575794","5695873","5662634","5752342","5662862","NA","5798588","5798588","NA","NA","5797081","NAP perception","13","16353","16","yes","1024"
"82.3529411765","yes","82.3529411765","1017.58823529","1017.58823529","white","no","xpyriment","Ich habe die obigen Informationen gelesen und verstanden.","legacy","legacy","0","uniform","1","0","0","undefined","undefined","1","j","2","1","NA","0","1","0","0","0","0","0","0","0","0","26","26","26","0","0","0","NA","0","0","2","0","0","0","2","26","26","26","26","26","Sat Nov 11 20:51:37 2017","Forced-choice identification task with a practice and an experimental phase","yes","NAP_GER_AA_4blocks_noglides.osexp","/Users/aviadalbert/Documents/Academisch/UoC/Dissertation/Experiment/OpenSesame/NAP-FC/NAP_GER_AA_4blocks_noglides","yes","no","sans","no","20","no","black","no","Weiter","yes","768","legacy","16","9","0","/Users/aviadalbert/Documents/Academisch/UoC/Dissertation/Experiment/OpenSesame/NAP-FC/NAP_GER_AA_4blocks_noglides/subject-49.csv","xpyriment","Jazzy James","3.1.9","yes","yes","59a800d99ad5a1025d81bb03","59a801616c613b0251691de0","no","no","0","j","f","space","NA","k","k","j","946","3008","54265","NA","35609","29938","946","2","legacy","1024","1","44100","-16","experiment","metal","3","2","1","0","1","eng","49","","odd","5752343","5697551","NA","NA","5755352","5752339","NA","5472461","5751874","5472462","5472462","5597014","5632627","5801917","5800412","5802864","5666811","5662858","5697551","NA","5545233","5575794","5695873","5662634","5752342","5662862","NA","5801916","5801917","NA","NA","5800408","NAP perception","14","17299","17","yes","1024"
"83.3333333333","yes","83.3333333333","1019.72222222","1019.72222222","white","no","xpyriment","Ich habe die obigen Informationen gelesen und verstanden.","legacy","legacy","0","uniform","1","0","0","undefined","undefined","1","f","2","1","NA","0","1","0","0","0","0","0","0","0","0","27","27","27","0","0","0","NA","0","0","2","0","0","0","2","27","27","27","27","27","Sat Nov 11 20:51:37 2017","Forced-choice identification task with a practice and an experimental phase","yes","NAP_GER_AA_4blocks_noglides.osexp","/Users/aviadalbert/Documents/Academisch/UoC/Dissertation/Experiment/OpenSesame/NAP-FC/NAP_GER_AA_4blocks_noglides","yes","no","sans","no","20","no","black","no","Weiter","yes","768","legacy","17","9","0","/Users/aviadalbert/Documents/Academisch/UoC/Dissertation/Experiment/OpenSesame/NAP-FC/NAP_GER_AA_4blocks_noglides/subject-49.csv","xpyriment","Jazzy James","3.1.9","yes","yes","59a800d99ad5a1025d81bb03","59a801616c613b0251691de0","no","no","0","f","f","space","NA","k","k","f","1056","3008","54265","NA","35609","29938","1056","2","legacy","1024","1","44100","-16","experiment","zmal","3","2","1","0","1","eng","49","","odd","5752343","5697551","NA","NA","5755352","5752339","NA","5472461","5751874","5472462","5472462","5597014","5632627","5804636","5803133","5805693","5666811","5662858","5697551","NA","5545233","5575794","5695873","5662634","5752342","5662862","NA","5804636","5804636","NA","NA","5803129","NAP perception","15","18355","18","yes","1024"
"84.2105263158","yes","84.2105263158","1013.42105263","1013.42105263","white","no","xpyriment","Ich habe die obigen Informationen gelesen und verstanden.","legacy","legacy","0","uniform","1","0","0","undefined","undefined","1","f","2","1","NA","0","1","0","0","0","0","0","0","0","0","28","28","28","0","0","0","NA","0","0","2","0","0","0","2","28","28","28","28","28","Sat Nov 11 20:51:37 2017","Forced-choice identification task with a practice and an experimental phase","yes","NAP_GER_AA_4blocks_noglides.osexp","/Users/aviadalbert/Documents/Academisch/UoC/Dissertation/Experiment/OpenSesame/NAP-FC/NAP_GER_AA_4blocks_noglides","yes","no","sans","no","20","no","black","no","Weiter","yes","768","legacy","18","9","0","/Users/aviadalbert/Documents/Academisch/UoC/Dissertation/Experiment/OpenSesame/NAP-FC/NAP_GER_AA_4blocks_noglides/subject-49.csv","xpyriment","Jazzy James","3.1.9","yes","yes","59a800d99ad5a1025d81bb03","59a801616c613b0251691de0","no","no","0","f","f","space","NA","k","k","f","900","3008","54265","NA","35609","29938","900","2","legacy","1024","1","44100","-16","experiment","ʃpal","3","2","1","0","1","eng","49","","odd","5752343","5697551","NA","NA","5755352","5752339","NA","5472461","5751874","5472462","5472462","5597014","5632627","5807470","5805965","5808371","5666811","5662858","5697551","NA","5545233","5575794","5695873","5662634","5752342","5662862","NA","5807469","5807469","NA","NA","5805961","NAP perception","16","19255","19","yes","1024"
"85","yes","85","1009.65","1009.65","white","no","xpyriment","Ich habe die obigen Informationen gelesen und verstanden.","legacy","legacy","0","uniform","1","0","0","undefined","undefined","1","f","2","1","NA","0","1","0","0","0","0","0","0","0","0","29","29","29","0","0","0","NA","0","0","2","0","0","0","2","29","29","29","29","29","Sat Nov 11 20:51:37 2017","Forced-choice identification task with a practice and an experimental phase","yes","NAP_GER_AA_4blocks_noglides.osexp","/Users/aviadalbert/Documents/Academisch/UoC/Dissertation/Experiment/OpenSesame/NAP-FC/NAP_GER_AA_4blocks_noglides","yes","no","sans","no","20","no","black","no","Weiter","yes","768","legacy","19","9","0","/Users/aviadalbert/Documents/Academisch/UoC/Dissertation/Experiment/OpenSesame/NAP-FC/NAP_GER_AA_4blocks_noglides/subject-49.csv","xpyriment","Jazzy James","3.1.9","yes","yes","59a800d99ad5a1025d81bb03","59a801616c613b0251691de0","no","no","0","f","f","space","NA","k","k","f","938","3008","54265","NA","35609","29938","938","2","legacy","1024","1","44100","-16","experiment","vlal","3","2","1","0","1","eng","49","","odd","5752343","5697551","NA","NA","5755352","5752339","NA","5472461","5751874","5472462","5472462","5597014","5632627","5810145","5808641","5811084","5666811","5662858","5697551","NA","5545233","5575794","5695873","5662634","5752342","5662862","NA","5810145","5810145","NA","NA","5808637","NAP perception","17","20193","20","yes","1024"
"85.7142857143","yes","85.7142857143","1003.19047619","1003.19047619","white","no","xpyriment","Ich habe die obigen Informationen gelesen und verstanden.","legacy","legacy","0","uniform","1","0","0","undefined","undefined","1","j","2","1","NA","0","1","0","0","0","0","0","0","0","0","30","30","30","0","0","0","NA","0","0","2","0","0","0","2","30","30","30","30","30","Sat Nov 11 20:51:37 2017","Forced-choice identification task with a practice and an experimental phase","yes","NAP_GER_AA_4blocks_noglides.osexp","/Users/aviadalbert/Documents/Academisch/UoC/Dissertation/Experiment/OpenSesame/NAP-FC/NAP_GER_AA_4blocks_noglides","yes","no","sans","no","20","no","black","no","Weiter","yes","768","legacy","20","9","0","/Users/aviadalbert/Documents/Academisch/UoC/Dissertation/Experiment/OpenSesame/NAP-FC/NAP_GER_AA_4blocks_noglides/subject-49.csv","xpyriment","Jazzy James","3.1.9","yes","yes","59a800d99ad5a1025d81bb03","59a801616c613b0251691de0","no","no","0","j","f","space","NA","k","k","j","874","3008","54265","NA","35609","29938","874","2","legacy","1024","1","44100","-16","experiment","nefal","3","2","1","0","1","eng","49","","odd","5752343","5697551","NA","NA","5755352","5752339","NA","5472461","5751874","5472462","5472462","5597014","5632627","5812864","5811359","5813739","5666811","5662858","5697551","NA","5545233","5575794","5695873","5662634","5752342","5662862","NA","5812864","5812864","NA","NA","5811355","NAP perception","18","21067","21","yes","1024"
"86.3636363636","yes","86.3636363636","1006.40909091","1006.40909091","white","no","xpyriment","Ich habe die obigen Informationen gelesen und verstanden.","legacy","legacy","0","uniform","1","0","0","undefined","undefined","1","f","2","1","NA","0","1","0","0","0","0","0","0","0","0","31","31","31","0","0","0","NA","0","0","2","0","0","0","2","31","31","31","31","31","Sat Nov 11 20:51:37 2017","Forced-choice identification task with a practice and an experimental phase","yes","NAP_GER_AA_4blocks_noglides.osexp","/Users/aviadalbert/Documents/Academisch/UoC/Dissertation/Experiment/OpenSesame/NAP-FC/NAP_GER_AA_4blocks_noglides","yes","no","sans","no","20","no","black","no","Weiter","yes","768","legacy","21","9","0","/Users/aviadalbert/Documents/Academisch/UoC/Dissertation/Experiment/OpenSesame/NAP-FC/NAP_GER_AA_4blocks_noglides/subject-49.csv","xpyriment","Jazzy James","3.1.9","yes","yes","59a800d99ad5a1025d81bb03","59a801616c613b0251691de0","no","no","0","f","f","space","NA","k","k","f","1074","3008","54265","NA","35609","29938","1074","2","legacy","1024","1","44100","-16","experiment","fsal","3","2","1","0","1","eng","49","","odd","5752343","5697551","NA","NA","5755352","5752339","NA","5472461","5751874","5472462","5472462","5597014","5632627","5815512","5814006","5816587","5666811","5662858","5697551","NA","5545233","5575794","5695873","5662634","5752342","5662862","NA","5815511","5815511","NA","NA","5814002","NAP perception","19","22141","22","yes","1024"
"86.9565217391","yes","86.9565217391","1000.60869565","1000.60869565","white","no","xpyriment","Ich habe die obigen Informationen gelesen und verstanden.","legacy","legacy","0","uniform","1","0","0","undefined","undefined","1","j","2","1","NA","0","1","0","0","0","0","0","0","0","0","32","32","32","0","0","0","NA","0","0","2","0","0","0","2","32","32","32","32","32","Sat Nov 11 20:51:37 2017","Forced-choice identification task with a practice and an experimental phase","yes","NAP_GER_AA_4blocks_noglides.osexp","/Users/aviadalbert/Documents/Academisch/UoC/Dissertation/Experiment/OpenSesame/NAP-FC/NAP_GER_AA_4blocks_noglides","yes","no","sans","no","20","no","black","no","Weiter","yes","768","legacy","22","9","0","/Users/aviadalbert/Documents/Academisch/UoC/Dissertation/Experiment/OpenSesame/NAP-FC/NAP_GER_AA_4blocks_noglides/subject-49.csv","xpyriment","Jazzy James","3.1.9","yes","yes","59a800d99ad5a1025d81bb03","59a801616c613b0251691de0","no","no","0","j","f","space","NA","k","k","j","873","3008","54265","NA","35609","29938","873","2","legacy","1024","1","44100","-16","experiment","fetal","3","2","1","0","1","eng","49","","odd","5752343","5697551","NA","NA","5755352","5752339","NA","5472461","5751874","5472462","5472462","5597014","5632627","5818361","5816857","5819235","5666811","5662858","5697551","NA","5545233","5575794","5695873","5662634","5752342","5662862","NA","5818361","5818361","NA","NA","5816854","NAP perception","20","23014","23","yes","1024"
"87.5","yes","87.5","996.541666667","996.541666667","white","no","xpyriment","Ich habe die obigen Informationen gelesen und verstanden.","legacy","legacy","0","uniform","1","0","0","undefined","undefined","1","j","2","1","NA","0","1","0","0","0","0","0","0","0","0","33","33","33","0","0","0","NA","0","0","2","0","0","0","2","33","33","33","33","33","Sat Nov 11 20:51:37 2017","Forced-choice identification task with a practice and an experimental phase","yes","NAP_GER_AA_4blocks_noglides.osexp","/Users/aviadalbert/Documents/Academisch/UoC/Dissertation/Experiment/OpenSesame/NAP-FC/NAP_GER_AA_4blocks_noglides","yes","no","sans","no","20","no","black","no","Weiter","yes","768","legacy","23","9","0","/Users/aviadalbert/Documents/Academisch/UoC/Dissertation/Experiment/OpenSesame/NAP-FC/NAP_GER_AA_4blocks_noglides/subject-49.csv","xpyriment","Jazzy James","3.1.9","yes","yes","59a800d99ad5a1025d81bb03","59a801616c613b0251691de0","no","no","0","j","f","space","NA","k","k","j","903","3008","54265","NA","35609","29938","903","2","legacy","1024","1","44100","-16","experiment","leval","3","2","1","0","1","eng","49","","odd","5752343","5697551","NA","NA","5755352","5752339","NA","5472461","5751874","5472462","5472462","5597014","5632627","5821012","5819508","5821916","5666811","5662858","5697551","NA","5545233","5575794","5695873","5662634","5752342","5662862","NA","5821012","5821012","NA","NA","5819505","NAP perception","21","23917","24","yes","1024"
"88","yes","88","991.04","991.04","white","no","xpyriment","Ich habe die obigen Informationen gelesen und verstanden.","legacy","legacy","0","uniform","1","0","0","undefined","undefined","1","f","2","1","NA","0","1","0","0","0","0","0","0","0","0","34","34","34","0","0","0","NA","0","0","2","0","0","0","2","34","34","34","34","34","Sat Nov 11 20:51:37 2017","Forced-choice identification task with a practice and an experimental phase","yes","NAP_GER_AA_4blocks_noglides.osexp","/Users/aviadalbert/Documents/Academisch/UoC/Dissertation/Experiment/OpenSesame/NAP-FC/NAP_GER_AA_4blocks_noglides","yes","no","sans","no","20","no","black","no","Weiter","yes","768","legacy","24","9","0","/Users/aviadalbert/Documents/Academisch/UoC/Dissertation/Experiment/OpenSesame/NAP-FC/NAP_GER_AA_4blocks_noglides/subject-49.csv","xpyriment","Jazzy James","3.1.9","yes","yes","59a800d99ad5a1025d81bb03","59a801616c613b0251691de0","no","no","0","f","f","space","NA","k","k","f","859","3008","54265","NA","35609","29938","859","2","legacy","1024","1","44100","-16","experiment","mlal","3","2","1","0","1","eng","49","","odd","5752343","5697551","NA","NA","5755352","5752339","NA","5472461","5751874","5472462","5472462","5597014","5632627","5823700","5822193","5824560","5666811","5662858","5697551","NA","5545233","5575794","5695873","5662634","5752342","5662862","NA","5823699","5823700","NA","NA","5822189","NAP perception","22","24776","25","yes","1024"
"84.6153846154","yes","84.6153846154","1010.34615385","1010.34615385","white","no","xpyriment","Ich habe die obigen Informationen gelesen und verstanden.","legacy","legacy","0","uniform","0","0","0","undefined","undefined","0","f","2","1","NA","0","1","0","0","0","0","0","0","0","0","35","35","35","0","0","0","NA","0","0","2","0","0","0","2","35","35","35","35","35","Sat Nov 11 20:51:37 2017","Forced-choice identification task with a practice and an experimental phase","yes","NAP_GER_AA_4blocks_noglides.osexp","/Users/aviadalbert/Documents/Academisch/UoC/Dissertation/Experiment/OpenSesame/NAP-FC/NAP_GER_AA_4blocks_noglides","yes","no","sans","no","20","no","black","no","Weiter","yes","768","legacy","25","9","0","/Users/aviadalbert/Documents/Academisch/UoC/Dissertation/Experiment/OpenSesame/NAP-FC/NAP_GER_AA_4blocks_noglides/subject-49.csv","xpyriment","Jazzy James","3.1.9","yes","yes","59a800d99ad5a1025d81bb03","59a801616c613b0251691de0","no","no","0","j","f","space","NA","k","k","j","1493","3008","54265","NA","35609","29938","1493","2","legacy","1024","1","44100","-16","experiment","mzal","3","2","1","0","1","eng","49","","odd","5752343","5697551","NA","NA","5755352","5752339","NA","5472461","5751874","5472462","5472462","5597014","5632627","5826331","5824828","5827825","5666811","5662858","5697551","NA","5545233","5575794","5695873","5662634","5752342","5662862","NA","5826331","5826331","NA","NA","5824824","NAP perception","22","26269","26","yes","1024"
"85.1851851852","yes","85.1851851852","1007.66666667","1007.66666667","white","no","xpyriment","Ich habe die obigen Informationen gelesen und verstanden.","legacy","legacy","0","uniform","1","0","0","undefined","undefined","1","j","2","1","NA","0","1","0","0","0","0","0","0","0","0","36","36","36","0","0","0","NA","0","0","2","0","0","0","2","36","36","36","36","36","Sat Nov 11 20:51:37 2017","Forced-choice identification task with a practice and an experimental phase","yes","NAP_GER_AA_4blocks_noglides.osexp","/Users/aviadalbert/Documents/Academisch/UoC/Dissertation/Experiment/OpenSesame/NAP-FC/NAP_GER_AA_4blocks_noglides","yes","no","sans","no","20","no","black","no","Weiter","yes","768","legacy","26","9","0","/Users/aviadalbert/Documents/Academisch/UoC/Dissertation/Experiment/OpenSesame/NAP-FC/NAP_GER_AA_4blocks_noglides/subject-49.csv","xpyriment","Jazzy James","3.1.9","yes","yes","59a800d99ad5a1025d81bb03","59a801616c613b0251691de0","no","no","0","j","f","space","NA","k","k","j","938","3008","54265","NA","35609","29938","938","2","legacy","1024","1","44100","-16","experiment","enpal","3","2","1","0","1","eng","49","","odd","5752343","5697551","NA","NA","5755352","5752339","NA","5472461","5751874","5472462","5472462","5597014","5632627","5829599","5828093","5830538","5666811","5662858","5697551","NA","5545233","5575794","5695873","5662634","5752342","5662862","NA","5829599","5829599","NA","NA","5828090","NAP perception","23","27207","27","yes","1024"
"85.7142857143","yes","85.7142857143","1006.5","1006.5","white","no","xpyriment","Ich habe die obigen Informationen gelesen und verstanden.","legacy","legacy","0","uniform","1","0","0","undefined","undefined","1","f","2","1","NA","0","1","0","0","0","0","0","0","0","0","37","37","37","0","0","0","NA","0","0","2","0","0","0","2","37","37","37","37","37","Sat Nov 11 20:51:37 2017","Forced-choice identification task with a practice and an experimental phase","yes","NAP_GER_AA_4blocks_noglides.osexp","/Users/aviadalbert/Documents/Academisch/UoC/Dissertation/Experiment/OpenSesame/NAP-FC/NAP_GER_AA_4blocks_noglides","yes","no","sans","no","20","no","black","no","Weiter","yes","768","legacy","27","9","0","/Users/aviadalbert/Documents/Academisch/UoC/Dissertation/Experiment/OpenSesame/NAP-FC/NAP_GER_AA_4blocks_noglides/subject-49.csv","xpyriment","Jazzy James","3.1.9","yes","yes","59a800d99ad5a1025d81bb03","59a801616c613b0251691de0","no","no","0","f","f","space","NA","k","k","f","975","3008","54265","NA","35609","29938","975","2","legacy","1024","1","44100","-16","experiment","sfal","3","2","1","0","1","eng","49","","odd","5752343","5697551","NA","NA","5755352","5752339","NA","5472461","5751874","5472462","5472462","5597014","5632627","5832315","5830810","5833291","5666811","5662858","5697551","NA","5545233","5575794","5695873","5662634","5752342","5662862","NA","5832315","5832315","NA","NA","5830806","NAP perception","24","28182","28","yes","1024"
"86.2068965517","yes","86.2068965517","1008.27586207","1008.27586207","white","no","xpyriment","Ich habe die obigen Informationen gelesen und verstanden.","legacy","legacy","0","uniform","1","0","0","undefined","undefined","1","j","2","1","NA","0","1","0","0","0","0","0","0","0","0","38","38","38","0","0","0","NA","0","0","2","0","0","0","2","38","38","38","38","38","Sat Nov 11 20:51:37 2017","Forced-choice identification task with a practice and an experimental phase","yes","NAP_GER_AA_4blocks_noglides.osexp","/Users/aviadalbert/Documents/Academisch/UoC/Dissertation/Experiment/OpenSesame/NAP-FC/NAP_GER_AA_4blocks_noglides","yes","no","sans","no","20","no","black","no","Weiter","yes","768","legacy","28","9","0","/Users/aviadalbert/Documents/Academisch/UoC/Dissertation/Experiment/OpenSesame/NAP-FC/NAP_GER_AA_4blocks_noglides/subject-49.csv","xpyriment","Jazzy James","3.1.9","yes","yes","59a800d99ad5a1025d81bb03","59a801616c613b0251691de0","no","no","0","j","f","space","NA","k","k","j","1058","3008","54265","NA","35609","29938","1058","2","legacy","1024","1","44100","-16","experiment","mezal","3","2","1","0","1","eng","49","","odd","5752343","5697551","NA","NA","5755352","5752339","NA","5472461","5751874","5472462","5472462","5597014","5632627","5835074","5833570","5836133","5666811","5662858","5697551","NA","5545233","5575794","5695873","5662634","5752342","5662862","NA","5835073","5835074","NA","NA","5833566","NAP perception","25","29240","29","yes","1024"
"86.6666666667","yes","86.6666666667","1024.2","1024.2","white","no","xpyriment","Ich habe die obigen Informationen gelesen und verstanden.","legacy","legacy","0","uniform","1","0","0","undefined","undefined","1","j","2","1","NA","0","1","0","0","0","0","0","0","0","0","39","39","39","0","0","0","NA","0","0","2","0","0","0","2","39","39","39","39","39","Sat Nov 11 20:51:37 2017","Forced-choice identification task with a practice and an experimental phase","yes","NAP_GER_AA_4blocks_noglides.osexp","/Users/aviadalbert/Documents/Academisch/UoC/Dissertation/Experiment/OpenSesame/NAP-FC/NAP_GER_AA_4blocks_noglides","yes","no","sans","no","20","no","black","no","Weiter","yes","768","legacy","29","9","0","/Users/aviadalbert/Documents/Academisch/UoC/Dissertation/Experiment/OpenSesame/NAP-FC/NAP_GER_AA_4blocks_noglides/subject-49.csv","xpyriment","Jazzy James","3.1.9","yes","yes","59a800d99ad5a1025d81bb03","59a801616c613b0251691de0","no","no","0","j","f","space","NA","k","k","j","1486","3008","54265","NA","35609","29938","1486","2","legacy","1024","1","44100","-16","experiment","evlal","3","2","1","0","1","eng","49","","odd","5752343","5697551","NA","NA","5755352","5752339","NA","5472461","5751874","5472462","5472462","5597014","5632627","5837912","5836407","5839399","5666811","5662858","5697551","NA","5545233","5575794","5695873","5662634","5752342","5662862","NA","5837912","5837912","NA","NA","5836403","NAP perception","26","30726","30","yes","1024"
"87.0967741935","yes","87.0967741935","1022.06451613","1022.06451613","white","no","xpyriment","Ich habe die obigen Informationen gelesen und verstanden.","legacy","legacy","0","uniform","1","0","0","undefined","undefined","1","j","2","1","NA","0","1","0","0","0","0","0","0","0","0","40","40","40","0","0","0","NA","0","0","2","0","0","0","2","40","40","40","40","40","Sat Nov 11 20:51:37 2017","Forced-choice identification task with a practice and an experimental phase","yes","NAP_GER_AA_4blocks_noglides.osexp","/Users/aviadalbert/Documents/Academisch/UoC/Dissertation/Experiment/OpenSesame/NAP-FC/NAP_GER_AA_4blocks_noglides","yes","no","sans","no","20","no","black","no","Weiter","yes","768","legacy","30","9","0","/Users/aviadalbert/Documents/Academisch/UoC/Dissertation/Experiment/OpenSesame/NAP-FC/NAP_GER_AA_4blocks_noglides/subject-49.csv","xpyriment","Jazzy James","3.1.9","yes","yes","59a800d99ad5a1025d81bb03","59a801616c613b0251691de0","no","no","0","j","f","space","NA","k","k","j","958","3008","54265","NA","35609","29938","958","2","legacy","1024","1","44100","-16","experiment","fesal","3","2","1","0","1","eng","49","","odd","5752343","5697551","NA","NA","5755352","5752339","NA","5472461","5751874","5472462","5472462","5597014","5632627","5841174","5839668","5842133","5666811","5662858","5697551","NA","5545233","5575794","5695873","5662634","5752342","5662862","NA","5841174","5841174","NA","NA","5839664","NAP perception","27","31684","31","yes","1024"
"87.5","yes","87.5","1018.375","1018.375","white","no","xpyriment","Ich habe die obigen Informationen gelesen und verstanden.","legacy","legacy","0","uniform","1","0","0","undefined","undefined","1","j","2","1","NA","0","1","0","0","0","0","0","0","0","0","41","41","41","0","0","0","NA","0","0","2","0","0","0","2","41","41","41","41","41","Sat Nov 11 20:51:37 2017","Forced-choice identification task with a practice and an experimental phase","yes","NAP_GER_AA_4blocks_noglides.osexp","/Users/aviadalbert/Documents/Academisch/UoC/Dissertation/Experiment/OpenSesame/NAP-FC/NAP_GER_AA_4blocks_noglides","yes","no","sans","no","20","no","black","no","Weiter","yes","768","legacy","31","9","0","/Users/aviadalbert/Documents/Academisch/UoC/Dissertation/Experiment/OpenSesame/NAP-FC/NAP_GER_AA_4blocks_noglides/subject-49.csv","xpyriment","Jazzy James","3.1.9","yes","yes","59a800d99ad5a1025d81bb03","59a801616c613b0251691de0","no","no","0","j","f","space","NA","k","k","j","904","3008","54265","NA","35609","29938","904","2","legacy","1024","1","44100","-16","experiment","velal","3","2","1","0","1","eng","49","","odd","5752343","5697551","NA","NA","5755352","5752339","NA","5472461","5751874","5472462","5472462","5597014","5632627","5843916","5842409","5844821","5666811","5662858","5697551","NA","5545233","5575794","5695873","5662634","5752342","5662862","NA","5843916","5843916","NA","NA","5842404","NAP perception","28","32588","32","yes","1024"
"87.8787878788","yes","87.8787878788","1018.18181818","1018.18181818","white","no","xpyriment","Ich habe die obigen Informationen gelesen und verstanden.","legacy","legacy","0","uniform","1","0","0","undefined","undefined","1","f","2","1","NA","0","1","0","0","0","0","0","0","0","0","42","42","42","0","0","0","NA","0","0","2","0","0","0","2","42","42","42","42","42","Sat Nov 11 20:51:37 2017","Forced-choice identification task with a practice and an experimental phase","yes","NAP_GER_AA_4blocks_noglides.osexp","/Users/aviadalbert/Documents/Academisch/UoC/Dissertation/Experiment/OpenSesame/NAP-FC/NAP_GER_AA_4blocks_noglides","yes","no","sans","no","20","no","black","no","Weiter","yes","768","legacy","32","9","0","/Users/aviadalbert/Documents/Academisch/UoC/Dissertation/Experiment/OpenSesame/NAP-FC/NAP_GER_AA_4blocks_noglides/subject-49.csv","xpyriment","Jazzy James","3.1.9","yes","yes","59a800d99ad5a1025d81bb03","59a801616c613b0251691de0","no","no","0","f","f","space","NA","k","k","f","1012","3008","54265","NA","35609","29938","1012","2","legacy","1024","1","44100","-16","experiment","smal","3","2","1","0","1","eng","49","","odd","5752343","5697551","NA","NA","5755352","5752339","NA","5472461","5751874","5472462","5472462","5597014","5632627","5846597","5845090","5847610","5666811","5662858","5697551","NA","5545233","5575794","5695873","5662634","5752342","5662862","NA","5846597","5846597","NA","NA","5845086","NAP perception","29","33600","33","yes","1024"
"88.2352941176","yes","88.2352941176","1012.73529412","1012.73529412","white","no","xpyriment","Ich habe die obigen Informationen gelesen und verstanden.","legacy","legacy","0","uniform","1","0","0","undefined","undefined","1","j","2","1","NA","0","1","0","0","0","0","0","0","0","0","43","43","43","0","0","0","NA","0","0","2","0","0","0","2","43","43","43","43","43","Sat Nov 11 20:51:37 2017","Forced-choice identification task with a practice and an experimental phase","yes","NAP_GER_AA_4blocks_noglides.osexp","/Users/aviadalbert/Documents/Academisch/UoC/Dissertation/Experiment/OpenSesame/NAP-FC/NAP_GER_AA_4blocks_noglides","yes","no","sans","no","20","no","black","no","Weiter","yes","768","legacy","33","9","0","/Users/aviadalbert/Documents/Academisch/UoC/Dissertation/Experiment/OpenSesame/NAP-FC/NAP_GER_AA_4blocks_noglides/subject-49.csv","xpyriment","Jazzy James","3.1.9","yes","yes","59a800d99ad5a1025d81bb03","59a801616c613b0251691de0","no","no","0","j","f","space","NA","k","k","j","833","3008","54265","NA","35609","29938","833","2","legacy","1024","1","44100","-16","experiment","lefal","3","2","1","0","1","eng","49","","odd","5752343","5697551","NA","NA","5755352","5752339","NA","5472461","5751874","5472462","5472462","5597014","5632627","5849383","5847880","5850217","5666811","5662858","5697551","NA","5545233","5575794","5695873","5662634","5752342","5662862","NA","5849383","5849383","NA","NA","5847876","NAP perception","30","34433","34","yes","1024"
"88.5714285714","yes","88.5714285714","1010.17142857","1010.17142857","white","no","xpyriment","Ich habe die obigen Informationen gelesen und verstanden.","legacy","legacy","0","uniform","1","0","0","undefined","undefined","1","j","2","1","NA","0","1","0","0","0","0","0","0","0","0","44","44","44","0","0","0","NA","0","0","2","0","0","0","2","44","44","44","44","44","Sat Nov 11 20:51:37 2017","Forced-choice identification task with a practice and an experimental phase","yes","NAP_GER_AA_4blocks_noglides.osexp","/Users/aviadalbert/Documents/Academisch/UoC/Dissertation/Experiment/OpenSesame/NAP-FC/NAP_GER_AA_4blocks_noglides","yes","no","sans","no","20","no","black","no","Weiter","yes","768","legacy","34","9","0","/Users/aviadalbert/Documents/Academisch/UoC/Dissertation/Experiment/OpenSesame/NAP-FC/NAP_GER_AA_4blocks_noglides/subject-49.csv","xpyriment","Jazzy James","3.1.9","yes","yes","59a800d99ad5a1025d81bb03","59a801616c613b0251691de0","no","no","0","j","f","space","NA","k","k","j","923","3008","54265","NA","35609","29938","923","2","legacy","1024","1","44100","-16","experiment","elpal","3","2","1","0","1","eng","49","","odd","5752343","5697551","NA","NA","5755352","5752339","NA","5472461","5751874","5472462","5472462","5597014","5632627","5852007","5850503","5852931","5666811","5662858","5697551","NA","5545233","5575794","5695873","5662634","5752342","5662862","NA","5852007","5852007","NA","NA","5850500","NAP perception","31","35356","35","yes","1024"
"88.8888888889","yes","88.8888888889","1013.19444444","1013.19444444","white","no","xpyriment","Ich habe die obigen Informationen gelesen und verstanden.","legacy","legacy","0","uniform","1","0","0","undefined","undefined","1","j","2","1","NA","0","1","0","0","0","0","0","0","0","0","45","45","45","0","0","0","NA","0","0","2","0","0","0","2","45","45","45","45","45","Sat Nov 11 20:51:37 2017","Forced-choice identification task with a practice and an experimental phase","yes","NAP_GER_AA_4blocks_noglides.osexp","/Users/aviadalbert/Documents/Academisch/UoC/Dissertation/Experiment/OpenSesame/NAP-FC/NAP_GER_AA_4blocks_noglides","yes","no","sans","no","20","no","black","no","Weiter","yes","768","legacy","35","9","0","/Users/aviadalbert/Documents/Academisch/UoC/Dissertation/Experiment/OpenSesame/NAP-FC/NAP_GER_AA_4blocks_noglides/subject-49.csv","xpyriment","Jazzy James","3.1.9","yes","yes","59a800d99ad5a1025d81bb03","59a801616c613b0251691de0","no","no","0","j","f","space","NA","k","k","j","1119","3008","54265","NA","35609","29938","1119","2","legacy","1024","1","44100","-16","experiment","esmal","3","2","1","0","1","eng","49","","odd","5752343","5697551","NA","NA","5755352","5752339","NA","5472461","5751874","5472462","5472462","5597014","5632627","5854708","5853204","5855828","5666811","5662858","5697551","NA","5545233","5575794","5695873","5662634","5752342","5662862","NA","5854708","5854708","NA","NA","5853200","NAP perception","32","36475","36","yes","1024"
"89.1891891892","yes","89.1891891892","1008.7027027","1008.7027027","white","no","xpyriment","Ich habe die obigen Informationen gelesen und verstanden.","legacy","legacy","0","uniform","1","0","0","undefined","undefined","1","f","2","1","NA","0","1","0","0","0","0","0","0","0","0","46","46","46","0","0","0","NA","0","0","2","0","0","0","2","46","46","46","46","46","Sat Nov 11 20:51:37 2017","Forced-choice identification task with a practice and an experimental phase","yes","NAP_GER_AA_4blocks_noglides.osexp","/Users/aviadalbert/Documents/Academisch/UoC/Dissertation/Experiment/OpenSesame/NAP-FC/NAP_GER_AA_4blocks_noglides","yes","no","sans","no","20","no","black","no","Weiter","yes","768","legacy","36","9","0","/Users/aviadalbert/Documents/Academisch/UoC/Dissertation/Experiment/OpenSesame/NAP-FC/NAP_GER_AA_4blocks_noglides/subject-49.csv","xpyriment","Jazzy James","3.1.9","yes","yes","59a800d99ad5a1025d81bb03","59a801616c613b0251691de0","no","no","0","f","f","space","NA","k","k","f","847","3008","54265","NA","35609","29938","847","2","legacy","1024","1","44100","-16","experiment","ʃfal","3","2","1","0","1","eng","49","","odd","5752343","5697551","NA","NA","5755352","5752339","NA","5472461","5751874","5472462","5472462","5597014","5632627","5857597","5856093","5858445","5666811","5662858","5697551","NA","5545233","5575794","5695873","5662634","5752342","5662862","NA","5857596","5857597","NA","NA","5856089","NAP perception","33","37322","37","yes","1024"
"89.4736842105","yes","89.4736842105","1001.60526316","1001.60526316","white","no","xpyriment","Ich habe die obigen Informationen gelesen und verstanden.","legacy","legacy","0","uniform","1","0","0","undefined","undefined","1","f","2","1","NA","0","1","0","0","0","0","0","0","0","0","47","47","47","0","0","0","NA","0","0","2","0","0","0","2","47","47","47","47","47","Sat Nov 11 20:51:37 2017","Forced-choice identification task with a practice and an experimental phase","yes","NAP_GER_AA_4blocks_noglides.osexp","/Users/aviadalbert/Documents/Academisch/UoC/Dissertation/Experiment/OpenSesame/NAP-FC/NAP_GER_AA_4blocks_noglides","yes","no","sans","no","20","no","black","no","Weiter","yes","768","legacy","37","9","0","/Users/aviadalbert/Documents/Academisch/UoC/Dissertation/Experiment/OpenSesame/NAP-FC/NAP_GER_AA_4blocks_noglides/subject-49.csv","xpyriment","Jazzy James","3.1.9","yes","yes","59a800d99ad5a1025d81bb03","59a801616c613b0251691de0","no","no","0","f","f","space","NA","k","k","f","739","3008","54265","NA","35609","29938","739","2","legacy","1024","1","44100","-16","experiment","ʃmal","3","2","1","0","1","eng","49","","odd","5752343","5697551","NA","NA","5755352","5752339","NA","5472461","5751874","5472462","5472462","5597014","5632627","5860231","5858727","5860971","5666811","5662858","5697551","NA","5545233","5575794","5695873","5662634","5752342","5662862","NA","5860231","5860231","NA","NA","5858724","NAP perception","34","38061","38","yes","1024"
"87.1794871795","yes","87.1794871795","1001.17948718","1001.17948718","white","no","xpyriment","Ich habe die obigen Informationen gelesen und verstanden.","legacy","legacy","0","uniform","0","0","0","undefined","undefined","0","f","2","1","NA","0","1","0","0","0","0","0","0","0","0","48","48","48","0","0","0","NA","0","0","2","0","0","0","2","48","48","48","48","48","Sat Nov 11 20:51:37 2017","Forced-choice identification task with a practice and an experimental phase","yes","NAP_GER_AA_4blocks_noglides.osexp","/Users/aviadalbert/Documents/Academisch/UoC/Dissertation/Experiment/OpenSesame/NAP-FC/NAP_GER_AA_4blocks_noglides","yes","no","sans","no","20","no","black","no","Weiter","yes","768","legacy","38","9","0","/Users/aviadalbert/Documents/Academisch/UoC/Dissertation/Experiment/OpenSesame/NAP-FC/NAP_GER_AA_4blocks_noglides/subject-49.csv","xpyriment","Jazzy James","3.1.9","yes","yes","59a800d99ad5a1025d81bb03","59a801616c613b0251691de0","no","no","0","j","f","space","NA","k","k","j","985","3008","54265","NA","35609","29938","985","2","legacy","1024","1","44100","-16","experiment","nmal","3","2","1","0","1","eng","49","","odd","5752343","5697551","NA","NA","5755352","5752339","NA","5472461","5751874","5472462","5472462","5597014","5632627","5862762","5861258","5863749","5666811","5662858","5697551","NA","5545233","5575794","5695873","5662634","5752342","5662862","NA","5862762","5862762","NA","NA","5861254","NAP perception","34","39046","39","yes","1024"
"87.5","yes","87.5","1002.3","1002.3","white","no","xpyriment","Ich habe die obigen Informationen gelesen und verstanden.","legacy","legacy","0","uniform","1","0","0","undefined","undefined","1","j","2","1","NA","0","1","0","0","0","0","0","0","0","0","49","49","49","0","0","0","NA","0","0","2","0","0","0","2","49","49","49","49","49","Sat Nov 11 20:51:37 2017","Forced-choice identification task with a practice and an experimental phase","yes","NAP_GER_AA_4blocks_noglides.osexp","/Users/aviadalbert/Documents/Academisch/UoC/Dissertation/Experiment/OpenSesame/NAP-FC/NAP_GER_AA_4blocks_noglides","yes","no","sans","no","20","no","black","no","Weiter","yes","768","legacy","39","9","0","/Users/aviadalbert/Documents/Academisch/UoC/Dissertation/Experiment/OpenSesame/NAP-FC/NAP_GER_AA_4blocks_noglides/subject-49.csv","xpyriment","Jazzy James","3.1.9","yes","yes","59a800d99ad5a1025d81bb03","59a801616c613b0251691de0","no","no","0","j","f","space","NA","k","k","j","1046","3008","54265","NA","35609","29938","1046","2","legacy","1024","1","44100","-16","experiment","mesal","3","2","1","0","1","eng","49","","odd","5752343","5697551","NA","NA","5755352","5752339","NA","5472461","5751874","5472462","5472462","5597014","5632627","5865515","5864012","5866563","5666811","5662858","5697551","NA","5545233","5575794","5695873","5662634","5752342","5662862","NA","5865515","5865515","NA","NA","5864008","NAP perception","35","40092","40","yes","1024"
"85.3658536585","yes","85.3658536585","1012.46341463","1012.46341463","white","no","xpyriment","Ich habe die obigen Informationen gelesen und verstanden.","legacy","legacy","0","uniform","0","0","0","undefined","undefined","0","f","2","1","NA","0","1","0","0","0","0","0","0","0","0","50","50","50","0","0","0","NA","0","0","2","0","0","0","2","50","50","50","50","50","Sat Nov 11 20:51:37 2017","Forced-choice identification task with a practice and an experimental phase","yes","NAP_GER_AA_4blocks_noglides.osexp","/Users/aviadalbert/Documents/Academisch/UoC/Dissertation/Experiment/OpenSesame/NAP-FC/NAP_GER_AA_4blocks_noglides","yes","no","sans","no","20","no","black","no","Weiter","yes","768","legacy","40","9","0","/Users/aviadalbert/Documents/Academisch/UoC/Dissertation/Experiment/OpenSesame/NAP-FC/NAP_GER_AA_4blocks_noglides/subject-49.csv","xpyriment","Jazzy James","3.1.9","yes","yes","59a800d99ad5a1025d81bb03","59a801616c613b0251691de0","no","no","0","j","f","space","NA","k","k","j","1419","3008","54265","NA","35609","29938","1419","2","legacy","1024","1","44100","-16","experiment","nfal","3","2","1","0","1","eng","49","","odd","5752343","5697551","NA","NA","5755352","5752339","NA","5472461","5751874","5472462","5472462","5597014","5632627","5868345","5866841","5869766","5666811","5662858","5697551","NA","5545233","5575794","5695873","5662634","5752342","5662862","NA","5868344","5868345","NA","NA","5866837","NAP perception","35","41511","41","yes","1024"
"85.7142857143","yes","85.7142857143","1029.5952381","1029.5952381","white","no","xpyriment","Ich habe die obigen Informationen gelesen und verstanden.","legacy","legacy","0","uniform","1","0","0","undefined","undefined","1","j","2","1","NA","0","1","0","0","0","0","0","0","0","0","51","51","51","0","0","0","NA","0","0","2","0","0","0","2","51","51","51","51","51","Sat Nov 11 20:51:37 2017","Forced-choice identification task with a practice and an experimental phase","yes","NAP_GER_AA_4blocks_noglides.osexp","/Users/aviadalbert/Documents/Academisch/UoC/Dissertation/Experiment/OpenSesame/NAP-FC/NAP_GER_AA_4blocks_noglides","yes","no","sans","no","20","no","black","no","Weiter","yes","768","legacy","41","9","0","/Users/aviadalbert/Documents/Academisch/UoC/Dissertation/Experiment/OpenSesame/NAP-FC/NAP_GER_AA_4blocks_noglides/subject-49.csv","xpyriment","Jazzy James","3.1.9","yes","yes","59a800d99ad5a1025d81bb03","59a801616c613b0251691de0","no","no","0","j","f","space","NA","k","k","j","1732","3008","54265","NA","35609","29938","1732","2","legacy","1024","1","44100","-16","experiment","eʃmal","3","2","1","0","1","eng","49","","odd","5752343","5697551","NA","NA","5755352","5752339","NA","5472461","5751874","5472462","5472462","5597014","5632627","5871551","5870044","5873285","5666811","5662858","5697551","NA","5545233","5575794","5695873","5662634","5752342","5662862","NA","5871551","5871551","NA","NA","5870040","NAP perception","36","43243","42","yes","1024"
"86.0465116279","yes","86.0465116279","1025.46511628","1025.46511628","white","no","xpyriment","Ich habe die obigen Informationen gelesen und verstanden.","legacy","legacy","0","uniform","1","0","0","undefined","undefined","1","j","2","1","NA","0","1","0","0","0","0","0","0","0","0","52","52","52","0","0","0","NA","0","0","2","0","0","0","2","52","52","52","52","52","Sat Nov 11 20:51:37 2017","Forced-choice identification task with a practice and an experimental phase","yes","NAP_GER_AA_4blocks_noglides.osexp","/Users/aviadalbert/Documents/Academisch/UoC/Dissertation/Experiment/OpenSesame/NAP-FC/NAP_GER_AA_4blocks_noglides","yes","no","sans","no","20","no","black","no","Weiter","yes","768","legacy","42","9","0","/Users/aviadalbert/Documents/Academisch/UoC/Dissertation/Experiment/OpenSesame/NAP-FC/NAP_GER_AA_4blocks_noglides/subject-49.csv","xpyriment","Jazzy James","3.1.9","yes","yes","59a800d99ad5a1025d81bb03","59a801616c613b0251691de0","no","no","0","j","f","space","NA","k","k","j","852","3008","54265","NA","35609","29938","852","2","legacy","1024","1","44100","-16","experiment","eʃfal","3","2","1","0","1","eng","49","","odd","5752343","5697551","NA","NA","5755352","5752339","NA","5472461","5751874","5472462","5472462","5597014","5632627","5875068","5873565","5875922","5666811","5662858","5697551","NA","5545233","5575794","5695873","5662634","5752342","5662862","NA","5875068","5875068","NA","NA","5873561","NAP perception","37","44095","43","yes","1024"
"86.3636363636","yes","86.3636363636","1024.63636364","1024.63636364","white","no","xpyriment","Ich habe die obigen Informationen gelesen und verstanden.","legacy","legacy","0","uniform","1","0","0","undefined","undefined","1","j","2","1","NA","0","1","0","0","0","0","0","0","0","0","53","53","53","0","0","0","NA","0","0","2","0","0","0","2","53","53","53","53","53","Sat Nov 11 20:51:37 2017","Forced-choice identification task with a practice and an experimental phase","yes","NAP_GER_AA_4blocks_noglides.osexp","/Users/aviadalbert/Documents/Academisch/UoC/Dissertation/Experiment/OpenSesame/NAP-FC/NAP_GER_AA_4blocks_noglides","yes","no","sans","no","20","no","black","no","Weiter","yes","768","legacy","43","9","0","/Users/aviadalbert/Documents/Academisch/UoC/Dissertation/Experiment/OpenSesame/NAP-FC/NAP_GER_AA_4blocks_noglides/subject-49.csv","xpyriment","Jazzy James","3.1.9","yes","yes","59a800d99ad5a1025d81bb03","59a801616c613b0251691de0","no","no","0","j","f","space","NA","k","k","j","989","3008","54265","NA","35609","29938","989","2","legacy","1024","1","44100","-16","experiment","efsal","3","2","1","0","1","eng","49","","odd","5752343","5697551","NA","NA","5755352","5752339","NA","5472461","5751874","5472462","5472462","5597014","5632627","5877696","5876192","5878687","5666811","5662858","5697551","NA","5545233","5575794","5695873","5662634","5752342","5662862","NA","5877696","5877696","NA","NA","5876188","NAP perception","38","45084","44","yes","1024"
"86.6666666667","yes","86.6666666667","1025","1025","white","no","xpyriment","Ich habe die obigen Informationen gelesen und verstanden.","legacy","legacy","0","uniform","1","0","0","undefined","undefined","1","f","2","1","NA","0","1","0","0","0","0","0","0","0","0","54","54","54","0","0","0","NA","0","0","2","0","0","0","2","54","54","54","54","54","Sat Nov 11 20:51:37 2017","Forced-choice identification task with a practice and an experimental phase","yes","NAP_GER_AA_4blocks_noglides.osexp","/Users/aviadalbert/Documents/Academisch/UoC/Dissertation/Experiment/OpenSesame/NAP-FC/NAP_GER_AA_4blocks_noglides","yes","no","sans","no","20","no","black","no","Weiter","yes","768","legacy","44","9","0","/Users/aviadalbert/Documents/Academisch/UoC/Dissertation/Experiment/OpenSesame/NAP-FC/NAP_GER_AA_4blocks_noglides/subject-49.csv","xpyriment","Jazzy James","3.1.9","yes","yes","59a800d99ad5a1025d81bb03","59a801616c613b0251691de0","no","no","0","f","f","space","NA","k","k","f","1041","3008","54265","NA","35609","29938","1041","2","legacy","1024","1","44100","-16","experiment","ftal","3","2","1","0","1","eng","49","","odd","5752343","5697551","NA","NA","5755352","5752339","NA","5472461","5751874","5472462","5472462","5597014","5632627","5880455","5878952","5881498","5666811","5662858","5697551","NA","5545233","5575794","5695873","5662634","5752342","5662862","NA","5880455","5880455","NA","NA","5878948","NAP perception","39","46125","45","yes","1024"
"86.9565217391","yes","86.9565217391","1021.93478261","1021.93478261","white","no","xpyriment","Ich habe die obigen Informationen gelesen und verstanden.","legacy","legacy","0","uniform","1","0","0","undefined","undefined","1","f","2","1","NA","0","1","0","0","0","0","0","0","0","0","55","55","55","0","0","0","NA","0","0","2","0","0","0","2","55","55","55","55","55","Sat Nov 11 20:51:37 2017","Forced-choice identification task with a practice and an experimental phase","yes","NAP_GER_AA_4blocks_noglides.osexp","/Users/aviadalbert/Documents/Academisch/UoC/Dissertation/Experiment/OpenSesame/NAP-FC/NAP_GER_AA_4blocks_noglides","yes","no","sans","no","20","no","black","no","Weiter","yes","768","legacy","45","9","0","/Users/aviadalbert/Documents/Academisch/UoC/Dissertation/Experiment/OpenSesame/NAP-FC/NAP_GER_AA_4blocks_noglides/subject-49.csv","xpyriment","Jazzy James","3.1.9","yes","yes","59a800d99ad5a1025d81bb03","59a801616c613b0251691de0","no","no","0","f","f","space","NA","k","k","f","884","3008","54265","NA","35609","29938","884","2","legacy","1024","1","44100","-16","experiment","spal","3","2","1","0","1","eng","49","","odd","5752343","5697551","NA","NA","5755352","5752339","NA","5472461","5751874","5472462","5472462","5597014","5632627","5883263","5881760","5884149","5666811","5662858","5697551","NA","5545233","5575794","5695873","5662634","5752342","5662862","NA","5883263","5883263","NA","NA","5881757","NAP perception","40","47009","46","yes","1024"
"85.1063829787","yes","85.1063829787","1028.17021277","1028.17021277","white","no","xpyriment","Ich habe die obigen Informationen gelesen und verstanden.","legacy","legacy","0","uniform","0","0","0","undefined","undefined","0","f","2","1","NA","0","1","0","0","0","0","0","0","0","0","56","56","56","0","0","0","NA","0","0","2","0","0","0","2","56","56","56","56","56","Sat Nov 11 20:51:37 2017","Forced-choice identification task with a practice and an experimental phase","yes","NAP_GER_AA_4blocks_noglides.osexp","/Users/aviadalbert/Documents/Academisch/UoC/Dissertation/Experiment/OpenSesame/NAP-FC/NAP_GER_AA_4blocks_noglides","yes","no","sans","no","20","no","black","no","Weiter","yes","768","legacy","46","9","0","/Users/aviadalbert/Documents/Academisch/UoC/Dissertation/Experiment/OpenSesame/NAP-FC/NAP_GER_AA_4blocks_noglides/subject-49.csv","xpyriment","Jazzy James","3.1.9","yes","yes","59a800d99ad5a1025d81bb03","59a801616c613b0251691de0","no","no","0","j","f","space","NA","k","k","j","1315","3008","54265","NA","35609","29938","1315","2","legacy","1024","1","44100","-16","experiment","lkal","3","2","1","0","1","eng","49","","odd","5752343","5697551","NA","NA","5755352","5752339","NA","5472461","5751874","5472462","5472462","5597014","5632627","5885917","5884413","5887234","5666811","5662858","5697551","NA","5545233","5575794","5695873","5662634","5752342","5662862","NA","5885916","5885916","NA","NA","5884409","NAP perception","40","48324","47","yes","1024"
"85.4166666667","yes","85.4166666667","1026.04166667","1026.04166667","white","no","xpyriment","Ich habe die obigen Informationen gelesen und verstanden.","legacy","legacy","0","uniform","1","0","0","undefined","undefined","1","j","2","1","NA","0","1","0","0","0","0","0","0","0","0","57","57","57","0","0","0","NA","0","0","2","0","0","0","2","57","57","57","57","57","Sat Nov 11 20:51:37 2017","Forced-choice identification task with a practice and an experimental phase","yes","NAP_GER_AA_4blocks_noglides.osexp","/Users/aviadalbert/Documents/Academisch/UoC/Dissertation/Experiment/OpenSesame/NAP-FC/NAP_GER_AA_4blocks_noglides","yes","no","sans","no","20","no","black","no","Weiter","yes","768","legacy","47","9","0","/Users/aviadalbert/Documents/Academisch/UoC/Dissertation/Experiment/OpenSesame/NAP-FC/NAP_GER_AA_4blocks_noglides/subject-49.csv","xpyriment","Jazzy James","3.1.9","yes","yes","59a800d99ad5a1025d81bb03","59a801616c613b0251691de0","no","no","0","j","f","space","NA","k","k","j","926","3008","54265","NA","35609","29938","926","2","legacy","1024","1","44100","-16","experiment","enfal","3","2","1","0","1","eng","49","","odd","5752343","5697551","NA","NA","5755352","5752339","NA","5472461","5751874","5472462","5472462","5597014","5632627","5889018","5887514","5889946","5666811","5662858","5697551","NA","5545233","5575794","5695873","5662634","5752342","5662862","NA","5889017","5889018","NA","NA","5887510","NAP perception","41","49250","48","yes","1024"
"85.7142857143","yes","85.7142857143","1025.57142857","1025.57142857","white","no","xpyriment","Ich habe die obigen Informationen gelesen und verstanden.","legacy","legacy","0","uniform","1","0","0","undefined","undefined","1","j","2","1","NA","0","1","0","0","0","0","0","0","0","0","58","58","58","0","0","0","NA","0","0","2","0","0","0","2","58","58","58","58","58","Sat Nov 11 20:51:37 2017","Forced-choice identification task with a practice and an experimental phase","yes","NAP_GER_AA_4blocks_noglides.osexp","/Users/aviadalbert/Documents/Academisch/UoC/Dissertation/Experiment/OpenSesame/NAP-FC/NAP_GER_AA_4blocks_noglides","yes","no","sans","no","20","no","black","no","Weiter","yes","768","legacy","48","9","0","/Users/aviadalbert/Documents/Academisch/UoC/Dissertation/Experiment/OpenSesame/NAP-FC/NAP_GER_AA_4blocks_noglides/subject-49.csv","xpyriment","Jazzy James","3.1.9","yes","yes","59a800d99ad5a1025d81bb03","59a801616c613b0251691de0","no","no","0","j","f","space","NA","k","k","j","1003","3008","54265","NA","35609","29938","1003","2","legacy","1024","1","44100","-16","experiment","zeval","3","2","1","0","1","eng","49","","odd","5752343","5697551","NA","NA","5755352","5752339","NA","5472461","5751874","5472462","5472462","5597014","5632627","5891716","5890213","5892721","5666811","5662858","5697551","NA","5545233","5575794","5695873","5662634","5752342","5662862","NA","5891716","5891716","NA","NA","5890209","NAP perception","42","50253","49","yes","1024"
"84","yes","84","1027.04","1027.04","white","no","xpyriment","Ich habe die obigen Informationen gelesen und verstanden.","legacy","legacy","0","uniform","0","0","0","undefined","undefined","0","f","2","1","NA","0","1","0","0","0","0","0","0","0","0","59","59","59","0","0","0","NA","0","0","2","0","0","0","2","59","59","59","59","59","Sat Nov 11 20:51:37 2017","Forced-choice identification task with a practice and an experimental phase","yes","NAP_GER_AA_4blocks_noglides.osexp","/Users/aviadalbert/Documents/Academisch/UoC/Dissertation/Experiment/OpenSesame/NAP-FC/NAP_GER_AA_4blocks_noglides","yes","no","sans","no","20","no","black","no","Weiter","yes","768","legacy","49","9","0","/Users/aviadalbert/Documents/Academisch/UoC/Dissertation/Experiment/OpenSesame/NAP-FC/NAP_GER_AA_4blocks_noglides/subject-49.csv","xpyriment","Jazzy James","3.1.9","yes","yes","59a800d99ad5a1025d81bb03","59a801616c613b0251691de0","no","no","0","j","f","space","NA","k","k","j","1099","3008","54265","NA","35609","29938","1099","2","legacy","1024","1","44100","-16","experiment","mtal","3","2","1","0","1","eng","49","","odd","5752343","5697551","NA","NA","5755352","5752339","NA","5472461","5751874","5472462","5472462","5597014","5632627","5894501","5892996","5895602","5666811","5662858","5697551","NA","5545233","5575794","5695873","5662634","5752342","5662862","NA","5894501","5894501","NA","NA","5892992","NAP perception","42","51352","50","yes","1024"
"84.3137254902","yes","84.3137254902","1027.25490196","1027.25490196","white","no","xpyriment","Ich habe die obigen Informationen gelesen und verstanden.","legacy","legacy","0","uniform","1","0","0","undefined","undefined","1","j","2","1","NA","0","1","0","0","0","0","0","0","0","0","60","60","60","0","0","0","NA","0","0","2","0","0","0","2","60","60","60","60","60","Sat Nov 11 20:51:37 2017","Forced-choice identification task with a practice and an experimental phase","yes","NAP_GER_AA_4blocks_noglides.osexp","/Users/aviadalbert/Documents/Academisch/UoC/Dissertation/Experiment/OpenSesame/NAP-FC/NAP_GER_AA_4blocks_noglides","yes","no","sans","no","20","no","black","no","Weiter","yes","768","legacy","50","9","0","/Users/aviadalbert/Documents/Academisch/UoC/Dissertation/Experiment/OpenSesame/NAP-FC/NAP_GER_AA_4blocks_noglides/subject-49.csv","xpyriment","Jazzy James","3.1.9","yes","yes","59a800d99ad5a1025d81bb03","59a801616c613b0251691de0","no","no","0","j","f","space","NA","k","k","j","1038","3008","54265","NA","35609","29938","1038","2","legacy","1024","1","44100","-16","experiment","emnal","3","2","1","0","1","eng","49","","odd","5752343","5697551","NA","NA","5755352","5752339","NA","5472461","5751874","5472462","5472462","5597014","5632627","5897370","5895867","5898410","5666811","5662858","5697551","NA","5545233","5575794","5695873","5662634","5752342","5662862","NA","5897370","5897370","NA","NA","5895864","NAP perception","43","52390","51","yes","1024"
"84.6153846154","yes","84.6153846154","1022.25","1022.25","white","no","xpyriment","Ich habe die obigen Informationen gelesen und verstanden.","legacy","legacy","0","uniform","1","0","0","undefined","undefined","1","j","2","1","NA","0","1","0","0","0","0","0","0","0","0","61","61","61","0","0","0","NA","0","0","2","0","0","0","2","61","61","61","61","61","Sat Nov 11 20:51:37 2017","Forced-choice identification task with a practice and an experimental phase","yes","NAP_GER_AA_4blocks_noglides.osexp","/Users/aviadalbert/Documents/Academisch/UoC/Dissertation/Experiment/OpenSesame/NAP-FC/NAP_GER_AA_4blocks_noglides","yes","no","sans","no","20","no","black","no","Weiter","yes","768","legacy","51","9","0","/Users/aviadalbert/Documents/Academisch/UoC/Dissertation/Experiment/OpenSesame/NAP-FC/NAP_GER_AA_4blocks_noglides/subject-49.csv","xpyriment","Jazzy James","3.1.9","yes","yes","59a800d99ad5a1025d81bb03","59a801616c613b0251691de0","no","no","0","j","f","space","NA","k","k","j","767","3008","54265","NA","35609","29938","767","2","legacy","1024","1","44100","-16","experiment","elval","3","2","1","0","1","eng","49","","odd","5752343","5697551","NA","NA","5755352","5752339","NA","5472461","5751874","5472462","5472462","5597014","5632627","5900180","5898676","5900950","5666811","5662858","5697551","NA","5545233","5575794","5695873","5662634","5752342","5662862","NA","5900180","5900180","NA","NA","5898672","NAP perception","44","53157","52","yes","1024"
"83.0188679245","yes","83.0188679245","1028.49056604","1028.49056604","white","no","xpyriment","Ich habe die obigen Informationen gelesen und verstanden.","legacy","legacy","0","uniform","0","0","0","undefined","undefined","0","f","2","1","NA","0","1","0","0","0","0","0","0","0","0","62","62","62","0","0","0","NA","0","0","2","0","0","0","2","62","62","62","62","62","Sat Nov 11 20:51:37 2017","Forced-choice identification task with a practice and an experimental phase","yes","NAP_GER_AA_4blocks_noglides.osexp","/Users/aviadalbert/Documents/Academisch/UoC/Dissertation/Experiment/OpenSesame/NAP-FC/NAP_GER_AA_4blocks_noglides","yes","no","sans","no","20","no","black","no","Weiter","yes","768","legacy","52","9","0","/Users/aviadalbert/Documents/Academisch/UoC/Dissertation/Experiment/OpenSesame/NAP-FC/NAP_GER_AA_4blocks_noglides/subject-49.csv","xpyriment","Jazzy James","3.1.9","yes","yes","59a800d99ad5a1025d81bb03","59a801616c613b0251691de0","no","no","0","j","f","space","NA","k","k","j","1353","3008","54265","NA","35609","29938","1353","2","legacy","1024","1","44100","-16","experiment","mnal","3","2","1","0","1","eng","49","","odd","5752343","5697551","NA","NA","5755352","5752339","NA","5472461","5751874","5472462","5472462","5597014","5632627","5902744","5901237","5904099","5666811","5662858","5697551","NA","5545233","5575794","5695873","5662634","5752342","5662862","NA","5902744","5902744","NA","NA","5901234","NAP perception","44","54510","53","yes","1024"
"83.3333333333","yes","83.3333333333","1035.62962963","1035.62962963","white","no","xpyriment","Ich habe die obigen Informationen gelesen und verstanden.","legacy","legacy","0","uniform","1","0","0","undefined","undefined","1","j","2","1","NA","0","1","0","0","0","0","0","0","0","0","63","63","63","0","0","0","NA","0","0","2","0","0","0","2","63","63","63","63","63","Sat Nov 11 20:51:37 2017","Forced-choice identification task with a practice and an experimental phase","yes","NAP_GER_AA_4blocks_noglides.osexp","/Users/aviadalbert/Documents/Academisch/UoC/Dissertation/Experiment/OpenSesame/NAP-FC/NAP_GER_AA_4blocks_noglides","yes","no","sans","no","20","no","black","no","Weiter","yes","768","legacy","53","9","0","/Users/aviadalbert/Documents/Academisch/UoC/Dissertation/Experiment/OpenSesame/NAP-FC/NAP_GER_AA_4blocks_noglides/subject-49.csv","xpyriment","Jazzy James","3.1.9","yes","yes","59a800d99ad5a1025d81bb03","59a801616c613b0251691de0","no","no","0","j","f","space","NA","k","k","j","1414","3008","54265","NA","35609","29938","1414","2","legacy","1024","1","44100","-16","experiment","eʃpal","3","2","1","0","1","eng","49","","odd","5752343","5697551","NA","NA","5755352","5752339","NA","5472461","5751874","5472462","5472462","5597014","5632627","5905869","5904366","5907285","5666811","5662858","5697551","NA","5545233","5575794","5695873","5662634","5752342","5662862","NA","5905869","5905869","NA","NA","5904362","NAP perception","45","55924","54","yes","1024"
"81.8181818182","yes","81.8181818182","1039.74545455","1039.74545455","white","no","xpyriment","Ich habe die obigen Informationen gelesen und verstanden.","legacy","legacy","0","uniform","0","0","0","undefined","undefined","0","f","2","1","NA","0","1","0","0","0","0","0","0","0","0","64","64","64","0","0","0","NA","0","0","2","0","0","0","2","64","64","64","64","64","Sat Nov 11 20:51:37 2017","Forced-choice identification task with a practice and an experimental phase","yes","NAP_GER_AA_4blocks_noglides.osexp","/Users/aviadalbert/Documents/Academisch/UoC/Dissertation/Experiment/OpenSesame/NAP-FC/NAP_GER_AA_4blocks_noglides","yes","no","sans","no","20","no","black","no","Weiter","yes","768","legacy","54","9","0","/Users/aviadalbert/Documents/Academisch/UoC/Dissertation/Experiment/OpenSesame/NAP-FC/NAP_GER_AA_4blocks_noglides/subject-49.csv","xpyriment","Jazzy James","3.1.9","yes","yes","59a800d99ad5a1025d81bb03","59a801616c613b0251691de0","no","no","0","j","f","space","NA","k","k","j","1262","3008","54265","NA","35609","29938","1262","2","legacy","1024","1","44100","-16","experiment","mlal","3","2","1","0","1","eng","49","","odd","5752343","5697551","NA","NA","5755352","5752339","NA","5472461","5751874","5472462","5472462","5597014","5632627","5909056","5907553","5910320","5666811","5662858","5697551","NA","5545233","5575794","5695873","5662634","5752342","5662862","NA","5909056","5909056","NA","NA","5907549","NAP perception","45","57186","55","yes","1024"
"82.1428571429","yes","82.1428571429","1035.78571429","1035.78571429","white","no","xpyriment","Ich habe die obigen Informationen gelesen und verstanden.","legacy","legacy","0","uniform","1","0","0","undefined","undefined","1","f","2","1","NA","0","1","0","0","0","0","0","0","0","0","65","65","65","0","0","0","NA","0","0","2","0","0","0","2","65","65","65","65","65","Sat Nov 11 20:51:37 2017","Forced-choice identification task with a practice and an experimental phase","yes","NAP_GER_AA_4blocks_noglides.osexp","/Users/aviadalbert/Documents/Academisch/UoC/Dissertation/Experiment/OpenSesame/NAP-FC/NAP_GER_AA_4blocks_noglides","yes","no","sans","no","20","no","black","no","Weiter","yes","768","legacy","55","9","0","/Users/aviadalbert/Documents/Academisch/UoC/Dissertation/Experiment/OpenSesame/NAP-FC/NAP_GER_AA_4blocks_noglides/subject-49.csv","xpyriment","Jazzy James","3.1.9","yes","yes","59a800d99ad5a1025d81bb03","59a801616c613b0251691de0","no","no","0","f","f","space","NA","k","k","f","818","3008","54265","NA","35609","29938","818","2","legacy","1024","1","44100","-16","experiment","flal","3","2","1","0","1","eng","49","","odd","5752343","5697551","NA","NA","5755352","5752339","NA","5472461","5751874","5472462","5472462","5597014","5632627","5912094","5910590","5912914","5666811","5662858","5697551","NA","5545233","5575794","5695873","5662634","5752342","5662862","NA","5912093","5912093","NA","NA","5910586","NAP perception","46","58004","56","yes","1024"
