"acc","accept_status","accuracy","average_response_time","avg_rt","background","bidi","canvas_backend","checkbox_status","clock_backend","color_backend","compensation","coordinates","correct","correct_block_activation","correct_block_exit","correct_instructions_1","correct_instructions_2","correct_keyboard_response","correct_response","count_block_activation","count_block_exit","count_block_info_QA","count_cont_e_block_message","count_e_block_loop","count_e_block_sequence","count_end_of_experiment","count_experiment","count_experimental_loop","count_form_consent","count_info_forms","count_instructions_1","count_instructions_2","count_keyboard_response","count_listen_message","count_logger","count_p_block_loop","count_p_block_sequence","count_p_feedback","count_pause_feedback","count_personal_details_form_1","count_personal_details_form_2","count_post_loop_blank","count_practice_loop","count_pre_e_block_message","count_pre_p_block_message","count_reset_feedback","count_stimulus_image","count_stimulus_sound","count_timeout_message","count_timeout_sound","count_trial_sequence","datetime","description","disable_garbage_collection","experiment_file","experiment_path","expyriment_opengl","font_bold","font_family","font_italic","font_size","font_underline","foreground","form_clicks","form_response","fullscreen","height","keyboard_backend","live_row","live_row_p_block_loop","live_row_practice_loop","logfile","mouse_backend","opensesame_codename","opensesame_version","osf_always_upload_data","osf_always_upload_experiment","osf_datanode_id","osf_id","practice","pygame_doublebuf","repeat_cycle","response","response_block_activation","response_block_exit","response_block_info_QA","response_instructions_1","response_instructions_2","response_keyboard_response","response_time","response_time_block_activation","response_time_block_exit","response_time_block_info_QA","response_time_instructions_1","response_time_instructions_2","response_time_keyboard_response","round_decimals","sampler_backend","sound_buf_size","sound_channels","sound_freq","sound_sample_size","start","stimulus","subject_age","subject_education","subject_gender","subject_german_native","subject_handedness","subject_language_other","subject_nr","subject_other_native_lang","subject_parity","time_block_activation","time_block_exit","time_block_info_QA","time_cont_e_block_message","time_e_block_loop","time_e_block_sequence","time_end_of_experiment","time_experiment","time_experimental_loop","time_form_consent","time_info_forms","time_instructions_1","time_instructions_2","time_keyboard_response","time_listen_message","time_logger","time_p_block_loop","time_p_block_sequence","time_p_feedback","time_pause_feedback","time_personal_details_form_1","time_personal_details_form_2","time_post_loop_blank","time_practice_loop","time_pre_e_block_message","time_pre_p_block_message","time_reset_feedback","time_stimulus_image","time_stimulus_sound","time_timeout_message","time_timeout_sound","time_trial_sequence","title","total_correct","total_response_time","total_responses","uniform_coordinates","width"
"100","yes","100","1917","1917","white","no","xpyriment","Ich habe die obigen Informationen gelesen und verstanden.","legacy","legacy","0","uniform","1","0","NA","undefined","undefined","1","f","0","0","NA","NA","NA","NA","NA","0","0","0","0","0","0","0","0","0","0","0","NA","NA","0","0","0","0","NA","0","0","0","0","0","0","0","Fri Nov  3 12:14:31 2017","Forced-choice identification task with a practice and an experimental phase","yes","NAP_GER_AA_4blocks_noglides.osexp","/Users/aviadalbert/Documents/Academisch/UoC/Dissertation/Experiment/OpenSesame/NAP-FC/NAP_GER_AA_4blocks_noglides","yes","no","sans","no","20","no","black","no","Weiter","yes","768","legacy","0","0","0","/Users/aviadalbert/Documents/Academisch/UoC/Dissertation/Experiment/OpenSesame/NAP-FC/NAP_GER_AA_4blocks_noglides/subject-41.csv","xpyriment","Jazzy James","3.1.9","yes","yes","59a800d99ad5a1025d81bb03","59a801616c613b0251691de0","yes","no","0","f","f","NA","NA","space","space","f","1917","17048","NA","NA","31879","8414","1917","2","legacy","1024","1","44100","-16","experiment","flal","4","2","0","0","1","Eng","41","","odd","6887870","NA","NA","NA","NA","NA","NA","6717985","NA","6717986","6717985","6847278","6879161","6906641","6905133","6908559","6904920","6887866","NA","NA","6790524","6830080","NA","6887642","NA","6887870","NA","6906641","6906641","NA","NA","6905130","NAP perception","1","1917","1","yes","1024"
"100","yes","100","1418","1418","white","no","xpyriment","Ich habe die obigen Informationen gelesen und verstanden.","legacy","legacy","0","uniform","1","0","NA","undefined","undefined","1","j","0","0","NA","NA","NA","NA","NA","0","0","0","0","0","0","1","1","1","0","0","NA","NA","0","0","0","0","NA","0","0","1","1","1","1","1","Fri Nov  3 12:14:31 2017","Forced-choice identification task with a practice and an experimental phase","yes","NAP_GER_AA_4blocks_noglides.osexp","/Users/aviadalbert/Documents/Academisch/UoC/Dissertation/Experiment/OpenSesame/NAP-FC/NAP_GER_AA_4blocks_noglides","yes","no","sans","no","20","no","black","no","Weiter","yes","768","legacy","1","1","0","/Users/aviadalbert/Documents/Academisch/UoC/Dissertation/Experiment/OpenSesame/NAP-FC/NAP_GER_AA_4blocks_noglides/subject-41.csv","xpyriment","Jazzy James","3.1.9","yes","yes","59a800d99ad5a1025d81bb03","59a801616c613b0251691de0","yes","no","0","j","f","NA","NA","space","space","j","919","17048","NA","NA","31879","8414","919","2","legacy","1024","1","44100","-16","experiment","lepal","4","2","0","0","1","Eng","41","","odd","6887870","NA","NA","NA","NA","NA","NA","6717985","NA","6717986","6717985","6847278","6879161","6910354","6908850","6911274","6904920","6887866","NA","NA","6790524","6830080","NA","6887642","NA","6887870","NA","6910354","6910354","NA","NA","6908846","NAP perception","2","2836","2","yes","1024"
"100","yes","100","1279.33333333","1279.33333333","white","no","xpyriment","Ich habe die obigen Informationen gelesen und verstanden.","legacy","legacy","0","uniform","1","0","NA","undefined","undefined","1","j","0","0","NA","NA","NA","NA","NA","0","0","0","0","0","0","2","2","2","0","0","NA","NA","0","0","0","0","NA","0","0","2","2","2","2","2","Fri Nov  3 12:14:31 2017","Forced-choice identification task with a practice and an experimental phase","yes","NAP_GER_AA_4blocks_noglides.osexp","/Users/aviadalbert/Documents/Academisch/UoC/Dissertation/Experiment/OpenSesame/NAP-FC/NAP_GER_AA_4blocks_noglides","yes","no","sans","no","20","no","black","no","Weiter","yes","768","legacy","2","2","0","/Users/aviadalbert/Documents/Academisch/UoC/Dissertation/Experiment/OpenSesame/NAP-FC/NAP_GER_AA_4blocks_noglides/subject-41.csv","xpyriment","Jazzy James","3.1.9","yes","yes","59a800d99ad5a1025d81bb03","59a801616c613b0251691de0","yes","no","0","j","f","NA","NA","space","space","j","1002","17048","NA","NA","31879","8414","1002","2","legacy","1024","1","44100","-16","experiment","emtal","4","2","0","0","1","Eng","41","","odd","6887870","NA","NA","NA","NA","NA","NA","6717985","NA","6717986","6717985","6847278","6879161","6913047","6911543","6914051","6904920","6887866","NA","NA","6790524","6830080","NA","6887642","NA","6887870","NA","6913047","6913047","NA","NA","6911539","NAP perception","3","3838","3","yes","1024"
"100","yes","100","1232.75","1232.75","white","no","xpyriment","Ich habe die obigen Informationen gelesen und verstanden.","legacy","legacy","0","uniform","1","0","NA","undefined","undefined","1","f","0","0","NA","NA","NA","NA","NA","0","0","0","0","0","0","3","3","3","0","0","NA","NA","0","0","0","0","NA","0","0","3","3","3","3","3","Fri Nov  3 12:14:31 2017","Forced-choice identification task with a practice and an experimental phase","yes","NAP_GER_AA_4blocks_noglides.osexp","/Users/aviadalbert/Documents/Academisch/UoC/Dissertation/Experiment/OpenSesame/NAP-FC/NAP_GER_AA_4blocks_noglides","yes","no","sans","no","20","no","black","no","Weiter","yes","768","legacy","3","3","0","/Users/aviadalbert/Documents/Academisch/UoC/Dissertation/Experiment/OpenSesame/NAP-FC/NAP_GER_AA_4blocks_noglides/subject-41.csv","xpyriment","Jazzy James","3.1.9","yes","yes","59a800d99ad5a1025d81bb03","59a801616c613b0251691de0","yes","no","0","f","f","NA","NA","space","space","f","1093","17048","NA","NA","31879","8414","1093","2","legacy","1024","1","44100","-16","experiment","ʃpal","4","2","0","0","1","Eng","41","","odd","6887870","NA","NA","NA","NA","NA","NA","6717985","NA","6717986","6717985","6847278","6879161","6915847","6914341","6916941","6904920","6887866","NA","NA","6790524","6830080","NA","6887642","NA","6887870","NA","6915847","6915847","NA","NA","6914337","NAP perception","4","4931","4","yes","1024"
"100","yes","100","1196.8","1196.8","white","no","xpyriment","Ich habe die obigen Informationen gelesen und verstanden.","legacy","legacy","0","uniform","1","0","NA","undefined","undefined","1","j","0","0","NA","NA","NA","NA","NA","0","0","0","0","0","0","4","4","4","0","0","NA","NA","0","0","0","0","NA","0","0","4","4","4","4","4","Fri Nov  3 12:14:31 2017","Forced-choice identification task with a practice and an experimental phase","yes","NAP_GER_AA_4blocks_noglides.osexp","/Users/aviadalbert/Documents/Academisch/UoC/Dissertation/Experiment/OpenSesame/NAP-FC/NAP_GER_AA_4blocks_noglides","yes","no","sans","no","20","no","black","no","Weiter","yes","768","legacy","4","4","0","/Users/aviadalbert/Documents/Academisch/UoC/Dissertation/Experiment/OpenSesame/NAP-FC/NAP_GER_AA_4blocks_noglides/subject-41.csv","xpyriment","Jazzy James","3.1.9","yes","yes","59a800d99ad5a1025d81bb03","59a801616c613b0251691de0","yes","no","0","j","f","NA","NA","space","space","j","1053","17048","NA","NA","31879","8414","1053","2","legacy","1024","1","44100","-16","experiment","nefal","4","2","0","0","1","Eng","41","","odd","6887870","NA","NA","NA","NA","NA","NA","6717985","NA","6717986","6717985","6847278","6879161","6918711","6917208","6919765","6904920","6887866","NA","NA","6790524","6830080","NA","6887642","NA","6887870","NA","6918711","6918711","NA","NA","6917204","NAP perception","5","5984","5","yes","1024"
"100","yes","100","1185.33333333","1185.33333333","white","no","xpyriment","Ich habe die obigen Informationen gelesen und verstanden.","legacy","legacy","0","uniform","1","0","NA","undefined","undefined","1","f","0","0","NA","NA","NA","NA","NA","0","0","0","0","0","0","5","5","5","0","0","NA","NA","0","0","0","0","NA","0","0","5","5","5","5","5","Fri Nov  3 12:14:31 2017","Forced-choice identification task with a practice and an experimental phase","yes","NAP_GER_AA_4blocks_noglides.osexp","/Users/aviadalbert/Documents/Academisch/UoC/Dissertation/Experiment/OpenSesame/NAP-FC/NAP_GER_AA_4blocks_noglides","yes","no","sans","no","20","no","black","no","Weiter","yes","768","legacy","5","5","0","/Users/aviadalbert/Documents/Academisch/UoC/Dissertation/Experiment/OpenSesame/NAP-FC/NAP_GER_AA_4blocks_noglides/subject-41.csv","xpyriment","Jazzy James","3.1.9","yes","yes","59a800d99ad5a1025d81bb03","59a801616c613b0251691de0","yes","no","0","f","f","NA","NA","space","space","f","1128","17048","NA","NA","31879","8414","1128","2","legacy","1024","1","44100","-16","experiment","sfal","4","2","0","0","1","Eng","41","","odd","6887870","NA","NA","NA","NA","NA","NA","6717985","NA","6717986","6717985","6847278","6879161","6921541","6920038","6922670","6904920","6887866","NA","NA","6790524","6830080","NA","6887642","NA","6887870","NA","6921541","6921541","NA","NA","6920034","NAP perception","6","7112","6","yes","1024"
"100","yes","100","1218.42857143","1218.42857143","white","no","xpyriment","Ich habe die obigen Informationen gelesen und verstanden.","legacy","legacy","0","uniform","1","0","NA","undefined","undefined","1","f","0","0","NA","NA","NA","NA","NA","0","0","0","0","0","0","6","6","6","0","0","NA","NA","0","0","0","0","NA","0","0","6","6","6","6","6","Fri Nov  3 12:14:31 2017","Forced-choice identification task with a practice and an experimental phase","yes","NAP_GER_AA_4blocks_noglides.osexp","/Users/aviadalbert/Documents/Academisch/UoC/Dissertation/Experiment/OpenSesame/NAP-FC/NAP_GER_AA_4blocks_noglides","yes","no","sans","no","20","no","black","no","Weiter","yes","768","legacy","6","6","0","/Users/aviadalbert/Documents/Academisch/UoC/Dissertation/Experiment/OpenSesame/NAP-FC/NAP_GER_AA_4blocks_noglides/subject-41.csv","xpyriment","Jazzy James","3.1.9","yes","yes","59a800d99ad5a1025d81bb03","59a801616c613b0251691de0","yes","no","0","f","f","NA","NA","space","space","f","1417","17048","NA","NA","31879","8414","1417","2","legacy","1024","1","44100","-16","experiment","zmal","4","2","0","0","1","Eng","41","","odd","6887870","NA","NA","NA","NA","NA","NA","6717985","NA","6717986","6717985","6847278","6879161","6924444","6922939","6925862","6904920","6887866","NA","NA","6790524","6830080","NA","6887642","NA","6887870","NA","6924444","6924444","NA","NA","6922936","NAP perception","7","8529","7","yes","1024"
"100","yes","100","1171.625","1171.625","white","no","xpyriment","Ich habe die obigen Informationen gelesen und verstanden.","legacy","legacy","0","uniform","1","0","NA","undefined","undefined","1","j","0","0","NA","NA","NA","NA","NA","0","0","0","0","0","0","7","7","7","0","0","NA","NA","0","0","0","0","NA","0","0","7","7","7","7","7","Fri Nov  3 12:14:31 2017","Forced-choice identification task with a practice and an experimental phase","yes","NAP_GER_AA_4blocks_noglides.osexp","/Users/aviadalbert/Documents/Academisch/UoC/Dissertation/Experiment/OpenSesame/NAP-FC/NAP_GER_AA_4blocks_noglides","yes","no","sans","no","20","no","black","no","Weiter","yes","768","legacy","7","7","0","/Users/aviadalbert/Documents/Academisch/UoC/Dissertation/Experiment/OpenSesame/NAP-FC/NAP_GER_AA_4blocks_noglides/subject-41.csv","xpyriment","Jazzy James","3.1.9","yes","yes","59a800d99ad5a1025d81bb03","59a801616c613b0251691de0","yes","no","0","j","f","NA","NA","space","space","j","844","17048","NA","NA","31879","8414","844","2","legacy","1024","1","44100","-16","experiment","mesal","4","2","0","0","1","Eng","41","","odd","6887870","NA","NA","NA","NA","NA","NA","6717985","NA","6717986","6717985","6847278","6879161","6927647","6926139","6928492","6904920","6887866","NA","NA","6790524","6830080","NA","6887642","NA","6887870","NA","6927647","6927647","NA","NA","6926136","NAP perception","8","9373","8","yes","1024"
"100","yes","100","1152.66666667","1152.66666667","white","no","xpyriment","Ich habe die obigen Informationen gelesen und verstanden.","legacy","legacy","0","uniform","1","0","NA","undefined","undefined","1","j","0","0","NA","NA","NA","NA","NA","0","0","0","0","0","0","8","8","8","0","0","NA","NA","0","0","0","0","NA","0","0","8","8","8","8","8","Fri Nov  3 12:14:31 2017","Forced-choice identification task with a practice and an experimental phase","yes","NAP_GER_AA_4blocks_noglides.osexp","/Users/aviadalbert/Documents/Academisch/UoC/Dissertation/Experiment/OpenSesame/NAP-FC/NAP_GER_AA_4blocks_noglides","yes","no","sans","no","20","no","black","no","Weiter","yes","768","legacy","8","8","0","/Users/aviadalbert/Documents/Academisch/UoC/Dissertation/Experiment/OpenSesame/NAP-FC/NAP_GER_AA_4blocks_noglides/subject-41.csv","xpyriment","Jazzy James","3.1.9","yes","yes","59a800d99ad5a1025d81bb03","59a801616c613b0251691de0","yes","no","0","j","f","NA","NA","space","space","j","1001","17048","NA","NA","31879","8414","1001","2","legacy","1024","1","44100","-16","experiment","enval","4","2","0","0","1","Eng","41","","odd","6887870","NA","NA","NA","NA","NA","NA","6717985","NA","6717986","6717985","6847278","6879161","6930270","6928764","6931272","6904920","6887866","NA","NA","6790524","6830080","NA","6887642","NA","6887870","NA","6930270","6930270","NA","NA","6928760","NAP perception","9","10374","9","yes","1024"
"100","yes","100","1156.4","1156.4","white","no","xpyriment","Ich habe die obigen Informationen gelesen und verstanden.","legacy","legacy","0","uniform","1","0","NA","undefined","undefined","1","f","0","0","NA","NA","NA","NA","NA","0","0","0","0","0","0","9","9","9","0","0","NA","NA","0","0","0","0","NA","0","0","9","9","9","9","9","Fri Nov  3 12:14:31 2017","Forced-choice identification task with a practice and an experimental phase","yes","NAP_GER_AA_4blocks_noglides.osexp","/Users/aviadalbert/Documents/Academisch/UoC/Dissertation/Experiment/OpenSesame/NAP-FC/NAP_GER_AA_4blocks_noglides","yes","no","sans","no","20","no","black","no","Weiter","yes","768","legacy","9","9","0","/Users/aviadalbert/Documents/Academisch/UoC/Dissertation/Experiment/OpenSesame/NAP-FC/NAP_GER_AA_4blocks_noglides/subject-41.csv","xpyriment","Jazzy James","3.1.9","yes","yes","59a800d99ad5a1025d81bb03","59a801616c613b0251691de0","yes","no","0","f","f","NA","NA","space","space","f","1190","17048","NA","NA","31879","8414","1190","2","legacy","1024","1","44100","-16","experiment","vlal","4","2","0","0","1","Eng","41","","odd","6887870","NA","NA","NA","NA","NA","NA","6717985","NA","6717986","6717985","6847278","6879161","6933053","6931549","6934245","6904920","6887866","NA","NA","6790524","6830080","NA","6887642","NA","6887870","NA","6933053","6933053","NA","NA","6931546","NAP perception","10","11564","10","yes","1024"
"100","yes","100","1148","1148","white","no","xpyriment","Ich habe die obigen Informationen gelesen und verstanden.","legacy","legacy","0","uniform","1","0","0","undefined","undefined","1","f","2","1","NA","0","1","0","0","0","0","0","0","0","0","10","10","10","0","0","0","NA","0","0","2","0","0","0","2","10","10","10","10","10","Fri Nov  3 12:14:31 2017","Forced-choice identification task with a practice and an experimental phase","yes","NAP_GER_AA_4blocks_noglides.osexp","/Users/aviadalbert/Documents/Academisch/UoC/Dissertation/Experiment/OpenSesame/NAP-FC/NAP_GER_AA_4blocks_noglides","yes","no","sans","no","20","no","black","no","Weiter","yes","768","legacy","0","9","0","/Users/aviadalbert/Documents/Academisch/UoC/Dissertation/Experiment/OpenSesame/NAP-FC/NAP_GER_AA_4blocks_noglides/subject-41.csv","xpyriment","Jazzy James","3.1.9","yes","yes","59a800d99ad5a1025d81bb03","59a801616c613b0251691de0","no","no","0","f","f","space","NA","space","space","f","1148","3308","11982","NA","31879","8414","1148","2","legacy","1024","1","44100","-16","experiment","lmal","4","2","0","0","1","Eng","41","","odd","6948491","6935971","NA","NA","6951800","6948487","NA","6717985","6948008","6717986","6717985","6847278","6879161","6953508","6952005","6954657","6904920","6887866","6935971","NA","6790524","6830080","6934309","6887642","6948491","6887870","NA","6953508","6953508","NA","NA","6952001","NAP perception","1","1148","1","yes","1024"
"50","yes","50","1408","1408","white","no","xpyriment","Ich habe die obigen Informationen gelesen und verstanden.","legacy","legacy","0","uniform","0","0","0","undefined","undefined","0","f","2","1","NA","0","1","0","0","0","0","0","0","0","0","11","11","11","0","0","0","NA","0","0","2","0","0","0","2","11","11","11","11","11","Fri Nov  3 12:14:31 2017","Forced-choice identification task with a practice and an experimental phase","yes","NAP_GER_AA_4blocks_noglides.osexp","/Users/aviadalbert/Documents/Academisch/UoC/Dissertation/Experiment/OpenSesame/NAP-FC/NAP_GER_AA_4blocks_noglides","yes","no","sans","no","20","no","black","no","Weiter","yes","768","legacy","1","9","0","/Users/aviadalbert/Documents/Academisch/UoC/Dissertation/Experiment/OpenSesame/NAP-FC/NAP_GER_AA_4blocks_noglides/subject-41.csv","xpyriment","Jazzy James","3.1.9","yes","yes","59a800d99ad5a1025d81bb03","59a801616c613b0251691de0","no","no","0","j","f","space","NA","space","space","j","1668","3308","11982","NA","31879","8414","1668","2","legacy","1024","1","44100","-16","experiment","mtal","4","2","0","0","1","Eng","41","","odd","6948491","6935971","NA","NA","6951800","6948487","NA","6717985","6948008","6717986","6717985","6847278","6879161","6956445","6954941","6958114","6904920","6887866","6935971","NA","6790524","6830080","6934309","6887642","6948491","6887870","NA","6956445","6956445","NA","NA","6954937","NAP perception","1","2816","2","yes","1024"
"66.6666666667","yes","66.6666666667","1326.33333333","1326.33333333","white","no","xpyriment","Ich habe die obigen Informationen gelesen und verstanden.","legacy","legacy","0","uniform","1","0","0","undefined","undefined","1","j","2","1","NA","0","1","0","0","0","0","0","0","0","0","12","12","12","0","0","0","NA","0","0","2","0","0","0","2","12","12","12","12","12","Fri Nov  3 12:14:31 2017","Forced-choice identification task with a practice and an experimental phase","yes","NAP_GER_AA_4blocks_noglides.osexp","/Users/aviadalbert/Documents/Academisch/UoC/Dissertation/Experiment/OpenSesame/NAP-FC/NAP_GER_AA_4blocks_noglides","yes","no","sans","no","20","no","black","no","Weiter","yes","768","legacy","2","9","0","/Users/aviadalbert/Documents/Academisch/UoC/Dissertation/Experiment/OpenSesame/NAP-FC/NAP_GER_AA_4blocks_noglides/subject-41.csv","xpyriment","Jazzy James","3.1.9","yes","yes","59a800d99ad5a1025d81bb03","59a801616c613b0251691de0","no","no","0","j","f","space","NA","space","space","j","1163","3308","11982","NA","31879","8414","1163","2","legacy","1024","1","44100","-16","experiment","elkal","4","2","0","0","1","Eng","41","","odd","6948491","6935971","NA","NA","6951800","6948487","NA","6717985","6948008","6717986","6717985","6847278","6879161","6959881","6958378","6961045","6904920","6887866","6935971","NA","6790524","6830080","6934309","6887642","6948491","6887870","NA","6959881","6959881","NA","NA","6958375","NAP perception","2","3979","3","yes","1024"
"75","yes","75","1220.5","1220.5","white","no","xpyriment","Ich habe die obigen Informationen gelesen und verstanden.","legacy","legacy","0","uniform","1","0","0","undefined","undefined","1","j","2","1","NA","0","1","0","0","0","0","0","0","0","0","13","13","13","0","0","0","NA","0","0","2","0","0","0","2","13","13","13","13","13","Fri Nov  3 12:14:31 2017","Forced-choice identification task with a practice and an experimental phase","yes","NAP_GER_AA_4blocks_noglides.osexp","/Users/aviadalbert/Documents/Academisch/UoC/Dissertation/Experiment/OpenSesame/NAP-FC/NAP_GER_AA_4blocks_noglides","yes","no","sans","no","20","no","black","no","Weiter","yes","768","legacy","3","9","0","/Users/aviadalbert/Documents/Academisch/UoC/Dissertation/Experiment/OpenSesame/NAP-FC/NAP_GER_AA_4blocks_noglides/subject-41.csv","xpyriment","Jazzy James","3.1.9","yes","yes","59a800d99ad5a1025d81bb03","59a801616c613b0251691de0","no","no","0","j","f","space","NA","space","space","j","903","3308","11982","NA","31879","8414","903","2","legacy","1024","1","44100","-16","experiment","ʃepal","4","2","0","0","1","Eng","41","","odd","6948491","6935971","NA","NA","6951800","6948487","NA","6717985","6948008","6717986","6717985","6847278","6879161","6962826","6961321","6963731","6904920","6887866","6935971","NA","6790524","6830080","6934309","6887642","6948491","6887870","NA","6962826","6962826","NA","NA","6961317","NAP perception","3","4882","4","yes","1024"
"80","yes","80","1146.2","1146.2","white","no","xpyriment","Ich habe die obigen Informationen gelesen und verstanden.","legacy","legacy","0","uniform","1","0","0","undefined","undefined","1","f","2","1","NA","0","1","0","0","0","0","0","0","0","0","14","14","14","0","0","0","NA","0","0","2","0","0","0","2","14","14","14","14","14","Fri Nov  3 12:14:31 2017","Forced-choice identification task with a practice and an experimental phase","yes","NAP_GER_AA_4blocks_noglides.osexp","/Users/aviadalbert/Documents/Academisch/UoC/Dissertation/Experiment/OpenSesame/NAP-FC/NAP_GER_AA_4blocks_noglides","yes","no","sans","no","20","no","black","no","Weiter","yes","768","legacy","4","9","0","/Users/aviadalbert/Documents/Academisch/UoC/Dissertation/Experiment/OpenSesame/NAP-FC/NAP_GER_AA_4blocks_noglides/subject-41.csv","xpyriment","Jazzy James","3.1.9","yes","yes","59a800d99ad5a1025d81bb03","59a801616c613b0251691de0","no","no","0","f","f","space","NA","space","space","f","849","3308","11982","NA","31879","8414","849","2","legacy","1024","1","44100","-16","experiment","spal","4","2","0","0","1","Eng","41","","odd","6948491","6935971","NA","NA","6951800","6948487","NA","6717985","6948008","6717986","6717985","6847278","6879161","6965520","6964013","6966370","6904920","6887866","6935971","NA","6790524","6830080","6934309","6887642","6948491","6887870","NA","6965519","6965519","NA","NA","6964009","NAP perception","4","5731","5","yes","1024"
"83.3333333333","yes","83.3333333333","1077.83333333","1077.83333333","white","no","xpyriment","Ich habe die obigen Informationen gelesen und verstanden.","legacy","legacy","0","uniform","1","0","0","undefined","undefined","1","j","2","1","NA","0","1","0","0","0","0","0","0","0","0","15","15","15","0","0","0","NA","0","0","2","0","0","0","2","15","15","15","15","15","Fri Nov  3 12:14:31 2017","Forced-choice identification task with a practice and an experimental phase","yes","NAP_GER_AA_4blocks_noglides.osexp","/Users/aviadalbert/Documents/Academisch/UoC/Dissertation/Experiment/OpenSesame/NAP-FC/NAP_GER_AA_4blocks_noglides","yes","no","sans","no","20","no","black","no","Weiter","yes","768","legacy","5","9","0","/Users/aviadalbert/Documents/Academisch/UoC/Dissertation/Experiment/OpenSesame/NAP-FC/NAP_GER_AA_4blocks_noglides/subject-41.csv","xpyriment","Jazzy James","3.1.9","yes","yes","59a800d99ad5a1025d81bb03","59a801616c613b0251691de0","no","no","0","j","f","space","NA","space","space","j","736","3308","11982","NA","31879","8414","736","2","legacy","1024","1","44100","-16","experiment","felal","4","2","0","0","1","Eng","41","","odd","6948491","6935971","NA","NA","6951800","6948487","NA","6717985","6948008","6717986","6717985","6847278","6879161","6968155","6966649","6968892","6904920","6887866","6935971","NA","6790524","6830080","6934309","6887642","6948491","6887870","NA","6968155","6968155","NA","NA","6966645","NAP perception","5","6467","6","yes","1024"
"85.7142857143","yes","85.7142857143","1067.71428571","1067.71428571","white","no","xpyriment","Ich habe die obigen Informationen gelesen und verstanden.","legacy","legacy","0","uniform","1","0","0","undefined","undefined","1","f","2","1","NA","0","1","0","0","0","0","0","0","0","0","16","16","16","0","0","0","NA","0","0","2","0","0","0","2","16","16","16","16","16","Fri Nov  3 12:14:31 2017","Forced-choice identification task with a practice and an experimental phase","yes","NAP_GER_AA_4blocks_noglides.osexp","/Users/aviadalbert/Documents/Academisch/UoC/Dissertation/Experiment/OpenSesame/NAP-FC/NAP_GER_AA_4blocks_noglides","yes","no","sans","no","20","no","black","no","Weiter","yes","768","legacy","6","9","0","/Users/aviadalbert/Documents/Academisch/UoC/Dissertation/Experiment/OpenSesame/NAP-FC/NAP_GER_AA_4blocks_noglides/subject-41.csv","xpyriment","Jazzy James","3.1.9","yes","yes","59a800d99ad5a1025d81bb03","59a801616c613b0251691de0","no","no","0","f","f","space","NA","space","space","f","1007","3308","11982","NA","31879","8414","1007","2","legacy","1024","1","44100","-16","experiment","vzal","4","2","0","0","1","Eng","41","","odd","6948491","6935971","NA","NA","6951800","6948487","NA","6717985","6948008","6717986","6717985","6847278","6879161","6970675","6969170","6971683","6904920","6887866","6935971","NA","6790524","6830080","6934309","6887642","6948491","6887870","NA","6970675","6970675","NA","NA","6969166","NAP perception","6","7474","7","yes","1024"
"87.5","yes","87.5","1136.5","1136.5","white","no","xpyriment","Ich habe die obigen Informationen gelesen und verstanden.","legacy","legacy","0","uniform","1","0","0","undefined","undefined","1","j","2","1","NA","0","1","0","0","0","0","0","0","0","0","17","17","17","0","0","0","NA","0","0","2","0","0","0","2","17","17","17","17","17","Fri Nov  3 12:14:31 2017","Forced-choice identification task with a practice and an experimental phase","yes","NAP_GER_AA_4blocks_noglides.osexp","/Users/aviadalbert/Documents/Academisch/UoC/Dissertation/Experiment/OpenSesame/NAP-FC/NAP_GER_AA_4blocks_noglides","yes","no","sans","no","20","no","black","no","Weiter","yes","768","legacy","7","9","0","/Users/aviadalbert/Documents/Academisch/UoC/Dissertation/Experiment/OpenSesame/NAP-FC/NAP_GER_AA_4blocks_noglides/subject-41.csv","xpyriment","Jazzy James","3.1.9","yes","yes","59a800d99ad5a1025d81bb03","59a801616c613b0251691de0","no","no","0","j","f","space","NA","space","space","j","1618","3308","11982","NA","31879","8414","1618","2","legacy","1024","1","44100","-16","experiment","emzal","4","2","0","0","1","Eng","41","","odd","6948491","6935971","NA","NA","6951800","6948487","NA","6717985","6948008","6717986","6717985","6847278","6879161","6973474","6971967","6975093","6904920","6887866","6935971","NA","6790524","6830080","6934309","6887642","6948491","6887870","NA","6973474","6973474","NA","NA","6971964","NAP perception","7","9092","8","yes","1024"
"88.8888888889","yes","88.8888888889","1105.55555556","1105.55555556","white","no","xpyriment","Ich habe die obigen Informationen gelesen und verstanden.","legacy","legacy","0","uniform","1","0","0","undefined","undefined","1","f","2","1","NA","0","1","0","0","0","0","0","0","0","0","18","18","18","0","0","0","NA","0","0","2","0","0","0","2","18","18","18","18","18","Fri Nov  3 12:14:31 2017","Forced-choice identification task with a practice and an experimental phase","yes","NAP_GER_AA_4blocks_noglides.osexp","/Users/aviadalbert/Documents/Academisch/UoC/Dissertation/Experiment/OpenSesame/NAP-FC/NAP_GER_AA_4blocks_noglides","yes","no","sans","no","20","no","black","no","Weiter","yes","768","legacy","8","9","0","/Users/aviadalbert/Documents/Academisch/UoC/Dissertation/Experiment/OpenSesame/NAP-FC/NAP_GER_AA_4blocks_noglides/subject-41.csv","xpyriment","Jazzy James","3.1.9","yes","yes","59a800d99ad5a1025d81bb03","59a801616c613b0251691de0","no","no","0","f","f","space","NA","space","space","f","858","3308","11982","NA","31879","8414","858","2","legacy","1024","1","44100","-16","experiment","sfal","4","2","0","0","1","Eng","41","","odd","6948491","6935971","NA","NA","6951800","6948487","NA","6717985","6948008","6717986","6717985","6847278","6879161","6976879","6975372","6977738","6904920","6887866","6935971","NA","6790524","6830080","6934309","6887642","6948491","6887870","NA","6976878","6976878","NA","NA","6975368","NAP perception","8","9950","9","yes","1024"
"90","yes","90","1078.9","1078.9","white","no","xpyriment","Ich habe die obigen Informationen gelesen und verstanden.","legacy","legacy","0","uniform","1","0","0","undefined","undefined","1","j","2","1","NA","0","1","0","0","0","0","0","0","0","0","19","19","19","0","0","0","NA","0","0","2","0","0","0","2","19","19","19","19","19","Fri Nov  3 12:14:31 2017","Forced-choice identification task with a practice and an experimental phase","yes","NAP_GER_AA_4blocks_noglides.osexp","/Users/aviadalbert/Documents/Academisch/UoC/Dissertation/Experiment/OpenSesame/NAP-FC/NAP_GER_AA_4blocks_noglides","yes","no","sans","no","20","no","black","no","Weiter","yes","768","legacy","9","9","0","/Users/aviadalbert/Documents/Academisch/UoC/Dissertation/Experiment/OpenSesame/NAP-FC/NAP_GER_AA_4blocks_noglides/subject-41.csv","xpyriment","Jazzy James","3.1.9","yes","yes","59a800d99ad5a1025d81bb03","59a801616c613b0251691de0","no","no","0","j","f","space","NA","space","space","j","839","3308","11982","NA","31879","8414","839","2","legacy","1024","1","44100","-16","experiment","zemal","4","2","0","0","1","Eng","41","","odd","6948491","6935971","NA","NA","6951800","6948487","NA","6717985","6948008","6717986","6717985","6847278","6879161","6979523","6978014","6980363","6904920","6887866","6935971","NA","6790524","6830080","6934309","6887642","6948491","6887870","NA","6979523","6979523","NA","NA","6978010","NAP perception","9","10789","10","yes","1024"
"81.8181818182","yes","81.8181818182","1073.72727273","1073.72727273","white","no","xpyriment","Ich habe die obigen Informationen gelesen und verstanden.","legacy","legacy","0","uniform","0","0","0","undefined","undefined","0","j","2","1","NA","0","1","0","0","0","0","0","0","0","0","20","20","20","0","0","0","NA","0","0","2","0","0","0","2","20","20","20","20","20","Fri Nov  3 12:14:31 2017","Forced-choice identification task with a practice and an experimental phase","yes","NAP_GER_AA_4blocks_noglides.osexp","/Users/aviadalbert/Documents/Academisch/UoC/Dissertation/Experiment/OpenSesame/NAP-FC/NAP_GER_AA_4blocks_noglides","yes","no","sans","no","20","no","black","no","Weiter","yes","768","legacy","10","9","0","/Users/aviadalbert/Documents/Academisch/UoC/Dissertation/Experiment/OpenSesame/NAP-FC/NAP_GER_AA_4blocks_noglides/subject-41.csv","xpyriment","Jazzy James","3.1.9","yes","yes","59a800d99ad5a1025d81bb03","59a801616c613b0251691de0","no","no","0","f","f","space","NA","space","space","f","1022","3308","11982","NA","31879","8414","1022","2","legacy","1024","1","44100","-16","experiment","elfal","4","2","0","0","1","Eng","41","","odd","6948491","6935971","NA","NA","6951800","6948487","NA","6717985","6948008","6717986","6717985","6847278","6879161","6982151","6980648","6983174","6904920","6887866","6935971","NA","6790524","6830080","6934309","6887642","6948491","6887870","NA","6982151","6982151","NA","NA","6980644","NAP perception","9","11811","11","yes","1024"
"83.3333333333","yes","83.3333333333","1141.5","1141.5","white","no","xpyriment","Ich habe die obigen Informationen gelesen und verstanden.","legacy","legacy","0","uniform","1","0","0","undefined","undefined","1","j","2","1","NA","0","1","0","0","0","0","0","0","0","0","21","21","21","0","0","0","NA","0","0","2","0","0","0","2","21","21","21","21","21","Fri Nov  3 12:14:31 2017","Forced-choice identification task with a practice and an experimental phase","yes","NAP_GER_AA_4blocks_noglides.osexp","/Users/aviadalbert/Documents/Academisch/UoC/Dissertation/Experiment/OpenSesame/NAP-FC/NAP_GER_AA_4blocks_noglides","yes","no","sans","no","20","no","black","no","Weiter","yes","768","legacy","11","9","0","/Users/aviadalbert/Documents/Academisch/UoC/Dissertation/Experiment/OpenSesame/NAP-FC/NAP_GER_AA_4blocks_noglides/subject-41.csv","xpyriment","Jazzy James","3.1.9","yes","yes","59a800d99ad5a1025d81bb03","59a801616c613b0251691de0","no","no","0","j","f","space","NA","space","space","j","1887","3308","11982","NA","31879","8414","1887","2","legacy","1024","1","44100","-16","experiment","fesal","4","2","0","0","1","Eng","41","","odd","6948491","6935971","NA","NA","6951800","6948487","NA","6717985","6948008","6717986","6717985","6847278","6879161","6984961","6983458","6986849","6904920","6887866","6935971","NA","6790524","6830080","6934309","6887642","6948491","6887870","NA","6984961","6984961","NA","NA","6983454","NAP perception","10","13698","12","yes","1024"
"84.6153846154","yes","84.6153846154","1222.69230769","1222.69230769","white","no","xpyriment","Ich habe die obigen Informationen gelesen und verstanden.","legacy","legacy","0","uniform","1","0","0","undefined","undefined","1","j","2","1","NA","0","1","0","0","0","0","0","0","0","0","22","22","22","0","0","0","NA","0","0","2","0","0","0","2","22","22","22","22","22","Fri Nov  3 12:14:31 2017","Forced-choice identification task with a practice and an experimental phase","yes","NAP_GER_AA_4blocks_noglides.osexp","/Users/aviadalbert/Documents/Academisch/UoC/Dissertation/Experiment/OpenSesame/NAP-FC/NAP_GER_AA_4blocks_noglides","yes","no","sans","no","20","no","black","no","Weiter","yes","768","legacy","12","9","0","/Users/aviadalbert/Documents/Academisch/UoC/Dissertation/Experiment/OpenSesame/NAP-FC/NAP_GER_AA_4blocks_noglides/subject-41.csv","xpyriment","Jazzy James","3.1.9","yes","yes","59a800d99ad5a1025d81bb03","59a801616c613b0251691de0","no","no","0","j","f","space","NA","space","space","j","2197","3308","11982","NA","31879","8414","2197","2","legacy","1024","1","44100","-16","experiment","nepal","4","2","0","0","1","Eng","41","","odd","6948491","6935971","NA","NA","6951800","6948487","NA","6717985","6948008","6717986","6717985","6847278","6879161","6988624","6987121","6990823","6904920","6887866","6935971","NA","6790524","6830080","6934309","6887642","6948491","6887870","NA","6988624","6988624","NA","NA","6987117","NAP perception","11","15895","13","yes","1024"
"85.7142857143","yes","85.7142857143","1223.71428571","1223.71428571","white","no","xpyriment","Ich habe die obigen Informationen gelesen und verstanden.","legacy","legacy","0","uniform","1","0","0","undefined","undefined","1","j","2","1","NA","0","1","0","0","0","0","0","0","0","0","23","23","23","0","0","0","NA","0","0","2","0","0","0","2","23","23","23","23","23","Fri Nov  3 12:14:31 2017","Forced-choice identification task with a practice and an experimental phase","yes","NAP_GER_AA_4blocks_noglides.osexp","/Users/aviadalbert/Documents/Academisch/UoC/Dissertation/Experiment/OpenSesame/NAP-FC/NAP_GER_AA_4blocks_noglides","yes","no","sans","no","20","no","black","no","Weiter","yes","768","legacy","13","9","0","/Users/aviadalbert/Documents/Academisch/UoC/Dissertation/Experiment/OpenSesame/NAP-FC/NAP_GER_AA_4blocks_noglides/subject-41.csv","xpyriment","Jazzy James","3.1.9","yes","yes","59a800d99ad5a1025d81bb03","59a801616c613b0251691de0","no","no","0","j","f","space","NA","space","space","j","1237","3308","11982","NA","31879","8414","1237","2","legacy","1024","1","44100","-16","experiment","nemal","4","2","0","0","1","Eng","41","","odd","6948491","6935971","NA","NA","6951800","6948487","NA","6717985","6948008","6717986","6717985","6847278","6879161","6992607","6991103","6993845","6904920","6887866","6935971","NA","6790524","6830080","6934309","6887642","6948491","6887870","NA","6992607","6992607","NA","NA","6991100","NAP perception","12","17132","14","yes","1024"
"86.6666666667","yes","86.6666666667","1267.73333333","1267.73333333","white","no","xpyriment","Ich habe die obigen Informationen gelesen und verstanden.","legacy","legacy","0","uniform","1","0","0","undefined","undefined","1","f","2","1","NA","0","1","0","0","0","0","0","0","0","0","24","24","24","0","0","0","NA","0","0","2","0","0","0","2","24","24","24","24","24","Fri Nov  3 12:14:31 2017","Forced-choice identification task with a practice and an experimental phase","yes","NAP_GER_AA_4blocks_noglides.osexp","/Users/aviadalbert/Documents/Academisch/UoC/Dissertation/Experiment/OpenSesame/NAP-FC/NAP_GER_AA_4blocks_noglides","yes","no","sans","no","20","no","black","no","Weiter","yes","768","legacy","14","9","0","/Users/aviadalbert/Documents/Academisch/UoC/Dissertation/Experiment/OpenSesame/NAP-FC/NAP_GER_AA_4blocks_noglides/subject-41.csv","xpyriment","Jazzy James","3.1.9","yes","yes","59a800d99ad5a1025d81bb03","59a801616c613b0251691de0","no","no","0","f","f","space","NA","space","space","f","1884","3308","11982","NA","31879","8414","1884","2","legacy","1024","1","44100","-16","experiment","nval","4","2","0","0","1","Eng","41","","odd","6948491","6935971","NA","NA","6951800","6948487","NA","6717985","6948008","6717986","6717985","6847278","6879161","6995632","6994125","6997518","6904920","6887866","6935971","NA","6790524","6830080","6934309","6887642","6948491","6887870","NA","6995632","6995632","NA","NA","6994121","NAP perception","13","19016","15","yes","1024"
"87.5","yes","87.5","1262.8125","1262.8125","white","no","xpyriment","Ich habe die obigen Informationen gelesen und verstanden.","legacy","legacy","0","uniform","1","0","0","undefined","undefined","1","j","2","1","NA","0","1","0","0","0","0","0","0","0","0","25","25","25","0","0","0","NA","0","0","2","0","0","0","2","25","25","25","25","25","Fri Nov  3 12:14:31 2017","Forced-choice identification task with a practice and an experimental phase","yes","NAP_GER_AA_4blocks_noglides.osexp","/Users/aviadalbert/Documents/Academisch/UoC/Dissertation/Experiment/OpenSesame/NAP-FC/NAP_GER_AA_4blocks_noglides","yes","no","sans","no","20","no","black","no","Weiter","yes","768","legacy","15","9","0","/Users/aviadalbert/Documents/Academisch/UoC/Dissertation/Experiment/OpenSesame/NAP-FC/NAP_GER_AA_4blocks_noglides/subject-41.csv","xpyriment","Jazzy James","3.1.9","yes","yes","59a800d99ad5a1025d81bb03","59a801616c613b0251691de0","no","no","0","j","f","space","NA","space","space","j","1189","3308","11982","NA","31879","8414","1189","2","legacy","1024","1","44100","-16","experiment","emnal","4","2","0","0","1","Eng","41","","odd","6948491","6935971","NA","NA","6951800","6948487","NA","6717985","6948008","6717986","6717985","6847278","6879161","6999299","6997796","7000489","6904920","6887866","6935971","NA","6790524","6830080","6934309","6887642","6948491","6887870","NA","6999299","6999299","NA","NA","6997792","NAP perception","14","20205","16","yes","1024"
"88.2352941176","yes","88.2352941176","1246.35294118","1246.35294118","white","no","xpyriment","Ich habe die obigen Informationen gelesen und verstanden.","legacy","legacy","0","uniform","1","0","0","undefined","undefined","1","j","2","1","NA","0","1","0","0","0","0","0","0","0","0","26","26","26","0","0","0","NA","0","0","2","0","0","0","2","26","26","26","26","26","Fri Nov  3 12:14:31 2017","Forced-choice identification task with a practice and an experimental phase","yes","NAP_GER_AA_4blocks_noglides.osexp","/Users/aviadalbert/Documents/Academisch/UoC/Dissertation/Experiment/OpenSesame/NAP-FC/NAP_GER_AA_4blocks_noglides","yes","no","sans","no","20","no","black","no","Weiter","yes","768","legacy","16","9","0","/Users/aviadalbert/Documents/Academisch/UoC/Dissertation/Experiment/OpenSesame/NAP-FC/NAP_GER_AA_4blocks_noglides/subject-41.csv","xpyriment","Jazzy James","3.1.9","yes","yes","59a800d99ad5a1025d81bb03","59a801616c613b0251691de0","no","no","0","j","f","space","NA","space","space","j","983","3308","11982","NA","31879","8414","983","2","legacy","1024","1","44100","-16","experiment","lepal","4","2","0","0","1","Eng","41","","odd","6948491","6935971","NA","NA","6951800","6948487","NA","6717985","6948008","6717986","6717985","6847278","6879161","7002278","7000775","7003263","6904920","6887866","6935971","NA","6790524","6830080","6934309","6887642","6948491","6887870","NA","7002278","7002278","NA","NA","7000770","NAP perception","15","21188","17","yes","1024"
"88.8888888889","yes","88.8888888889","1243.55555556","1243.55555556","white","no","xpyriment","Ich habe die obigen Informationen gelesen und verstanden.","legacy","legacy","0","uniform","1","0","0","undefined","undefined","1","j","2","1","NA","0","1","0","0","0","0","0","0","0","0","27","27","27","0","0","0","NA","0","0","2","0","0","0","2","27","27","27","27","27","Fri Nov  3 12:14:31 2017","Forced-choice identification task with a practice and an experimental phase","yes","NAP_GER_AA_4blocks_noglides.osexp","/Users/aviadalbert/Documents/Academisch/UoC/Dissertation/Experiment/OpenSesame/NAP-FC/NAP_GER_AA_4blocks_noglides","yes","no","sans","no","20","no","black","no","Weiter","yes","768","legacy","17","9","0","/Users/aviadalbert/Documents/Academisch/UoC/Dissertation/Experiment/OpenSesame/NAP-FC/NAP_GER_AA_4blocks_noglides/subject-41.csv","xpyriment","Jazzy James","3.1.9","yes","yes","59a800d99ad5a1025d81bb03","59a801616c613b0251691de0","no","no","0","j","f","space","NA","space","space","j","1196","3308","11982","NA","31879","8414","1196","2","legacy","1024","1","44100","-16","experiment","sefal","4","2","0","0","1","Eng","41","","odd","6948491","6935971","NA","NA","6951800","6948487","NA","6717985","6948008","6717986","6717985","6847278","6879161","7005040","7003534","7006237","6904920","6887866","6935971","NA","6790524","6830080","6934309","6887642","6948491","6887870","NA","7005040","7005040","NA","NA","7003530","NAP perception","16","22384","18","yes","1024"
"89.4736842105","yes","89.4736842105","1222.21052632","1222.21052632","white","no","xpyriment","Ich habe die obigen Informationen gelesen und verstanden.","legacy","legacy","0","uniform","1","0","0","undefined","undefined","1","f","2","1","NA","0","1","0","0","0","0","0","0","0","0","28","28","28","0","0","0","NA","0","0","2","0","0","0","2","28","28","28","28","28","Fri Nov  3 12:14:31 2017","Forced-choice identification task with a practice and an experimental phase","yes","NAP_GER_AA_4blocks_noglides.osexp","/Users/aviadalbert/Documents/Academisch/UoC/Dissertation/Experiment/OpenSesame/NAP-FC/NAP_GER_AA_4blocks_noglides","yes","no","sans","no","20","no","black","no","Weiter","yes","768","legacy","18","9","0","/Users/aviadalbert/Documents/Academisch/UoC/Dissertation/Experiment/OpenSesame/NAP-FC/NAP_GER_AA_4blocks_noglides/subject-41.csv","xpyriment","Jazzy James","3.1.9","yes","yes","59a800d99ad5a1025d81bb03","59a801616c613b0251691de0","no","no","0","f","f","space","NA","space","space","f","838","3308","11982","NA","31879","8414","838","2","legacy","1024","1","44100","-16","experiment","ʃmal","4","2","0","0","1","Eng","41","","odd","6948491","6935971","NA","NA","6951800","6948487","NA","6717985","6948008","6717986","6717985","6847278","6879161","7008019","7006516","7008858","6904920","6887866","6935971","NA","6790524","6830080","6934309","6887642","6948491","6887870","NA","7008019","7008019","NA","NA","7006512","NAP perception","17","23222","19","yes","1024"
"90","yes","90","1206.6","1206.6","white","no","xpyriment","Ich habe die obigen Informationen gelesen und verstanden.","legacy","legacy","0","uniform","1","0","0","undefined","undefined","1","j","2","1","NA","0","1","0","0","0","0","0","0","0","0","29","29","29","0","0","0","NA","0","0","2","0","0","0","2","29","29","29","29","29","Fri Nov  3 12:14:31 2017","Forced-choice identification task with a practice and an experimental phase","yes","NAP_GER_AA_4blocks_noglides.osexp","/Users/aviadalbert/Documents/Academisch/UoC/Dissertation/Experiment/OpenSesame/NAP-FC/NAP_GER_AA_4blocks_noglides","yes","no","sans","no","20","no","black","no","Weiter","yes","768","legacy","19","9","0","/Users/aviadalbert/Documents/Academisch/UoC/Dissertation/Experiment/OpenSesame/NAP-FC/NAP_GER_AA_4blocks_noglides/subject-41.csv","xpyriment","Jazzy James","3.1.9","yes","yes","59a800d99ad5a1025d81bb03","59a801616c613b0251691de0","no","no","0","j","f","space","NA","space","space","j","910","3308","11982","NA","31879","8414","910","2","legacy","1024","1","44100","-16","experiment","enpal","4","2","0","0","1","Eng","41","","odd","6948491","6935971","NA","NA","6951800","6948487","NA","6717985","6948008","6717986","6717985","6847278","6879161","7010638","7009131","7011549","6904920","6887866","6935971","NA","6790524","6830080","6934309","6887642","6948491","6887870","NA","7010638","7010638","NA","NA","7009127","NAP perception","18","24132","20","yes","1024"
"90.4761904762","yes","90.4761904762","1215.0952381","1215.0952381","white","no","xpyriment","Ich habe die obigen Informationen gelesen und verstanden.","legacy","legacy","0","uniform","1","0","0","undefined","undefined","1","f","2","1","NA","0","1","0","0","0","0","0","0","0","0","30","30","30","0","0","0","NA","0","0","2","0","0","0","2","30","30","30","30","30","Fri Nov  3 12:14:31 2017","Forced-choice identification task with a practice and an experimental phase","yes","NAP_GER_AA_4blocks_noglides.osexp","/Users/aviadalbert/Documents/Academisch/UoC/Dissertation/Experiment/OpenSesame/NAP-FC/NAP_GER_AA_4blocks_noglides","yes","no","sans","no","20","no","black","no","Weiter","yes","768","legacy","20","9","0","/Users/aviadalbert/Documents/Academisch/UoC/Dissertation/Experiment/OpenSesame/NAP-FC/NAP_GER_AA_4blocks_noglides/subject-41.csv","xpyriment","Jazzy James","3.1.9","yes","yes","59a800d99ad5a1025d81bb03","59a801616c613b0251691de0","no","no","0","f","f","space","NA","space","space","f","1385","3308","11982","NA","31879","8414","1385","2","legacy","1024","1","44100","-16","experiment","ʃfal","4","2","0","0","1","Eng","41","","odd","6948491","6935971","NA","NA","6951800","6948487","NA","6717985","6948008","6717986","6717985","6847278","6879161","7013325","7011821","7014711","6904920","6887866","6935971","NA","6790524","6830080","6934309","6887642","6948491","6887870","NA","7013325","7013325","NA","NA","7011818","NAP perception","19","25517","21","yes","1024"
"90.9090909091","yes","90.9090909091","1294.5","1294.5","white","no","xpyriment","Ich habe die obigen Informationen gelesen und verstanden.","legacy","legacy","0","uniform","1","0","0","undefined","undefined","1","f","2","1","NA","0","1","0","0","0","0","0","0","0","0","31","31","31","0","0","0","NA","0","0","2","0","0","0","2","31","31","31","31","31","Fri Nov  3 12:14:31 2017","Forced-choice identification task with a practice and an experimental phase","yes","NAP_GER_AA_4blocks_noglides.osexp","/Users/aviadalbert/Documents/Academisch/UoC/Dissertation/Experiment/OpenSesame/NAP-FC/NAP_GER_AA_4blocks_noglides","yes","no","sans","no","20","no","black","no","Weiter","yes","768","legacy","21","9","0","/Users/aviadalbert/Documents/Academisch/UoC/Dissertation/Experiment/OpenSesame/NAP-FC/NAP_GER_AA_4blocks_noglides/subject-41.csv","xpyriment","Jazzy James","3.1.9","yes","yes","59a800d99ad5a1025d81bb03","59a801616c613b0251691de0","no","no","0","f","f","space","NA","space","space","f","2962","3308","11982","NA","31879","8414","2962","2","legacy","1024","1","44100","-16","experiment","lpal","4","2","0","0","1","Eng","41","","odd","6948491","6935971","NA","NA","6951800","6948487","NA","6717985","6948008","6717986","6717985","6847278","6879161","7016489","7014983","7019452","6904920","6887866","6935971","NA","6790524","6830080","6934309","6887642","6948491","6887870","NA","7016489","7016489","NA","NA","7014979","NAP perception","20","28479","22","yes","1024"
"91.3043478261","yes","91.3043478261","1282.26086957","1282.26086957","white","no","xpyriment","Ich habe die obigen Informationen gelesen und verstanden.","legacy","legacy","0","uniform","1","0","0","undefined","undefined","1","f","2","1","NA","0","1","0","0","0","0","0","0","0","0","32","32","32","0","0","0","NA","0","0","2","0","0","0","2","32","32","32","32","32","Fri Nov  3 12:14:31 2017","Forced-choice identification task with a practice and an experimental phase","yes","NAP_GER_AA_4blocks_noglides.osexp","/Users/aviadalbert/Documents/Academisch/UoC/Dissertation/Experiment/OpenSesame/NAP-FC/NAP_GER_AA_4blocks_noglides","yes","no","sans","no","20","no","black","no","Weiter","yes","768","legacy","22","9","0","/Users/aviadalbert/Documents/Academisch/UoC/Dissertation/Experiment/OpenSesame/NAP-FC/NAP_GER_AA_4blocks_noglides/subject-41.csv","xpyriment","Jazzy James","3.1.9","yes","yes","59a800d99ad5a1025d81bb03","59a801616c613b0251691de0","no","no","0","f","f","space","NA","space","space","f","1013","3308","11982","NA","31879","8414","1013","2","legacy","1024","1","44100","-16","experiment","mnal","4","2","0","0","1","Eng","41","","odd","6948491","6935971","NA","NA","6951800","6948487","NA","6717985","6948008","6717986","6717985","6847278","6879161","7021245","7019742","7022260","6904920","6887866","6935971","NA","6790524","6830080","6934309","6887642","6948491","6887870","NA","7021245","7021245","NA","NA","7019738","NAP perception","21","29492","23","yes","1024"
"91.6666666667","yes","91.6666666667","1311.125","1311.125","white","no","xpyriment","Ich habe die obigen Informationen gelesen und verstanden.","legacy","legacy","0","uniform","1","0","0","undefined","undefined","1","f","2","1","NA","0","1","0","0","0","0","0","0","0","0","33","33","33","0","0","0","NA","0","0","2","0","0","0","2","33","33","33","33","33","Fri Nov  3 12:14:31 2017","Forced-choice identification task with a practice and an experimental phase","yes","NAP_GER_AA_4blocks_noglides.osexp","/Users/aviadalbert/Documents/Academisch/UoC/Dissertation/Experiment/OpenSesame/NAP-FC/NAP_GER_AA_4blocks_noglides","yes","no","sans","no","20","no","black","no","Weiter","yes","768","legacy","23","9","0","/Users/aviadalbert/Documents/Academisch/UoC/Dissertation/Experiment/OpenSesame/NAP-FC/NAP_GER_AA_4blocks_noglides/subject-41.csv","xpyriment","Jazzy James","3.1.9","yes","yes","59a800d99ad5a1025d81bb03","59a801616c613b0251691de0","no","no","0","f","f","space","NA","space","space","f","1975","3308","11982","NA","31879","8414","1975","2","legacy","1024","1","44100","-16","experiment","mzal","4","2","0","0","1","Eng","41","","odd","6948491","6935971","NA","NA","6951800","6948487","NA","6717985","6948008","6717986","6717985","6847278","6879161","7024038","7022535","7026014","6904920","6887866","6935971","NA","6790524","6830080","6934309","6887642","6948491","6887870","NA","7024038","7024038","NA","NA","7022531","NAP perception","22","31467","24","yes","1024"
"92","yes","92","1307.68","1307.68","white","no","xpyriment","Ich habe die obigen Informationen gelesen und verstanden.","legacy","legacy","0","uniform","1","0","0","undefined","undefined","1","f","2","1","NA","0","1","0","0","0","0","0","0","0","0","34","34","34","0","0","0","NA","0","0","2","0","0","0","2","34","34","34","34","34","Fri Nov  3 12:14:31 2017","Forced-choice identification task with a practice and an experimental phase","yes","NAP_GER_AA_4blocks_noglides.osexp","/Users/aviadalbert/Documents/Academisch/UoC/Dissertation/Experiment/OpenSesame/NAP-FC/NAP_GER_AA_4blocks_noglides","yes","no","sans","no","20","no","black","no","Weiter","yes","768","legacy","24","9","0","/Users/aviadalbert/Documents/Academisch/UoC/Dissertation/Experiment/OpenSesame/NAP-FC/NAP_GER_AA_4blocks_noglides/subject-41.csv","xpyriment","Jazzy James","3.1.9","yes","yes","59a800d99ad5a1025d81bb03","59a801616c613b0251691de0","no","no","0","f","f","space","NA","space","space","f","1225","3308","11982","NA","31879","8414","1225","2","legacy","1024","1","44100","-16","experiment","fsal","4","2","0","0","1","Eng","41","","odd","6948491","6935971","NA","NA","6951800","6948487","NA","6717985","6948008","6717986","6717985","6847278","6879161","7027785","7026280","7029011","6904920","6887866","6935971","NA","6790524","6830080","6934309","6887642","6948491","6887870","NA","7027785","7027785","NA","NA","7026276","NAP perception","23","32692","25","yes","1024"
"92.3076923077","yes","92.3076923077","1349.92307692","1349.92307692","white","no","xpyriment","Ich habe die obigen Informationen gelesen und verstanden.","legacy","legacy","0","uniform","1","0","0","undefined","undefined","1","j","2","1","NA","0","1","0","0","0","0","0","0","0","0","35","35","35","0","0","0","NA","0","0","2","0","0","0","2","35","35","35","35","35","Fri Nov  3 12:14:31 2017","Forced-choice identification task with a practice and an experimental phase","yes","NAP_GER_AA_4blocks_noglides.osexp","/Users/aviadalbert/Documents/Academisch/UoC/Dissertation/Experiment/OpenSesame/NAP-FC/NAP_GER_AA_4blocks_noglides","yes","no","sans","no","20","no","black","no","Weiter","yes","768","legacy","25","9","0","/Users/aviadalbert/Documents/Academisch/UoC/Dissertation/Experiment/OpenSesame/NAP-FC/NAP_GER_AA_4blocks_noglides/subject-41.csv","xpyriment","Jazzy James","3.1.9","yes","yes","59a800d99ad5a1025d81bb03","59a801616c613b0251691de0","no","no","0","j","f","space","NA","space","space","j","2406","3308","11982","NA","31879","8414","2406","2","legacy","1024","1","44100","-16","experiment","evzal","4","2","0","0","1","Eng","41","","odd","6948491","6935971","NA","NA","6951800","6948487","NA","6717985","6948008","6717986","6717985","6847278","6879161","7030785","7029281","7033193","6904920","6887866","6935971","NA","6790524","6830080","6934309","6887642","6948491","6887870","NA","7030785","7030785","NA","NA","7029277","NAP perception","24","35098","26","yes","1024"
"92.5925925926","yes","92.5925925926","1396.07407407","1396.07407407","white","no","xpyriment","Ich habe die obigen Informationen gelesen und verstanden.","legacy","legacy","0","uniform","1","0","0","undefined","undefined","1","f","2","1","NA","0","1","0","0","0","0","0","0","0","0","36","36","36","0","0","0","NA","0","0","2","0","0","0","2","36","36","36","36","36","Fri Nov  3 12:14:31 2017","Forced-choice identification task with a practice and an experimental phase","yes","NAP_GER_AA_4blocks_noglides.osexp","/Users/aviadalbert/Documents/Academisch/UoC/Dissertation/Experiment/OpenSesame/NAP-FC/NAP_GER_AA_4blocks_noglides","yes","no","sans","no","20","no","black","no","Weiter","yes","768","legacy","26","9","0","/Users/aviadalbert/Documents/Academisch/UoC/Dissertation/Experiment/OpenSesame/NAP-FC/NAP_GER_AA_4blocks_noglides/subject-41.csv","xpyriment","Jazzy James","3.1.9","yes","yes","59a800d99ad5a1025d81bb03","59a801616c613b0251691de0","no","no","0","f","f","space","NA","space","space","f","2596","3308","11982","NA","31879","8414","2596","2","legacy","1024","1","44100","-16","experiment","nfal","4","2","0","0","1","Eng","41","","odd","6948491","6935971","NA","NA","6951800","6948487","NA","6717985","6948008","6717986","6717985","6847278","6879161","7034964","7033459","7037562","6904920","6887866","6935971","NA","6790524","6830080","6934309","6887642","6948491","6887870","NA","7034963","7034964","NA","NA","7033455","NAP perception","25","37694","27","yes","1024"
"92.8571428571","yes","92.8571428571","1396.03571429","1396.03571429","white","no","xpyriment","Ich habe die obigen Informationen gelesen und verstanden.","legacy","legacy","0","uniform","1","0","0","undefined","undefined","1","f","2","1","NA","0","1","0","0","0","0","0","0","0","0","37","37","37","0","0","0","NA","0","0","2","0","0","0","2","37","37","37","37","37","Fri Nov  3 12:14:31 2017","Forced-choice identification task with a practice and an experimental phase","yes","NAP_GER_AA_4blocks_noglides.osexp","/Users/aviadalbert/Documents/Academisch/UoC/Dissertation/Experiment/OpenSesame/NAP-FC/NAP_GER_AA_4blocks_noglides","yes","no","sans","no","20","no","black","no","Weiter","yes","768","legacy","27","9","0","/Users/aviadalbert/Documents/Academisch/UoC/Dissertation/Experiment/OpenSesame/NAP-FC/NAP_GER_AA_4blocks_noglides/subject-41.csv","xpyriment","Jazzy James","3.1.9","yes","yes","59a800d99ad5a1025d81bb03","59a801616c613b0251691de0","no","no","0","f","f","space","NA","space","space","f","1395","3308","11982","NA","31879","8414","1395","2","legacy","1024","1","44100","-16","experiment","ʃfal","4","2","0","0","1","Eng","41","","odd","6948491","6935971","NA","NA","6951800","6948487","NA","6717985","6948008","6717986","6717985","6847278","6879161","7039340","7037837","7040736","6904920","6887866","6935971","NA","6790524","6830080","6934309","6887642","6948491","6887870","NA","7039340","7039340","NA","NA","7037833","NAP perception","26","39089","28","yes","1024"
"93.1034482759","yes","93.1034482759","1385.48275862","1385.48275862","white","no","xpyriment","Ich habe die obigen Informationen gelesen und verstanden.","legacy","legacy","0","uniform","1","0","0","undefined","undefined","1","f","2","1","NA","0","1","0","0","0","0","0","0","0","0","38","38","38","0","0","0","NA","0","0","2","0","0","0","2","38","38","38","38","38","Fri Nov  3 12:14:31 2017","Forced-choice identification task with a practice and an experimental phase","yes","NAP_GER_AA_4blocks_noglides.osexp","/Users/aviadalbert/Documents/Academisch/UoC/Dissertation/Experiment/OpenSesame/NAP-FC/NAP_GER_AA_4blocks_noglides","yes","no","sans","no","20","no","black","no","Weiter","yes","768","legacy","28","9","0","/Users/aviadalbert/Documents/Academisch/UoC/Dissertation/Experiment/OpenSesame/NAP-FC/NAP_GER_AA_4blocks_noglides/subject-41.csv","xpyriment","Jazzy James","3.1.9","yes","yes","59a800d99ad5a1025d81bb03","59a801616c613b0251691de0","no","no","0","f","f","space","NA","space","space","f","1090","3308","11982","NA","31879","8414","1090","2","legacy","1024","1","44100","-16","experiment","mlal","4","2","0","0","1","Eng","41","","odd","6948491","6935971","NA","NA","6951800","6948487","NA","6717985","6948008","6717986","6717985","6847278","6879161","7042520","7041012","7043611","6904920","6887866","6935971","NA","6790524","6830080","6934309","6887642","6948491","6887870","NA","7042519","7042519","NA","NA","7041008","NAP perception","27","40179","29","yes","1024"
"93.3333333333","yes","93.3333333333","1424.06666667","1424.06666667","white","no","xpyriment","Ich habe die obigen Informationen gelesen und verstanden.","legacy","legacy","0","uniform","1","0","0","undefined","undefined","1","f","2","1","NA","0","1","0","0","0","0","0","0","0","0","39","39","39","0","0","0","NA","0","0","2","0","0","0","2","39","39","39","39","39","Fri Nov  3 12:14:31 2017","Forced-choice identification task with a practice and an experimental phase","yes","NAP_GER_AA_4blocks_noglides.osexp","/Users/aviadalbert/Documents/Academisch/UoC/Dissertation/Experiment/OpenSesame/NAP-FC/NAP_GER_AA_4blocks_noglides","yes","no","sans","no","20","no","black","no","Weiter","yes","768","legacy","29","9","0","/Users/aviadalbert/Documents/Academisch/UoC/Dissertation/Experiment/OpenSesame/NAP-FC/NAP_GER_AA_4blocks_noglides/subject-41.csv","xpyriment","Jazzy James","3.1.9","yes","yes","59a800d99ad5a1025d81bb03","59a801616c613b0251691de0","no","no","0","f","f","space","NA","space","space","f","2543","3308","11982","NA","31879","8414","2543","2","legacy","1024","1","44100","-16","experiment","mzal","4","2","0","0","1","Eng","41","","odd","6948491","6935971","NA","NA","6951800","6948487","NA","6717985","6948008","6717986","6717985","6847278","6879161","7045399","7043894","7047944","6904920","6887866","6935971","NA","6790524","6830080","6934309","6887642","6948491","6887870","NA","7045399","7045399","NA","NA","7043891","NAP perception","28","42722","30","yes","1024"
"93.5483870968","yes","93.5483870968","1410.83870968","1410.83870968","white","no","xpyriment","Ich habe die obigen Informationen gelesen und verstanden.","legacy","legacy","0","uniform","1","0","0","undefined","undefined","1","f","2","1","NA","0","1","0","0","0","0","0","0","0","0","40","40","40","0","0","0","NA","0","0","2","0","0","0","2","40","40","40","40","40","Fri Nov  3 12:14:31 2017","Forced-choice identification task with a practice and an experimental phase","yes","NAP_GER_AA_4blocks_noglides.osexp","/Users/aviadalbert/Documents/Academisch/UoC/Dissertation/Experiment/OpenSesame/NAP-FC/NAP_GER_AA_4blocks_noglides","yes","no","sans","no","20","no","black","no","Weiter","yes","768","legacy","30","9","0","/Users/aviadalbert/Documents/Academisch/UoC/Dissertation/Experiment/OpenSesame/NAP-FC/NAP_GER_AA_4blocks_noglides/subject-41.csv","xpyriment","Jazzy James","3.1.9","yes","yes","59a800d99ad5a1025d81bb03","59a801616c613b0251691de0","no","no","0","f","f","space","NA","space","space","f","1014","3308","11982","NA","31879","8414","1014","2","legacy","1024","1","44100","-16","experiment","fnal","4","2","0","0","1","Eng","41","","odd","6948491","6935971","NA","NA","6951800","6948487","NA","6717985","6948008","6717986","6717985","6847278","6879161","7049723","7048216","7050739","6904920","6887866","6935971","NA","6790524","6830080","6934309","6887642","6948491","6887870","NA","7049723","7049723","NA","NA","7048212","NAP perception","29","43736","31","yes","1024"
"93.75","yes","93.75","1408.1875","1408.1875","white","no","xpyriment","Ich habe die obigen Informationen gelesen und verstanden.","legacy","legacy","0","uniform","1","0","0","undefined","undefined","1","j","2","1","NA","0","1","0","0","0","0","0","0","0","0","41","41","41","0","0","0","NA","0","0","2","0","0","0","2","41","41","41","41","41","Fri Nov  3 12:14:31 2017","Forced-choice identification task with a practice and an experimental phase","yes","NAP_GER_AA_4blocks_noglides.osexp","/Users/aviadalbert/Documents/Academisch/UoC/Dissertation/Experiment/OpenSesame/NAP-FC/NAP_GER_AA_4blocks_noglides","yes","no","sans","no","20","no","black","no","Weiter","yes","768","legacy","31","9","0","/Users/aviadalbert/Documents/Academisch/UoC/Dissertation/Experiment/OpenSesame/NAP-FC/NAP_GER_AA_4blocks_noglides/subject-41.csv","xpyriment","Jazzy James","3.1.9","yes","yes","59a800d99ad5a1025d81bb03","59a801616c613b0251691de0","no","no","0","j","f","space","NA","space","space","j","1326","3308","11982","NA","31879","8414","1326","2","legacy","1024","1","44100","-16","experiment","ʃefal","4","2","0","0","1","Eng","41","","odd","6948491","6935971","NA","NA","6951800","6948487","NA","6717985","6948008","6717986","6717985","6847278","6879161","7052523","7051018","7053851","6904920","6887866","6935971","NA","6790524","6830080","6934309","6887642","6948491","6887870","NA","7052523","7052523","NA","NA","7051014","NAP perception","30","45062","32","yes","1024"
"93.9393939394","yes","93.9393939394","1415.96969697","1415.96969697","white","no","xpyriment","Ich habe die obigen Informationen gelesen und verstanden.","legacy","legacy","0","uniform","1","0","0","undefined","undefined","1","f","2","1","NA","0","1","0","0","0","0","0","0","0","0","42","42","42","0","0","0","NA","0","0","2","0","0","0","2","42","42","42","42","42","Fri Nov  3 12:14:31 2017","Forced-choice identification task with a practice and an experimental phase","yes","NAP_GER_AA_4blocks_noglides.osexp","/Users/aviadalbert/Documents/Academisch/UoC/Dissertation/Experiment/OpenSesame/NAP-FC/NAP_GER_AA_4blocks_noglides","yes","no","sans","no","20","no","black","no","Weiter","yes","768","legacy","32","9","0","/Users/aviadalbert/Documents/Academisch/UoC/Dissertation/Experiment/OpenSesame/NAP-FC/NAP_GER_AA_4blocks_noglides/subject-41.csv","xpyriment","Jazzy James","3.1.9","yes","yes","59a800d99ad5a1025d81bb03","59a801616c613b0251691de0","no","no","0","f","f","space","NA","space","space","f","1665","3308","11982","NA","31879","8414","1665","2","legacy","1024","1","44100","-16","experiment","smal","4","2","0","0","1","Eng","41","","odd","6948491","6935971","NA","NA","6951800","6948487","NA","6717985","6948008","6717986","6717985","6847278","6879161","7055627","7054120","7057294","6904920","6887866","6935971","NA","6790524","6830080","6934309","6887642","6948491","6887870","NA","7055627","7055627","NA","NA","7054116","NAP perception","31","46727","33","yes","1024"
"94.1176470588","yes","94.1176470588","1411.26470588","1411.26470588","white","no","xpyriment","Ich habe die obigen Informationen gelesen und verstanden.","legacy","legacy","0","uniform","1","0","0","undefined","undefined","1","f","2","1","NA","0","1","0","0","0","0","0","0","0","0","43","43","43","0","0","0","NA","0","0","2","0","0","0","2","43","43","43","43","43","Fri Nov  3 12:14:31 2017","Forced-choice identification task with a practice and an experimental phase","yes","NAP_GER_AA_4blocks_noglides.osexp","/Users/aviadalbert/Documents/Academisch/UoC/Dissertation/Experiment/OpenSesame/NAP-FC/NAP_GER_AA_4blocks_noglides","yes","no","sans","no","20","no","black","no","Weiter","yes","768","legacy","33","9","0","/Users/aviadalbert/Documents/Academisch/UoC/Dissertation/Experiment/OpenSesame/NAP-FC/NAP_GER_AA_4blocks_noglides/subject-41.csv","xpyriment","Jazzy James","3.1.9","yes","yes","59a800d99ad5a1025d81bb03","59a801616c613b0251691de0","no","no","0","f","f","space","NA","space","space","f","1256","3308","11982","NA","31879","8414","1256","2","legacy","1024","1","44100","-16","experiment","vnal","4","2","0","0","1","Eng","41","","odd","6948491","6935971","NA","NA","6951800","6948487","NA","6717985","6948008","6717986","6717985","6847278","6879161","7059080","7057577","7060338","6904920","6887866","6935971","NA","6790524","6830080","6934309","6887642","6948491","6887870","NA","7059080","7059080","NA","NA","7057573","NAP perception","32","47983","34","yes","1024"
"94.2857142857","yes","94.2857142857","1398.34285714","1398.34285714","white","no","xpyriment","Ich habe die obigen Informationen gelesen und verstanden.","legacy","legacy","0","uniform","1","0","0","undefined","undefined","1","j","2","1","NA","0","1","0","0","0","0","0","0","0","0","44","44","44","0","0","0","NA","0","0","2","0","0","0","2","44","44","44","44","44","Fri Nov  3 12:14:31 2017","Forced-choice identification task with a practice and an experimental phase","yes","NAP_GER_AA_4blocks_noglides.osexp","/Users/aviadalbert/Documents/Academisch/UoC/Dissertation/Experiment/OpenSesame/NAP-FC/NAP_GER_AA_4blocks_noglides","yes","no","sans","no","20","no","black","no","Weiter","yes","768","legacy","34","9","0","/Users/aviadalbert/Documents/Academisch/UoC/Dissertation/Experiment/OpenSesame/NAP-FC/NAP_GER_AA_4blocks_noglides/subject-41.csv","xpyriment","Jazzy James","3.1.9","yes","yes","59a800d99ad5a1025d81bb03","59a801616c613b0251691de0","no","no","0","j","f","space","NA","space","space","j","959","3308","11982","NA","31879","8414","959","2","legacy","1024","1","44100","-16","experiment","eftal","4","2","0","0","1","Eng","41","","odd","6948491","6935971","NA","NA","6951800","6948487","NA","6717985","6948008","6717986","6717985","6847278","6879161","7062128","7060622","7063089","6904920","6887866","6935971","NA","6790524","6830080","6934309","6887642","6948491","6887870","NA","7062127","7062128","NA","NA","7060618","NAP perception","33","48942","35","yes","1024"
"94.4444444444","yes","94.4444444444","1410.08333333","1410.08333333","white","no","xpyriment","Ich habe die obigen Informationen gelesen und verstanden.","legacy","legacy","0","uniform","1","0","0","undefined","undefined","1","j","2","1","NA","0","1","0","0","0","0","0","0","0","0","45","45","45","0","0","0","NA","0","0","2","0","0","0","2","45","45","45","45","45","Fri Nov  3 12:14:31 2017","Forced-choice identification task with a practice and an experimental phase","yes","NAP_GER_AA_4blocks_noglides.osexp","/Users/aviadalbert/Documents/Academisch/UoC/Dissertation/Experiment/OpenSesame/NAP-FC/NAP_GER_AA_4blocks_noglides","yes","no","sans","no","20","no","black","no","Weiter","yes","768","legacy","35","9","0","/Users/aviadalbert/Documents/Academisch/UoC/Dissertation/Experiment/OpenSesame/NAP-FC/NAP_GER_AA_4blocks_noglides/subject-41.csv","xpyriment","Jazzy James","3.1.9","yes","yes","59a800d99ad5a1025d81bb03","59a801616c613b0251691de0","no","no","0","j","f","space","NA","space","space","j","1821","3308","11982","NA","31879","8414","1821","2","legacy","1024","1","44100","-16","experiment","esfal","4","2","0","0","1","Eng","41","","odd","6948491","6935971","NA","NA","6951800","6948487","NA","6717985","6948008","6717986","6717985","6847278","6879161","7064875","7063371","7066698","6904920","6887866","6935971","NA","6790524","6830080","6934309","6887642","6948491","6887870","NA","7064875","7064875","NA","NA","7063367","NAP perception","34","50763","36","yes","1024"
"94.5945945946","yes","94.5945945946","1420.86486486","1420.86486486","white","no","xpyriment","Ich habe die obigen Informationen gelesen und verstanden.","legacy","legacy","0","uniform","1","0","0","undefined","undefined","1","f","2","1","NA","0","1","0","0","0","0","0","0","0","0","46","46","46","0","0","0","NA","0","0","2","0","0","0","2","46","46","46","46","46","Fri Nov  3 12:14:31 2017","Forced-choice identification task with a practice and an experimental phase","yes","NAP_GER_AA_4blocks_noglides.osexp","/Users/aviadalbert/Documents/Academisch/UoC/Dissertation/Experiment/OpenSesame/NAP-FC/NAP_GER_AA_4blocks_noglides","yes","no","sans","no","20","no","black","no","Weiter","yes","768","legacy","36","9","0","/Users/aviadalbert/Documents/Academisch/UoC/Dissertation/Experiment/OpenSesame/NAP-FC/NAP_GER_AA_4blocks_noglides/subject-41.csv","xpyriment","Jazzy James","3.1.9","yes","yes","59a800d99ad5a1025d81bb03","59a801616c613b0251691de0","no","no","0","f","f","space","NA","space","space","f","1809","3308","11982","NA","31879","8414","1809","2","legacy","1024","1","44100","-16","experiment","npal","4","2","0","0","1","Eng","41","","odd","6948491","6935971","NA","NA","6951800","6948487","NA","6717985","6948008","6717986","6717985","6847278","6879161","7068485","7066982","7070295","6904920","6887866","6935971","NA","6790524","6830080","6934309","6887642","6948491","6887870","NA","7068485","7068485","NA","NA","7066978","NAP perception","35","52572","37","yes","1024"
"94.7368421053","yes","94.7368421053","1420.86842105","1420.86842105","white","no","xpyriment","Ich habe die obigen Informationen gelesen und verstanden.","legacy","legacy","0","uniform","1","0","0","undefined","undefined","1","j","2","1","NA","0","1","0","0","0","0","0","0","0","0","47","47","47","0","0","0","NA","0","0","2","0","0","0","2","47","47","47","47","47","Fri Nov  3 12:14:31 2017","Forced-choice identification task with a practice and an experimental phase","yes","NAP_GER_AA_4blocks_noglides.osexp","/Users/aviadalbert/Documents/Academisch/UoC/Dissertation/Experiment/OpenSesame/NAP-FC/NAP_GER_AA_4blocks_noglides","yes","no","sans","no","20","no","black","no","Weiter","yes","768","legacy","37","9","0","/Users/aviadalbert/Documents/Academisch/UoC/Dissertation/Experiment/OpenSesame/NAP-FC/NAP_GER_AA_4blocks_noglides/subject-41.csv","xpyriment","Jazzy James","3.1.9","yes","yes","59a800d99ad5a1025d81bb03","59a801616c613b0251691de0","no","no","0","j","f","space","NA","space","space","j","1421","3308","11982","NA","31879","8414","1421","2","legacy","1024","1","44100","-16","experiment","ezmal","4","2","0","0","1","Eng","41","","odd","6948491","6935971","NA","NA","6951800","6948487","NA","6717985","6948008","6717986","6717985","6847278","6879161","7072089","7070585","7073512","6904920","6887866","6935971","NA","6790524","6830080","6934309","6887642","6948491","6887870","NA","7072089","7072089","NA","NA","7070581","NAP perception","36","53993","38","yes","1024"
"94.8717948718","yes","94.8717948718","1443.79487179","1443.79487179","white","no","xpyriment","Ich habe die obigen Informationen gelesen und verstanden.","legacy","legacy","0","uniform","1","0","0","undefined","undefined","1","f","2","1","NA","0","1","0","0","0","0","0","0","0","0","48","48","48","0","0","0","NA","0","0","2","0","0","0","2","48","48","48","48","48","Fri Nov  3 12:14:31 2017","Forced-choice identification task with a practice and an experimental phase","yes","NAP_GER_AA_4blocks_noglides.osexp","/Users/aviadalbert/Documents/Academisch/UoC/Dissertation/Experiment/OpenSesame/NAP-FC/NAP_GER_AA_4blocks_noglides","yes","no","sans","no","20","no","black","no","Weiter","yes","768","legacy","38","9","0","/Users/aviadalbert/Documents/Academisch/UoC/Dissertation/Experiment/OpenSesame/NAP-FC/NAP_GER_AA_4blocks_noglides/subject-41.csv","xpyriment","Jazzy James","3.1.9","yes","yes","59a800d99ad5a1025d81bb03","59a801616c613b0251691de0","no","no","0","f","f","space","NA","space","space","f","2315","3308","11982","NA","31879","8414","2315","2","legacy","1024","1","44100","-16","experiment","npal","4","2","0","0","1","Eng","41","","odd","6948491","6935971","NA","NA","6951800","6948487","NA","6717985","6948008","6717986","6717985","6847278","6879161","7075289","7073783","7077605","6904920","6887866","6935971","NA","6790524","6830080","6934309","6887642","6948491","6887870","NA","7075289","7075289","NA","NA","7073779","NAP perception","37","56308","39","yes","1024"
"95","yes","95","1475.775","1475.775","white","no","xpyriment","Ich habe die obigen Informationen gelesen und verstanden.","legacy","legacy","0","uniform","1","0","0","undefined","undefined","1","f","2","1","NA","0","1","0","0","0","0","0","0","0","0","49","49","49","0","0","0","NA","0","0","2","0","0","0","2","49","49","49","49","49","Fri Nov  3 12:14:31 2017","Forced-choice identification task with a practice and an experimental phase","yes","NAP_GER_AA_4blocks_noglides.osexp","/Users/aviadalbert/Documents/Academisch/UoC/Dissertation/Experiment/OpenSesame/NAP-FC/NAP_GER_AA_4blocks_noglides","yes","no","sans","no","20","no","black","no","Weiter","yes","768","legacy","39","9","0","/Users/aviadalbert/Documents/Academisch/UoC/Dissertation/Experiment/OpenSesame/NAP-FC/NAP_GER_AA_4blocks_noglides/subject-41.csv","xpyriment","Jazzy James","3.1.9","yes","yes","59a800d99ad5a1025d81bb03","59a801616c613b0251691de0","no","no","0","f","f","space","NA","space","space","f","2723","3308","11982","NA","31879","8414","2723","2","legacy","1024","1","44100","-16","experiment","vzal","4","2","0","0","1","Eng","41","","odd","6948491","6935971","NA","NA","6951800","6948487","NA","6717985","6948008","6717986","6717985","6847278","6879161","7079376","7077872","7082101","6904920","6887866","6935971","NA","6790524","6830080","6934309","6887642","6948491","6887870","NA","7079376","7079376","NA","NA","7077868","NAP perception","38","59031","40","yes","1024"
"95.1219512195","yes","95.1219512195","1468","1468","white","no","xpyriment","Ich habe die obigen Informationen gelesen und verstanden.","legacy","legacy","0","uniform","1","0","0","undefined","undefined","1","j","2","1","NA","0","1","0","0","0","0","0","0","0","0","50","50","50","0","0","0","NA","0","0","2","0","0","0","2","50","50","50","50","50","Fri Nov  3 12:14:31 2017","Forced-choice identification task with a practice and an experimental phase","yes","NAP_GER_AA_4blocks_noglides.osexp","/Users/aviadalbert/Documents/Academisch/UoC/Dissertation/Experiment/OpenSesame/NAP-FC/NAP_GER_AA_4blocks_noglides","yes","no","sans","no","20","no","black","no","Weiter","yes","768","legacy","40","9","0","/Users/aviadalbert/Documents/Academisch/UoC/Dissertation/Experiment/OpenSesame/NAP-FC/NAP_GER_AA_4blocks_noglides/subject-41.csv","xpyriment","Jazzy James","3.1.9","yes","yes","59a800d99ad5a1025d81bb03","59a801616c613b0251691de0","no","no","0","j","f","space","NA","space","space","j","1157","3308","11982","NA","31879","8414","1157","2","legacy","1024","1","44100","-16","experiment","efnal","4","2","0","0","1","Eng","41","","odd","6948491","6935971","NA","NA","6951800","6948487","NA","6717985","6948008","6717986","6717985","6847278","6879161","7083889","7082382","7085048","6904920","6887866","6935971","NA","6790524","6830080","6934309","6887642","6948491","6887870","NA","7083889","7083889","NA","NA","7082378","NAP perception","39","60188","41","yes","1024"
"95.2380952381","yes","95.2380952381","1466.76190476","1466.76190476","white","no","xpyriment","Ich habe die obigen Informationen gelesen und verstanden.","legacy","legacy","0","uniform","1","0","0","undefined","undefined","1","j","2","1","NA","0","1","0","0","0","0","0","0","0","0","51","51","51","0","0","0","NA","0","0","2","0","0","0","2","51","51","51","51","51","Fri Nov  3 12:14:31 2017","Forced-choice identification task with a practice and an experimental phase","yes","NAP_GER_AA_4blocks_noglides.osexp","/Users/aviadalbert/Documents/Academisch/UoC/Dissertation/Experiment/OpenSesame/NAP-FC/NAP_GER_AA_4blocks_noglides","yes","no","sans","no","20","no","black","no","Weiter","yes","768","legacy","41","9","0","/Users/aviadalbert/Documents/Academisch/UoC/Dissertation/Experiment/OpenSesame/NAP-FC/NAP_GER_AA_4blocks_noglides/subject-41.csv","xpyriment","Jazzy James","3.1.9","yes","yes","59a800d99ad5a1025d81bb03","59a801616c613b0251691de0","no","no","0","j","f","space","NA","space","space","j","1416","3308","11982","NA","31879","8414","1416","2","legacy","1024","1","44100","-16","experiment","venal","4","2","0","0","1","Eng","41","","odd","6948491","6935971","NA","NA","6951800","6948487","NA","6717985","6948008","6717986","6717985","6847278","6879161","7086838","7085334","7088256","6904920","6887866","6935971","NA","6790524","6830080","6934309","6887642","6948491","6887870","NA","7086837","7086838","NA","NA","7085329","NAP perception","40","61604","42","yes","1024"
"95.3488372093","yes","95.3488372093","1464.27906977","1464.27906977","white","no","xpyriment","Ich habe die obigen Informationen gelesen und verstanden.","legacy","legacy","0","uniform","1","0","0","undefined","undefined","1","j","2","1","NA","0","1","0","0","0","0","0","0","0","0","52","52","52","0","0","0","NA","0","0","2","0","0","0","2","52","52","52","52","52","Fri Nov  3 12:14:31 2017","Forced-choice identification task with a practice and an experimental phase","yes","NAP_GER_AA_4blocks_noglides.osexp","/Users/aviadalbert/Documents/Academisch/UoC/Dissertation/Experiment/OpenSesame/NAP-FC/NAP_GER_AA_4blocks_noglides","yes","no","sans","no","20","no","black","no","Weiter","yes","768","legacy","42","9","0","/Users/aviadalbert/Documents/Academisch/UoC/Dissertation/Experiment/OpenSesame/NAP-FC/NAP_GER_AA_4blocks_noglides/subject-41.csv","xpyriment","Jazzy James","3.1.9","yes","yes","59a800d99ad5a1025d81bb03","59a801616c613b0251691de0","no","no","0","j","f","space","NA","space","space","j","1360","3308","11982","NA","31879","8414","1360","2","legacy","1024","1","44100","-16","experiment","evlal","4","2","0","0","1","Eng","41","","odd","6948491","6935971","NA","NA","6951800","6948487","NA","6717985","6948008","6717986","6717985","6847278","6879161","7090030","7088527","7091391","6904920","6887866","6935971","NA","6790524","6830080","6934309","6887642","6948491","6887870","NA","7090030","7090030","NA","NA","7088523","NAP perception","41","62964","43","yes","1024"
"95.4545454545","yes","95.4545454545","1464.65909091","1464.65909091","white","no","xpyriment","Ich habe die obigen Informationen gelesen und verstanden.","legacy","legacy","0","uniform","1","0","0","undefined","undefined","1","j","2","1","NA","0","1","0","0","0","0","0","0","0","0","53","53","53","0","0","0","NA","0","0","2","0","0","0","2","53","53","53","53","53","Fri Nov  3 12:14:31 2017","Forced-choice identification task with a practice and an experimental phase","yes","NAP_GER_AA_4blocks_noglides.osexp","/Users/aviadalbert/Documents/Academisch/UoC/Dissertation/Experiment/OpenSesame/NAP-FC/NAP_GER_AA_4blocks_noglides","yes","no","sans","no","20","no","black","no","Weiter","yes","768","legacy","43","9","0","/Users/aviadalbert/Documents/Academisch/UoC/Dissertation/Experiment/OpenSesame/NAP-FC/NAP_GER_AA_4blocks_noglides/subject-41.csv","xpyriment","Jazzy James","3.1.9","yes","yes","59a800d99ad5a1025d81bb03","59a801616c613b0251691de0","no","no","0","j","f","space","NA","space","space","j","1481","3308","11982","NA","31879","8414","1481","2","legacy","1024","1","44100","-16","experiment","eflal","4","2","0","0","1","Eng","41","","odd","6948491","6935971","NA","NA","6951800","6948487","NA","6717985","6948008","6717986","6717985","6847278","6879161","7093167","7091664","7094649","6904920","6887866","6935971","NA","6790524","6830080","6934309","6887642","6948491","6887870","NA","7093167","7093167","NA","NA","7091660","NAP perception","42","64445","44","yes","1024"
"95.5555555556","yes","95.5555555556","1452.97777778","1452.97777778","white","no","xpyriment","Ich habe die obigen Informationen gelesen und verstanden.","legacy","legacy","0","uniform","1","0","0","undefined","undefined","1","j","2","1","NA","0","1","0","0","0","0","0","0","0","0","54","54","54","0","0","0","NA","0","0","2","0","0","0","2","54","54","54","54","54","Fri Nov  3 12:14:31 2017","Forced-choice identification task with a practice and an experimental phase","yes","NAP_GER_AA_4blocks_noglides.osexp","/Users/aviadalbert/Documents/Academisch/UoC/Dissertation/Experiment/OpenSesame/NAP-FC/NAP_GER_AA_4blocks_noglides","yes","no","sans","no","20","no","black","no","Weiter","yes","768","legacy","44","9","0","/Users/aviadalbert/Documents/Academisch/UoC/Dissertation/Experiment/OpenSesame/NAP-FC/NAP_GER_AA_4blocks_noglides/subject-41.csv","xpyriment","Jazzy James","3.1.9","yes","yes","59a800d99ad5a1025d81bb03","59a801616c613b0251691de0","no","no","0","j","f","space","NA","space","space","j","939","3308","11982","NA","31879","8414","939","2","legacy","1024","1","44100","-16","experiment","melal","4","2","0","0","1","Eng","41","","odd","6948491","6935971","NA","NA","6951800","6948487","NA","6717985","6948008","6717986","6717985","6847278","6879161","7096438","7094931","7097378","6904920","6887866","6935971","NA","6790524","6830080","6934309","6887642","6948491","6887870","NA","7096438","7096438","NA","NA","7094927","NAP perception","43","65384","45","yes","1024"
"95.652173913","yes","95.652173913","1448.47826087","1448.47826087","white","no","xpyriment","Ich habe die obigen Informationen gelesen und verstanden.","legacy","legacy","0","uniform","1","0","0","undefined","undefined","1","j","2","1","NA","0","1","0","0","0","0","0","0","0","0","55","55","55","0","0","0","NA","0","0","2","0","0","0","2","55","55","55","55","55","Fri Nov  3 12:14:31 2017","Forced-choice identification task with a practice and an experimental phase","yes","NAP_GER_AA_4blocks_noglides.osexp","/Users/aviadalbert/Documents/Academisch/UoC/Dissertation/Experiment/OpenSesame/NAP-FC/NAP_GER_AA_4blocks_noglides","yes","no","sans","no","20","no","black","no","Weiter","yes","768","legacy","45","9","0","/Users/aviadalbert/Documents/Academisch/UoC/Dissertation/Experiment/OpenSesame/NAP-FC/NAP_GER_AA_4blocks_noglides/subject-41.csv","xpyriment","Jazzy James","3.1.9","yes","yes","59a800d99ad5a1025d81bb03","59a801616c613b0251691de0","no","no","0","j","f","space","NA","space","space","j","1246","3308","11982","NA","31879","8414","1246","2","legacy","1024","1","44100","-16","experiment","eʃfal","4","2","0","0","1","Eng","41","","odd","6948491","6935971","NA","NA","6951800","6948487","NA","6717985","6948008","6717986","6717985","6847278","6879161","7099141","7097636","7100388","6904920","6887866","6935971","NA","6790524","6830080","6934309","6887642","6948491","6887870","NA","7099141","7099141","NA","NA","7097632","NAP perception","44","66630","46","yes","1024"
"95.7446808511","yes","95.7446808511","1443.29787234","1443.29787234","white","no","xpyriment","Ich habe die obigen Informationen gelesen und verstanden.","legacy","legacy","0","uniform","1","0","0","undefined","undefined","1","f","2","1","NA","0","1","0","0","0","0","0","0","0","0","56","56","56","0","0","0","NA","0","0","2","0","0","0","2","56","56","56","56","56","Fri Nov  3 12:14:31 2017","Forced-choice identification task with a practice and an experimental phase","yes","NAP_GER_AA_4blocks_noglides.osexp","/Users/aviadalbert/Documents/Academisch/UoC/Dissertation/Experiment/OpenSesame/NAP-FC/NAP_GER_AA_4blocks_noglides","yes","no","sans","no","20","no","black","no","Weiter","yes","768","legacy","46","9","0","/Users/aviadalbert/Documents/Academisch/UoC/Dissertation/Experiment/OpenSesame/NAP-FC/NAP_GER_AA_4blocks_noglides/subject-41.csv","xpyriment","Jazzy James","3.1.9","yes","yes","59a800d99ad5a1025d81bb03","59a801616c613b0251691de0","no","no","0","f","f","space","NA","space","space","f","1205","3308","11982","NA","31879","8414","1205","2","legacy","1024","1","44100","-16","experiment","lval","4","2","0","0","1","Eng","41","","odd","6948491","6935971","NA","NA","6951800","6948487","NA","6717985","6948008","6717986","6717985","6847278","6879161","7102163","7100657","7103370","6904920","6887866","6935971","NA","6790524","6830080","6934309","6887642","6948491","6887870","NA","7102162","7102162","NA","NA","7100653","NAP perception","45","67835","47","yes","1024"
"95.8333333333","yes","95.8333333333","1449.33333333","1449.33333333","white","no","xpyriment","Ich habe die obigen Informationen gelesen und verstanden.","legacy","legacy","0","uniform","1","0","0","undefined","undefined","1","j","2","1","NA","0","1","0","0","0","0","0","0","0","0","57","57","57","0","0","0","NA","0","0","2","0","0","0","2","57","57","57","57","57","Fri Nov  3 12:14:31 2017","Forced-choice identification task with a practice and an experimental phase","yes","NAP_GER_AA_4blocks_noglides.osexp","/Users/aviadalbert/Documents/Academisch/UoC/Dissertation/Experiment/OpenSesame/NAP-FC/NAP_GER_AA_4blocks_noglides","yes","no","sans","no","20","no","black","no","Weiter","yes","768","legacy","47","9","0","/Users/aviadalbert/Documents/Academisch/UoC/Dissertation/Experiment/OpenSesame/NAP-FC/NAP_GER_AA_4blocks_noglides/subject-41.csv","xpyriment","Jazzy James","3.1.9","yes","yes","59a800d99ad5a1025d81bb03","59a801616c613b0251691de0","no","no","0","j","f","space","NA","space","space","j","1733","3308","11982","NA","31879","8414","1733","2","legacy","1024","1","44100","-16","experiment","emsal","4","2","0","0","1","Eng","41","","odd","6948491","6935971","NA","NA","6951800","6948487","NA","6717985","6948008","6717986","6717985","6847278","6879161","7105145","7103641","7106880","6904920","6887866","6935971","NA","6790524","6830080","6934309","6887642","6948491","6887870","NA","7105144","7105145","NA","NA","7103637","NAP perception","46","69568","48","yes","1024"
"95.9183673469","yes","95.9183673469","1454.69387755","1454.69387755","white","no","xpyriment","Ich habe die obigen Informationen gelesen und verstanden.","legacy","legacy","0","uniform","1","0","0","undefined","undefined","1","j","2","1","NA","0","1","0","0","0","0","0","0","0","0","58","58","58","0","0","0","NA","0","0","2","0","0","0","2","58","58","58","58","58","Fri Nov  3 12:14:31 2017","Forced-choice identification task with a practice and an experimental phase","yes","NAP_GER_AA_4blocks_noglides.osexp","/Users/aviadalbert/Documents/Academisch/UoC/Dissertation/Experiment/OpenSesame/NAP-FC/NAP_GER_AA_4blocks_noglides","yes","no","sans","no","20","no","black","no","Weiter","yes","768","legacy","48","9","0","/Users/aviadalbert/Documents/Academisch/UoC/Dissertation/Experiment/OpenSesame/NAP-FC/NAP_GER_AA_4blocks_noglides/subject-41.csv","xpyriment","Jazzy James","3.1.9","yes","yes","59a800d99ad5a1025d81bb03","59a801616c613b0251691de0","no","no","0","j","f","space","NA","space","space","j","1712","3308","11982","NA","31879","8414","1712","2","legacy","1024","1","44100","-16","experiment","elval","4","2","0","0","1","Eng","41","","odd","6948491","6935971","NA","NA","6951800","6948487","NA","6717985","6948008","6717986","6717985","6847278","6879161","7108665","7107161","7110379","6904920","6887866","6935971","NA","6790524","6830080","6934309","6887642","6948491","6887870","NA","7108665","7108665","NA","NA","7107157","NAP perception","47","71280","49","yes","1024"
"96","yes","96","1447.58","1447.58","white","no","xpyriment","Ich habe die obigen Informationen gelesen und verstanden.","legacy","legacy","0","uniform","1","0","0","undefined","undefined","1","f","2","1","NA","0","1","0","0","0","0","0","0","0","0","59","59","59","0","0","0","NA","0","0","2","0","0","0","2","59","59","59","59","59","Fri Nov  3 12:14:31 2017","Forced-choice identification task with a practice and an experimental phase","yes","NAP_GER_AA_4blocks_noglides.osexp","/Users/aviadalbert/Documents/Academisch/UoC/Dissertation/Experiment/OpenSesame/NAP-FC/NAP_GER_AA_4blocks_noglides","yes","no","sans","no","20","no","black","no","Weiter","yes","768","legacy","49","9","0","/Users/aviadalbert/Documents/Academisch/UoC/Dissertation/Experiment/OpenSesame/NAP-FC/NAP_GER_AA_4blocks_noglides/subject-41.csv","xpyriment","Jazzy James","3.1.9","yes","yes","59a800d99ad5a1025d81bb03","59a801616c613b0251691de0","no","no","0","f","f","space","NA","space","space","f","1099","3308","11982","NA","31879","8414","1099","2","legacy","1024","1","44100","-16","experiment","zval","4","2","0","0","1","Eng","41","","odd","6948491","6935971","NA","NA","6951800","6948487","NA","6717985","6948008","6717986","6717985","6847278","6879161","7112169","7110663","7113270","6904920","6887866","6935971","NA","6790524","6830080","6934309","6887642","6948491","6887870","NA","7112169","7112169","NA","NA","7110660","NAP perception","48","72379","50","yes","1024"
"96.0784313725","yes","96.0784313725","1436.88235294","1436.88235294","white","no","xpyriment","Ich habe die obigen Informationen gelesen und verstanden.","legacy","legacy","0","uniform","1","0","0","undefined","undefined","1","f","2","1","NA","0","1","0","0","0","0","0","0","0","0","60","60","60","0","0","0","NA","0","0","2","0","0","0","2","60","60","60","60","60","Fri Nov  3 12:14:31 2017","Forced-choice identification task with a practice and an experimental phase","yes","NAP_GER_AA_4blocks_noglides.osexp","/Users/aviadalbert/Documents/Academisch/UoC/Dissertation/Experiment/OpenSesame/NAP-FC/NAP_GER_AA_4blocks_noglides","yes","no","sans","no","20","no","black","no","Weiter","yes","768","legacy","50","9","0","/Users/aviadalbert/Documents/Academisch/UoC/Dissertation/Experiment/OpenSesame/NAP-FC/NAP_GER_AA_4blocks_noglides/subject-41.csv","xpyriment","Jazzy James","3.1.9","yes","yes","59a800d99ad5a1025d81bb03","59a801616c613b0251691de0","no","no","0","f","f","space","NA","space","space","f","902","3308","11982","NA","31879","8414","902","2","legacy","1024","1","44100","-16","experiment","sfal","4","2","0","0","1","Eng","41","","odd","6948491","6935971","NA","NA","6951800","6948487","NA","6717985","6948008","6717986","6717985","6847278","6879161","7115060","7113556","7115964","6904920","6887866","6935971","NA","6790524","6830080","6934309","6887642","6948491","6887870","NA","7115059","7115059","NA","NA","7113552","NAP perception","49","73281","51","yes","1024"
"96.1538461538","yes","96.1538461538","1427.03846154","1427.03846154","white","no","xpyriment","Ich habe die obigen Informationen gelesen und verstanden.","legacy","legacy","0","uniform","1","0","0","undefined","undefined","1","f","2","1","NA","0","1","0","0","0","0","0","0","0","0","61","61","61","0","0","0","NA","0","0","2","0","0","0","2","61","61","61","61","61","Fri Nov  3 12:14:31 2017","Forced-choice identification task with a practice and an experimental phase","yes","NAP_GER_AA_4blocks_noglides.osexp","/Users/aviadalbert/Documents/Academisch/UoC/Dissertation/Experiment/OpenSesame/NAP-FC/NAP_GER_AA_4blocks_noglides","yes","no","sans","no","20","no","black","no","Weiter","yes","768","legacy","51","9","0","/Users/aviadalbert/Documents/Academisch/UoC/Dissertation/Experiment/OpenSesame/NAP-FC/NAP_GER_AA_4blocks_noglides/subject-41.csv","xpyriment","Jazzy James","3.1.9","yes","yes","59a800d99ad5a1025d81bb03","59a801616c613b0251691de0","no","no","0","f","f","space","NA","space","space","f","925","3308","11982","NA","31879","8414","925","2","legacy","1024","1","44100","-16","experiment","vlal","4","2","0","0","1","Eng","41","","odd","6948491","6935971","NA","NA","6951800","6948487","NA","6717985","6948008","6717986","6717985","6847278","6879161","7117733","7116228","7118659","6904920","6887866","6935971","NA","6790524","6830080","6934309","6887642","6948491","6887870","NA","7117733","7117733","NA","NA","7116224","NAP perception","50","74206","52","yes","1024"
"96.2264150943","yes","96.2264150943","1428.96226415","1428.96226415","white","no","xpyriment","Ich habe die obigen Informationen gelesen und verstanden.","legacy","legacy","0","uniform","1","0","0","undefined","undefined","1","f","2","1","NA","0","1","0","0","0","0","0","0","0","0","62","62","62","0","0","0","NA","0","0","2","0","0","0","2","62","62","62","62","62","Fri Nov  3 12:14:31 2017","Forced-choice identification task with a practice and an experimental phase","yes","NAP_GER_AA_4blocks_noglides.osexp","/Users/aviadalbert/Documents/Academisch/UoC/Dissertation/Experiment/OpenSesame/NAP-FC/NAP_GER_AA_4blocks_noglides","yes","no","sans","no","20","no","black","no","Weiter","yes","768","legacy","52","9","0","/Users/aviadalbert/Documents/Academisch/UoC/Dissertation/Experiment/OpenSesame/NAP-FC/NAP_GER_AA_4blocks_noglides/subject-41.csv","xpyriment","Jazzy James","3.1.9","yes","yes","59a800d99ad5a1025d81bb03","59a801616c613b0251691de0","no","no","0","f","f","space","NA","space","space","f","1529","3308","11982","NA","31879","8414","1529","2","legacy","1024","1","44100","-16","experiment","lpal","4","2","0","0","1","Eng","41","","odd","6948491","6935971","NA","NA","6951800","6948487","NA","6717985","6948008","6717986","6717985","6847278","6879161","7120448","7118941","7121978","6904920","6887866","6935971","NA","6790524","6830080","6934309","6887642","6948491","6887870","NA","7120447","7120447","NA","NA","7118938","NAP perception","51","75735","53","yes","1024"
"94.4444444444","yes","94.4444444444","1439.24074074","1439.24074074","white","no","xpyriment","Ich habe die obigen Informationen gelesen und verstanden.","legacy","legacy","0","uniform","0","0","0","undefined","undefined","0","f","2","1","NA","0","1","0","0","0","0","0","0","0","0","63","63","63","0","0","0","NA","0","0","2","0","0","0","2","63","63","63","63","63","Fri Nov  3 12:14:31 2017","Forced-choice identification task with a practice and an experimental phase","yes","NAP_GER_AA_4blocks_noglides.osexp","/Users/aviadalbert/Documents/Academisch/UoC/Dissertation/Experiment/OpenSesame/NAP-FC/NAP_GER_AA_4blocks_noglides","yes","no","sans","no","20","no","black","no","Weiter","yes","768","legacy","53","9","0","/Users/aviadalbert/Documents/Academisch/UoC/Dissertation/Experiment/OpenSesame/NAP-FC/NAP_GER_AA_4blocks_noglides/subject-41.csv","xpyriment","Jazzy James","3.1.9","yes","yes","59a800d99ad5a1025d81bb03","59a801616c613b0251691de0","no","no","0","j","f","space","NA","space","space","j","1984","3308","11982","NA","31879","8414","1984","2","legacy","1024","1","44100","-16","experiment","nfal","4","2","0","0","1","Eng","41","","odd","6948491","6935971","NA","NA","6951800","6948487","NA","6717985","6948008","6717986","6717985","6847278","6879161","7123761","7122257","7125746","6904920","6887866","6935971","NA","6790524","6830080","6934309","6887642","6948491","6887870","NA","7123761","7123761","NA","NA","7122253","NAP perception","51","77719","54","yes","1024"
"94.5454545455","yes","94.5454545455","1449.83636364","1449.83636364","white","no","xpyriment","Ich habe die obigen Informationen gelesen und verstanden.","legacy","legacy","0","uniform","1","0","0","undefined","undefined","1","f","2","1","NA","0","1","0","0","0","0","0","0","0","0","64","64","64","0","0","0","NA","0","0","2","0","0","0","2","64","64","64","64","64","Fri Nov  3 12:14:31 2017","Forced-choice identification task with a practice and an experimental phase","yes","NAP_GER_AA_4blocks_noglides.osexp","/Users/aviadalbert/Documents/Academisch/UoC/Dissertation/Experiment/OpenSesame/NAP-FC/NAP_GER_AA_4blocks_noglides","yes","no","sans","no","20","no","black","no","Weiter","yes","768","legacy","54","9","0","/Users/aviadalbert/Documents/Academisch/UoC/Dissertation/Experiment/OpenSesame/NAP-FC/NAP_GER_AA_4blocks_noglides/subject-41.csv","xpyriment","Jazzy James","3.1.9","yes","yes","59a800d99ad5a1025d81bb03","59a801616c613b0251691de0","no","no","0","f","f","space","NA","space","space","f","2022","3308","11982","NA","31879","8414","2022","2","legacy","1024","1","44100","-16","experiment","lkal","4","2","0","0","1","Eng","41","","odd","6948491","6935971","NA","NA","6951800","6948487","NA","6717985","6948008","6717986","6717985","6847278","6879161","7127520","7126015","7129544","6904920","6887866","6935971","NA","6790524","6830080","6934309","6887642","6948491","6887870","NA","7127520","7127520","NA","NA","7126011","NAP perception","52","79741","55","yes","1024"
