"acc","accept_status","accuracy","average_response_time","avg_rt","background","bidi","canvas_backend","checkbox_status","clock_backend","color_backend","compensation","coordinates","correct","correct_block_activation","correct_block_exit","correct_instructions_1","correct_instructions_2","correct_keyboard_response","correct_response","count_block_activation","count_block_exit","count_block_info_QA","count_cont_e_block_message","count_e_block_loop","count_e_block_sequence","count_end_of_experiment","count_experiment","count_experimental_loop","count_form_consent","count_info_forms","count_instructions_1","count_instructions_2","count_keyboard_response","count_listen_message","count_logger","count_p_block_loop","count_p_block_sequence","count_p_feedback","count_pause_feedback","count_personal_details_form_1","count_personal_details_form_2","count_post_loop_blank","count_practice_loop","count_pre_e_block_message","count_pre_p_block_message","count_reset_feedback","count_stimulus_image","count_stimulus_sound","count_timeout_message","count_timeout_sound","count_trial_sequence","datetime","description","disable_garbage_collection","experiment_file","experiment_path","expyriment_opengl","font_bold","font_family","font_italic","font_size","font_underline","foreground","form_clicks","form_response","fullscreen","height","keyboard_backend","live_row","live_row_p_block_loop","live_row_practice_loop","logfile","mouse_backend","opensesame_codename","opensesame_version","osf_always_upload_data","osf_always_upload_experiment","osf_datanode_id","osf_id","practice","pygame_doublebuf","repeat_cycle","response","response_block_activation","response_block_exit","response_block_info_QA","response_instructions_1","response_instructions_2","response_keyboard_response","response_time","response_time_block_activation","response_time_block_exit","response_time_block_info_QA","response_time_instructions_1","response_time_instructions_2","response_time_keyboard_response","round_decimals","sampler_backend","sound_buf_size","sound_channels","sound_freq","sound_sample_size","start","stimulus","subject_age","subject_education","subject_gender","subject_german_native","subject_handedness","subject_language_other","subject_nr","subject_other_native_lang","subject_parity","time_block_activation","time_block_exit","time_block_info_QA","time_cont_e_block_message","time_e_block_loop","time_e_block_sequence","time_end_of_experiment","time_experiment","time_experimental_loop","time_form_consent","time_info_forms","time_instructions_1","time_instructions_2","time_keyboard_response","time_listen_message","time_logger","time_p_block_loop","time_p_block_sequence","time_p_feedback","time_pause_feedback","time_personal_details_form_1","time_personal_details_form_2","time_post_loop_blank","time_practice_loop","time_pre_e_block_message","time_pre_p_block_message","time_reset_feedback","time_stimulus_image","time_stimulus_sound","time_timeout_message","time_timeout_sound","time_trial_sequence","title","total_correct","total_response_time","total_responses","uniform_coordinates","width"
"100","yes","100","2866","2866","white","no","xpyriment","Ich habe die obigen Informationen gelesen und verstanden.","legacy","legacy","0","uniform","1","0","NA","undefined","undefined","1","f","0","0","NA","NA","NA","NA","NA","0","0","0","0","0","0","0","0","0","0","0","NA","NA","0","0","0","0","NA","0","0","0","0","0","0","0","Wed Oct  4 16:03:05 2017","Forced-choice identification task with a practice and an experimental phase","yes","NAP_GER_AA_4blocks_noglides.osexp","/Users/aviadalbert/Documents/Academisch/UoC/Dissertation/Experiment/OpenSesame/NAP-FC/NAP_GER_AA_4blocks_noglides","yes","no","sans","no","20","no","black","no","Weiter","yes","768","legacy","0","0","0","/Users/aviadalbert/Documents/Academisch/UoC/Dissertation/Experiment/OpenSesame/NAP-FC/NAP_GER_AA_4blocks_noglides/subject-4.csv","xpyriment","Jazzy James","3.1.9","yes","yes","59a800d99ad5a1025d81bb03","59a801616c613b0251691de0","yes","no","0","f","f","NA","NA","return","return","f","2866","14119","NA","NA","22611","8844","2866","2","legacy","1024","1","44100","-16","experiment","flal","3","1","2","0","1","english","4","","even","11013198","NA","NA","NA","NA","NA","NA","8654139","NA","8654140","8654140","10981448","11004063","11029019","11027515","11031886","11027318","11013194","NA","NA","10920060","10949708","NA","11012974","NA","11013198","NA","11029018","11029018","NA","NA","11027511","NAP perception","1","2866","1","yes","1024"
"100","yes","100","2017","2017","white","no","xpyriment","Ich habe die obigen Informationen gelesen und verstanden.","legacy","legacy","0","uniform","1","0","NA","undefined","undefined","1","j","0","0","NA","NA","NA","NA","NA","0","0","0","0","0","0","1","1","1","0","0","NA","NA","0","0","0","0","NA","0","0","1","1","1","1","1","Wed Oct  4 16:03:05 2017","Forced-choice identification task with a practice and an experimental phase","yes","NAP_GER_AA_4blocks_noglides.osexp","/Users/aviadalbert/Documents/Academisch/UoC/Dissertation/Experiment/OpenSesame/NAP-FC/NAP_GER_AA_4blocks_noglides","yes","no","sans","no","20","no","black","no","Weiter","yes","768","legacy","1","1","0","/Users/aviadalbert/Documents/Academisch/UoC/Dissertation/Experiment/OpenSesame/NAP-FC/NAP_GER_AA_4blocks_noglides/subject-4.csv","xpyriment","Jazzy James","3.1.9","yes","yes","59a800d99ad5a1025d81bb03","59a801616c613b0251691de0","yes","no","0","j","f","NA","NA","return","return","j","1168","14119","NA","NA","22611","8844","1168","2","legacy","1024","1","44100","-16","experiment","lepal","3","1","2","0","1","english","4","","even","11013198","NA","NA","NA","NA","NA","NA","8654139","NA","8654140","8654140","10981448","11004063","11033663","11032157","11034833","11027318","11013194","NA","NA","10920060","10949708","NA","11012974","NA","11013198","NA","11033662","11033662","NA","NA","11032153","NAP perception","2","4034","2","yes","1024"
"100","yes","100","1633","1633","white","no","xpyriment","Ich habe die obigen Informationen gelesen und verstanden.","legacy","legacy","0","uniform","1","0","NA","undefined","undefined","1","j","0","0","NA","NA","NA","NA","NA","0","0","0","0","0","0","2","2","2","0","0","NA","NA","0","0","0","0","NA","0","0","2","2","2","2","2","Wed Oct  4 16:03:05 2017","Forced-choice identification task with a practice and an experimental phase","yes","NAP_GER_AA_4blocks_noglides.osexp","/Users/aviadalbert/Documents/Academisch/UoC/Dissertation/Experiment/OpenSesame/NAP-FC/NAP_GER_AA_4blocks_noglides","yes","no","sans","no","20","no","black","no","Weiter","yes","768","legacy","2","2","0","/Users/aviadalbert/Documents/Academisch/UoC/Dissertation/Experiment/OpenSesame/NAP-FC/NAP_GER_AA_4blocks_noglides/subject-4.csv","xpyriment","Jazzy James","3.1.9","yes","yes","59a800d99ad5a1025d81bb03","59a801616c613b0251691de0","yes","no","0","j","f","NA","NA","return","return","j","865","14119","NA","NA","22611","8844","865","2","legacy","1024","1","44100","-16","experiment","emtal","3","1","2","0","1","english","4","","even","11013198","NA","NA","NA","NA","NA","NA","8654139","NA","8654140","8654140","10981448","11004063","11036630","11035125","11037497","11027318","11013194","NA","NA","10920060","10949708","NA","11012974","NA","11013198","NA","11036629","11036629","NA","NA","11035121","NAP perception","3","4899","3","yes","1024"
"100","yes","100","1486.25","1486.25","white","no","xpyriment","Ich habe die obigen Informationen gelesen und verstanden.","legacy","legacy","0","uniform","1","0","NA","undefined","undefined","1","f","0","0","NA","NA","NA","NA","NA","0","0","0","0","0","0","3","3","3","0","0","NA","NA","0","0","0","0","NA","0","0","3","3","3","3","3","Wed Oct  4 16:03:05 2017","Forced-choice identification task with a practice and an experimental phase","yes","NAP_GER_AA_4blocks_noglides.osexp","/Users/aviadalbert/Documents/Academisch/UoC/Dissertation/Experiment/OpenSesame/NAP-FC/NAP_GER_AA_4blocks_noglides","yes","no","sans","no","20","no","black","no","Weiter","yes","768","legacy","3","3","0","/Users/aviadalbert/Documents/Academisch/UoC/Dissertation/Experiment/OpenSesame/NAP-FC/NAP_GER_AA_4blocks_noglides/subject-4.csv","xpyriment","Jazzy James","3.1.9","yes","yes","59a800d99ad5a1025d81bb03","59a801616c613b0251691de0","yes","no","0","f","f","NA","NA","return","return","f","1046","14119","NA","NA","22611","8844","1046","2","legacy","1024","1","44100","-16","experiment","ʃpal","3","1","2","0","1","english","4","","even","11013198","NA","NA","NA","NA","NA","NA","8654139","NA","8654140","8654140","10981448","11004063","11039278","11037774","11040325","11027318","11013194","NA","NA","10920060","10949708","NA","11012974","NA","11013198","NA","11039277","11039277","NA","NA","11037770","NAP perception","4","5945","4","yes","1024"
"100","yes","100","1354.8","1354.8","white","no","xpyriment","Ich habe die obigen Informationen gelesen und verstanden.","legacy","legacy","0","uniform","1","0","NA","undefined","undefined","1","j","0","0","NA","NA","NA","NA","NA","0","0","0","0","0","0","4","4","4","0","0","NA","NA","0","0","0","0","NA","0","0","4","4","4","4","4","Wed Oct  4 16:03:05 2017","Forced-choice identification task with a practice and an experimental phase","yes","NAP_GER_AA_4blocks_noglides.osexp","/Users/aviadalbert/Documents/Academisch/UoC/Dissertation/Experiment/OpenSesame/NAP-FC/NAP_GER_AA_4blocks_noglides","yes","no","sans","no","20","no","black","no","Weiter","yes","768","legacy","4","4","0","/Users/aviadalbert/Documents/Academisch/UoC/Dissertation/Experiment/OpenSesame/NAP-FC/NAP_GER_AA_4blocks_noglides/subject-4.csv","xpyriment","Jazzy James","3.1.9","yes","yes","59a800d99ad5a1025d81bb03","59a801616c613b0251691de0","yes","no","0","j","f","NA","NA","return","return","j","829","14119","NA","NA","22611","8844","829","2","legacy","1024","1","44100","-16","experiment","nefal","3","1","2","0","1","english","4","","even","11013198","NA","NA","NA","NA","NA","NA","8654139","NA","8654140","8654140","10981448","11004063","11042110","11040606","11042940","11027318","11013194","NA","NA","10920060","10949708","NA","11012974","NA","11013198","NA","11042109","11042109","NA","NA","11040602","NAP perception","5","6774","5","yes","1024"
"100","yes","100","1314.83333333","1314.83333333","white","no","xpyriment","Ich habe die obigen Informationen gelesen und verstanden.","legacy","legacy","0","uniform","1","0","NA","undefined","undefined","1","f","0","0","NA","NA","NA","NA","NA","0","0","0","0","0","0","5","5","5","0","0","NA","NA","0","0","0","0","NA","0","0","5","5","5","5","5","Wed Oct  4 16:03:05 2017","Forced-choice identification task with a practice and an experimental phase","yes","NAP_GER_AA_4blocks_noglides.osexp","/Users/aviadalbert/Documents/Academisch/UoC/Dissertation/Experiment/OpenSesame/NAP-FC/NAP_GER_AA_4blocks_noglides","yes","no","sans","no","20","no","black","no","Weiter","yes","768","legacy","5","5","0","/Users/aviadalbert/Documents/Academisch/UoC/Dissertation/Experiment/OpenSesame/NAP-FC/NAP_GER_AA_4blocks_noglides/subject-4.csv","xpyriment","Jazzy James","3.1.9","yes","yes","59a800d99ad5a1025d81bb03","59a801616c613b0251691de0","yes","no","0","f","f","NA","NA","return","return","f","1115","14119","NA","NA","22611","8844","1115","2","legacy","1024","1","44100","-16","experiment","sfal","3","1","2","0","1","english","4","","even","11013198","NA","NA","NA","NA","NA","NA","8654139","NA","8654140","8654140","10981448","11004063","11044728","11043222","11045844","11027318","11013194","NA","NA","10920060","10949708","NA","11012974","NA","11013198","NA","11044727","11044728","NA","NA","11043218","NAP perception","6","7889","6","yes","1024"
"85.7142857143","yes","85.7142857143","1276.71428571","1276.71428571","white","no","xpyriment","Ich habe die obigen Informationen gelesen und verstanden.","legacy","legacy","0","uniform","0","0","NA","undefined","undefined","0","f","0","0","NA","NA","NA","NA","NA","0","0","0","0","0","0","6","6","6","0","0","NA","NA","0","0","0","0","NA","0","0","6","6","6","6","6","Wed Oct  4 16:03:05 2017","Forced-choice identification task with a practice and an experimental phase","yes","NAP_GER_AA_4blocks_noglides.osexp","/Users/aviadalbert/Documents/Academisch/UoC/Dissertation/Experiment/OpenSesame/NAP-FC/NAP_GER_AA_4blocks_noglides","yes","no","sans","no","20","no","black","no","Weiter","yes","768","legacy","6","6","0","/Users/aviadalbert/Documents/Academisch/UoC/Dissertation/Experiment/OpenSesame/NAP-FC/NAP_GER_AA_4blocks_noglides/subject-4.csv","xpyriment","Jazzy James","3.1.9","yes","yes","59a800d99ad5a1025d81bb03","59a801616c613b0251691de0","yes","no","0","j","f","NA","NA","return","return","j","1048","14119","NA","NA","22611","8844","1048","2","legacy","1024","1","44100","-16","experiment","zmal","3","1","2","0","1","english","4","","even","11013198","NA","NA","NA","NA","NA","NA","8654139","NA","8654140","8654140","10981448","11004063","11047619","11046111","11048668","11027318","11013194","NA","NA","10920060","10949708","NA","11012974","NA","11013198","NA","11047619","11047619","NA","NA","11046107","NAP perception","6","8937","7","yes","1024"
"87.5","yes","87.5","1224.75","1224.75","white","no","xpyriment","Ich habe die obigen Informationen gelesen und verstanden.","legacy","legacy","0","uniform","1","0","NA","undefined","undefined","1","j","0","0","NA","NA","NA","NA","NA","0","0","0","0","0","0","7","7","7","0","0","NA","NA","0","0","0","0","NA","0","0","7","7","7","7","7","Wed Oct  4 16:03:05 2017","Forced-choice identification task with a practice and an experimental phase","yes","NAP_GER_AA_4blocks_noglides.osexp","/Users/aviadalbert/Documents/Academisch/UoC/Dissertation/Experiment/OpenSesame/NAP-FC/NAP_GER_AA_4blocks_noglides","yes","no","sans","no","20","no","black","no","Weiter","yes","768","legacy","7","7","0","/Users/aviadalbert/Documents/Academisch/UoC/Dissertation/Experiment/OpenSesame/NAP-FC/NAP_GER_AA_4blocks_noglides/subject-4.csv","xpyriment","Jazzy James","3.1.9","yes","yes","59a800d99ad5a1025d81bb03","59a801616c613b0251691de0","yes","no","0","j","f","NA","NA","return","return","j","861","14119","NA","NA","22611","8844","861","2","legacy","1024","1","44100","-16","experiment","mesal","3","1","2","0","1","english","4","","even","11013198","NA","NA","NA","NA","NA","NA","8654139","NA","8654140","8654140","10981448","11004063","11050452","11048945","11051314","11027318","11013194","NA","NA","10920060","10949708","NA","11012974","NA","11013198","NA","11050452","11050452","NA","NA","11048941","NAP perception","7","9798","8","yes","1024"
"88.8888888889","yes","88.8888888889","1161.66666667","1161.66666667","white","no","xpyriment","Ich habe die obigen Informationen gelesen und verstanden.","legacy","legacy","0","uniform","1","0","NA","undefined","undefined","1","j","0","0","NA","NA","NA","NA","NA","0","0","0","0","0","0","8","8","8","0","0","NA","NA","0","0","0","0","NA","0","0","8","8","8","8","8","Wed Oct  4 16:03:05 2017","Forced-choice identification task with a practice and an experimental phase","yes","NAP_GER_AA_4blocks_noglides.osexp","/Users/aviadalbert/Documents/Academisch/UoC/Dissertation/Experiment/OpenSesame/NAP-FC/NAP_GER_AA_4blocks_noglides","yes","no","sans","no","20","no","black","no","Weiter","yes","768","legacy","8","8","0","/Users/aviadalbert/Documents/Academisch/UoC/Dissertation/Experiment/OpenSesame/NAP-FC/NAP_GER_AA_4blocks_noglides/subject-4.csv","xpyriment","Jazzy James","3.1.9","yes","yes","59a800d99ad5a1025d81bb03","59a801616c613b0251691de0","yes","no","0","j","f","NA","NA","return","return","j","657","14119","NA","NA","22611","8844","657","2","legacy","1024","1","44100","-16","experiment","enval","3","1","2","0","1","english","4","","even","11013198","NA","NA","NA","NA","NA","NA","8654139","NA","8654140","8654140","10981448","11004063","11053106","11051602","11053764","11027318","11013194","NA","NA","10920060","10949708","NA","11012974","NA","11013198","NA","11053105","11053106","NA","NA","11051597","NAP perception","8","10455","9","yes","1024"
"90","yes","90","1170.7","1170.7","white","no","xpyriment","Ich habe die obigen Informationen gelesen und verstanden.","legacy","legacy","0","uniform","1","0","NA","undefined","undefined","1","f","0","0","NA","NA","NA","NA","NA","0","0","0","0","0","0","9","9","9","0","0","NA","NA","0","0","0","0","NA","0","0","9","9","9","9","9","Wed Oct  4 16:03:05 2017","Forced-choice identification task with a practice and an experimental phase","yes","NAP_GER_AA_4blocks_noglides.osexp","/Users/aviadalbert/Documents/Academisch/UoC/Dissertation/Experiment/OpenSesame/NAP-FC/NAP_GER_AA_4blocks_noglides","yes","no","sans","no","20","no","black","no","Weiter","yes","768","legacy","9","9","0","/Users/aviadalbert/Documents/Academisch/UoC/Dissertation/Experiment/OpenSesame/NAP-FC/NAP_GER_AA_4blocks_noglides/subject-4.csv","xpyriment","Jazzy James","3.1.9","yes","yes","59a800d99ad5a1025d81bb03","59a801616c613b0251691de0","yes","no","0","f","f","NA","NA","return","return","f","1252","14119","NA","NA","22611","8844","1252","2","legacy","1024","1","44100","-16","experiment","vlal","3","1","2","0","1","english","4","","even","11013198","NA","NA","NA","NA","NA","NA","8654139","NA","8654140","8654140","10981448","11004063","11055549","11054045","11056802","11027318","11013194","NA","NA","10920060","10949708","NA","11012974","NA","11013198","NA","11055548","11055548","NA","NA","11054041","NAP perception","9","11707","10","yes","1024"
"100","yes","100","814","814","white","no","xpyriment","Ich habe die obigen Informationen gelesen und verstanden.","legacy","legacy","0","uniform","1","0","0","undefined","undefined","1","j","2","1","NA","0","1","0","0","0","0","0","0","0","0","10","10","10","0","0","0","NA","0","0","2","0","0","0","2","10","10","10","10","10","Wed Oct  4 16:03:05 2017","Forced-choice identification task with a practice and an experimental phase","yes","NAP_GER_AA_4blocks_noglides.osexp","/Users/aviadalbert/Documents/Academisch/UoC/Dissertation/Experiment/OpenSesame/NAP-FC/NAP_GER_AA_4blocks_noglides","yes","no","sans","no","20","no","black","no","Weiter","yes","768","legacy","0","9","0","/Users/aviadalbert/Documents/Academisch/UoC/Dissertation/Experiment/OpenSesame/NAP-FC/NAP_GER_AA_4blocks_noglides/subject-4.csv","xpyriment","Jazzy James","3.1.9","yes","yes","59a800d99ad5a1025d81bb03","59a801616c613b0251691de0","no","no","0","j","f","space","NA","return","return","j","814","3182","22716","NA","22611","8844","814","2","legacy","1024","1","44100","-16","experiment","sepal","3","1","2","0","1","english","4","","even","11081792","11058533","NA","NA","11084975","11081788","NA","8654139","11081308","8654140","8654140","10981448","11004063","11086694","11085186","11087510","11027318","11013194","11058533","NA","10920060","10949708","11056864","11012974","11081792","11013198","NA","11086694","11086694","NA","NA","11085182","NAP perception","1","814","1","yes","1024"
"100","yes","100","639.5","639.5","white","no","xpyriment","Ich habe die obigen Informationen gelesen und verstanden.","legacy","legacy","0","uniform","1","0","0","undefined","undefined","1","j","2","1","NA","0","1","0","0","0","0","0","0","0","0","11","11","11","0","0","0","NA","0","0","2","0","0","0","2","11","11","11","11","11","Wed Oct  4 16:03:05 2017","Forced-choice identification task with a practice and an experimental phase","yes","NAP_GER_AA_4blocks_noglides.osexp","/Users/aviadalbert/Documents/Academisch/UoC/Dissertation/Experiment/OpenSesame/NAP-FC/NAP_GER_AA_4blocks_noglides","yes","no","sans","no","20","no","black","no","Weiter","yes","768","legacy","1","9","0","/Users/aviadalbert/Documents/Academisch/UoC/Dissertation/Experiment/OpenSesame/NAP-FC/NAP_GER_AA_4blocks_noglides/subject-4.csv","xpyriment","Jazzy James","3.1.9","yes","yes","59a800d99ad5a1025d81bb03","59a801616c613b0251691de0","no","no","0","j","f","space","NA","return","return","j","465","3182","22716","NA","22611","8844","465","2","legacy","1024","1","44100","-16","experiment","emsal","3","1","2","0","1","english","4","","even","11081792","11058533","NA","NA","11084975","11081788","NA","8654139","11081308","8654140","8654140","10981448","11004063","11089288","11087784","11089754","11027318","11013194","11058533","NA","10920060","10949708","11056864","11012974","11081792","11013198","NA","11089288","11089288","NA","NA","11087780","NAP perception","2","1279","2","yes","1024"
"100","yes","100","553.666666667","553.666666667","white","no","xpyriment","Ich habe die obigen Informationen gelesen und verstanden.","legacy","legacy","0","uniform","1","0","0","undefined","undefined","1","j","2","1","NA","0","1","0","0","0","0","0","0","0","0","12","12","12","0","0","0","NA","0","0","2","0","0","0","2","12","12","12","12","12","Wed Oct  4 16:03:05 2017","Forced-choice identification task with a practice and an experimental phase","yes","NAP_GER_AA_4blocks_noglides.osexp","/Users/aviadalbert/Documents/Academisch/UoC/Dissertation/Experiment/OpenSesame/NAP-FC/NAP_GER_AA_4blocks_noglides","yes","no","sans","no","20","no","black","no","Weiter","yes","768","legacy","2","9","0","/Users/aviadalbert/Documents/Academisch/UoC/Dissertation/Experiment/OpenSesame/NAP-FC/NAP_GER_AA_4blocks_noglides/subject-4.csv","xpyriment","Jazzy James","3.1.9","yes","yes","59a800d99ad5a1025d81bb03","59a801616c613b0251691de0","no","no","0","j","f","space","NA","return","return","j","382","3182","22716","NA","22611","8844","382","2","legacy","1024","1","44100","-16","experiment","enmal","3","1","2","0","1","english","4","","even","11081792","11058533","NA","NA","11084975","11081788","NA","8654139","11081308","8654140","8654140","10981448","11004063","11091535","11090030","11091919","11027318","11013194","11058533","NA","10920060","10949708","11056864","11012974","11081792","11013198","NA","11091534","11091534","NA","NA","11090026","NAP perception","3","1661","3","yes","1024"
"100","yes","100","553.75","553.75","white","no","xpyriment","Ich habe die obigen Informationen gelesen und verstanden.","legacy","legacy","0","uniform","1","0","0","undefined","undefined","1","j","2","1","NA","0","1","0","0","0","0","0","0","0","0","13","13","13","0","0","0","NA","0","0","2","0","0","0","2","13","13","13","13","13","Wed Oct  4 16:03:05 2017","Forced-choice identification task with a practice and an experimental phase","yes","NAP_GER_AA_4blocks_noglides.osexp","/Users/aviadalbert/Documents/Academisch/UoC/Dissertation/Experiment/OpenSesame/NAP-FC/NAP_GER_AA_4blocks_noglides","yes","no","sans","no","20","no","black","no","Weiter","yes","768","legacy","3","9","0","/Users/aviadalbert/Documents/Academisch/UoC/Dissertation/Experiment/OpenSesame/NAP-FC/NAP_GER_AA_4blocks_noglides/subject-4.csv","xpyriment","Jazzy James","3.1.9","yes","yes","59a800d99ad5a1025d81bb03","59a801616c613b0251691de0","no","no","0","j","f","space","NA","return","return","j","554","3182","22716","NA","22611","8844","554","2","legacy","1024","1","44100","-16","experiment","ʃepal","3","1","2","0","1","english","4","","even","11081792","11058533","NA","NA","11084975","11081788","NA","8654139","11081308","8654140","8654140","10981448","11004063","11093707","11092201","11094262","11027318","11013194","11058533","NA","10920060","10949708","11056864","11012974","11081792","11013198","NA","11093707","11093707","NA","NA","11092197","NAP perception","4","2215","4","yes","1024"
"100","yes","100","622.6","622.6","white","no","xpyriment","Ich habe die obigen Informationen gelesen und verstanden.","legacy","legacy","0","uniform","1","0","0","undefined","undefined","1","f","2","1","NA","0","1","0","0","0","0","0","0","0","0","14","14","14","0","0","0","NA","0","0","2","0","0","0","2","14","14","14","14","14","Wed Oct  4 16:03:05 2017","Forced-choice identification task with a practice and an experimental phase","yes","NAP_GER_AA_4blocks_noglides.osexp","/Users/aviadalbert/Documents/Academisch/UoC/Dissertation/Experiment/OpenSesame/NAP-FC/NAP_GER_AA_4blocks_noglides","yes","no","sans","no","20","no","black","no","Weiter","yes","768","legacy","4","9","0","/Users/aviadalbert/Documents/Academisch/UoC/Dissertation/Experiment/OpenSesame/NAP-FC/NAP_GER_AA_4blocks_noglides/subject-4.csv","xpyriment","Jazzy James","3.1.9","yes","yes","59a800d99ad5a1025d81bb03","59a801616c613b0251691de0","no","no","0","f","f","space","NA","return","return","f","898","3182","22716","NA","22611","8844","898","2","legacy","1024","1","44100","-16","experiment","zmal","3","1","2","0","1","english","4","","even","11081792","11058533","NA","NA","11084975","11081788","NA","8654139","11081308","8654140","8654140","10981448","11004063","11096063","11094557","11096962","11027318","11013194","11058533","NA","10920060","10949708","11056864","11012974","11081792","11013198","NA","11096063","11096063","NA","NA","11094552","NAP perception","5","3113","5","yes","1024"
"100","yes","100","686.666666667","686.666666667","white","no","xpyriment","Ich habe die obigen Informationen gelesen und verstanden.","legacy","legacy","0","uniform","1","0","0","undefined","undefined","1","j","2","1","NA","0","1","0","0","0","0","0","0","0","0","15","15","15","0","0","0","NA","0","0","2","0","0","0","2","15","15","15","15","15","Wed Oct  4 16:03:05 2017","Forced-choice identification task with a practice and an experimental phase","yes","NAP_GER_AA_4blocks_noglides.osexp","/Users/aviadalbert/Documents/Academisch/UoC/Dissertation/Experiment/OpenSesame/NAP-FC/NAP_GER_AA_4blocks_noglides","yes","no","sans","no","20","no","black","no","Weiter","yes","768","legacy","5","9","0","/Users/aviadalbert/Documents/Academisch/UoC/Dissertation/Experiment/OpenSesame/NAP-FC/NAP_GER_AA_4blocks_noglides/subject-4.csv","xpyriment","Jazzy James","3.1.9","yes","yes","59a800d99ad5a1025d81bb03","59a801616c613b0251691de0","no","no","0","j","f","space","NA","return","return","j","1007","3182","22716","NA","22611","8844","1007","2","legacy","1024","1","44100","-16","experiment","efsal","3","1","2","0","1","english","4","","even","11081792","11058533","NA","NA","11084975","11081788","NA","8654139","11081308","8654140","8654140","10981448","11004063","11098750","11097242","11099759","11027318","11013194","11058533","NA","10920060","10949708","11056864","11012974","11081792","11013198","NA","11098750","11098750","NA","NA","11097238","NAP perception","6","4120","6","yes","1024"
"100","yes","100","681.571428571","681.571428571","white","no","xpyriment","Ich habe die obigen Informationen gelesen und verstanden.","legacy","legacy","0","uniform","1","0","0","undefined","undefined","1","j","2","1","NA","0","1","0","0","0","0","0","0","0","0","16","16","16","0","0","0","NA","0","0","2","0","0","0","2","16","16","16","16","16","Wed Oct  4 16:03:05 2017","Forced-choice identification task with a practice and an experimental phase","yes","NAP_GER_AA_4blocks_noglides.osexp","/Users/aviadalbert/Documents/Academisch/UoC/Dissertation/Experiment/OpenSesame/NAP-FC/NAP_GER_AA_4blocks_noglides","yes","no","sans","no","20","no","black","no","Weiter","yes","768","legacy","6","9","0","/Users/aviadalbert/Documents/Academisch/UoC/Dissertation/Experiment/OpenSesame/NAP-FC/NAP_GER_AA_4blocks_noglides/subject-4.csv","xpyriment","Jazzy James","3.1.9","yes","yes","59a800d99ad5a1025d81bb03","59a801616c613b0251691de0","no","no","0","j","f","space","NA","return","return","j","651","3182","22716","NA","22611","8844","651","2","legacy","1024","1","44100","-16","experiment","esmal","3","1","2","0","1","english","4","","even","11081792","11058533","NA","NA","11084975","11081788","NA","8654139","11081308","8654140","8654140","10981448","11004063","11101538","11100030","11102190","11027318","11013194","11058533","NA","10920060","10949708","11056864","11012974","11081792","11013198","NA","11101537","11101537","NA","NA","11100026","NAP perception","7","4771","7","yes","1024"
"87.5","yes","87.5","756.25","756.25","white","no","xpyriment","Ich habe die obigen Informationen gelesen und verstanden.","legacy","legacy","0","uniform","0","0","0","undefined","undefined","0","f","2","1","NA","0","1","0","0","0","0","0","0","0","0","17","17","17","0","0","0","NA","0","0","2","0","0","0","2","17","17","17","17","17","Wed Oct  4 16:03:05 2017","Forced-choice identification task with a practice and an experimental phase","yes","NAP_GER_AA_4blocks_noglides.osexp","/Users/aviadalbert/Documents/Academisch/UoC/Dissertation/Experiment/OpenSesame/NAP-FC/NAP_GER_AA_4blocks_noglides","yes","no","sans","no","20","no","black","no","Weiter","yes","768","legacy","7","9","0","/Users/aviadalbert/Documents/Academisch/UoC/Dissertation/Experiment/OpenSesame/NAP-FC/NAP_GER_AA_4blocks_noglides/subject-4.csv","xpyriment","Jazzy James","3.1.9","yes","yes","59a800d99ad5a1025d81bb03","59a801616c613b0251691de0","no","no","0","j","f","space","NA","return","return","j","1279","3182","22716","NA","22611","8844","1279","2","legacy","1024","1","44100","-16","experiment","lmal","3","1","2","0","1","english","4","","even","11081792","11058533","NA","NA","11084975","11081788","NA","8654139","11081308","8654140","8654140","10981448","11004063","11103981","11102476","11105261","11027318","11013194","11058533","NA","10920060","10949708","11056864","11012974","11081792","11013198","NA","11103981","11103981","NA","NA","11102471","NAP perception","7","6050","8","yes","1024"
"88.8888888889","yes","88.8888888889","761.888888889","761.888888889","white","no","xpyriment","Ich habe die obigen Informationen gelesen und verstanden.","legacy","legacy","0","uniform","1","0","0","undefined","undefined","1","j","2","1","NA","0","1","0","0","0","0","0","0","0","0","18","18","18","0","0","0","NA","0","0","2","0","0","0","2","18","18","18","18","18","Wed Oct  4 16:03:05 2017","Forced-choice identification task with a practice and an experimental phase","yes","NAP_GER_AA_4blocks_noglides.osexp","/Users/aviadalbert/Documents/Academisch/UoC/Dissertation/Experiment/OpenSesame/NAP-FC/NAP_GER_AA_4blocks_noglides","yes","no","sans","no","20","no","black","no","Weiter","yes","768","legacy","8","9","0","/Users/aviadalbert/Documents/Academisch/UoC/Dissertation/Experiment/OpenSesame/NAP-FC/NAP_GER_AA_4blocks_noglides/subject-4.csv","xpyriment","Jazzy James","3.1.9","yes","yes","59a800d99ad5a1025d81bb03","59a801616c613b0251691de0","no","no","0","j","f","space","NA","return","return","j","807","3182","22716","NA","22611","8844","807","2","legacy","1024","1","44100","-16","experiment","emnal","3","1","2","0","1","english","4","","even","11081792","11058533","NA","NA","11084975","11081788","NA","8654139","11081308","8654140","8654140","10981448","11004063","11107040","11105534","11107848","11027318","11013194","11058533","NA","10920060","10949708","11056864","11012974","11081792","11013198","NA","11107040","11107040","NA","NA","11105529","NAP perception","8","6857","9","yes","1024"
"90","yes","90","770","770","white","no","xpyriment","Ich habe die obigen Informationen gelesen und verstanden.","legacy","legacy","0","uniform","1","0","0","undefined","undefined","1","f","2","1","NA","0","1","0","0","0","0","0","0","0","0","19","19","19","0","0","0","NA","0","0","2","0","0","0","2","19","19","19","19","19","Wed Oct  4 16:03:05 2017","Forced-choice identification task with a practice and an experimental phase","yes","NAP_GER_AA_4blocks_noglides.osexp","/Users/aviadalbert/Documents/Academisch/UoC/Dissertation/Experiment/OpenSesame/NAP-FC/NAP_GER_AA_4blocks_noglides","yes","no","sans","no","20","no","black","no","Weiter","yes","768","legacy","9","9","0","/Users/aviadalbert/Documents/Academisch/UoC/Dissertation/Experiment/OpenSesame/NAP-FC/NAP_GER_AA_4blocks_noglides/subject-4.csv","xpyriment","Jazzy James","3.1.9","yes","yes","59a800d99ad5a1025d81bb03","59a801616c613b0251691de0","no","no","0","f","f","space","NA","return","return","f","843","3182","22716","NA","22611","8844","843","2","legacy","1024","1","44100","-16","experiment","vzal","3","1","2","0","1","english","4","","even","11081792","11058533","NA","NA","11084975","11081788","NA","8654139","11081308","8654140","8654140","10981448","11004063","11109635","11108129","11110479","11027318","11013194","11058533","NA","10920060","10949708","11056864","11012974","11081792","11013198","NA","11109635","11109635","NA","NA","11108125","NAP perception","9","7700","10","yes","1024"
"90.9090909091","yes","90.9090909091","772.545454545","772.545454545","white","no","xpyriment","Ich habe die obigen Informationen gelesen und verstanden.","legacy","legacy","0","uniform","1","0","0","undefined","undefined","1","j","2","1","NA","0","1","0","0","0","0","0","0","0","0","20","20","20","0","0","0","NA","0","0","2","0","0","0","2","20","20","20","20","20","Wed Oct  4 16:03:05 2017","Forced-choice identification task with a practice and an experimental phase","yes","NAP_GER_AA_4blocks_noglides.osexp","/Users/aviadalbert/Documents/Academisch/UoC/Dissertation/Experiment/OpenSesame/NAP-FC/NAP_GER_AA_4blocks_noglides","yes","no","sans","no","20","no","black","no","Weiter","yes","768","legacy","10","9","0","/Users/aviadalbert/Documents/Academisch/UoC/Dissertation/Experiment/OpenSesame/NAP-FC/NAP_GER_AA_4blocks_noglides/subject-4.csv","xpyriment","Jazzy James","3.1.9","yes","yes","59a800d99ad5a1025d81bb03","59a801616c613b0251691de0","no","no","0","j","f","space","NA","return","return","j","798","3182","22716","NA","22611","8844","798","2","legacy","1024","1","44100","-16","experiment","leval","3","1","2","0","1","english","4","","even","11081792","11058533","NA","NA","11084975","11081788","NA","8654139","11081308","8654140","8654140","10981448","11004063","11112273","11110769","11113072","11027318","11013194","11058533","NA","10920060","10949708","11056864","11012974","11081792","11013198","NA","11112273","11112273","NA","NA","11110764","NAP perception","10","8498","11","yes","1024"
"91.6666666667","yes","91.6666666667","786.083333333","786.083333333","white","no","xpyriment","Ich habe die obigen Informationen gelesen und verstanden.","legacy","legacy","0","uniform","1","0","0","undefined","undefined","1","f","2","1","NA","0","1","0","0","0","0","0","0","0","0","21","21","21","0","0","0","NA","0","0","2","0","0","0","2","21","21","21","21","21","Wed Oct  4 16:03:05 2017","Forced-choice identification task with a practice and an experimental phase","yes","NAP_GER_AA_4blocks_noglides.osexp","/Users/aviadalbert/Documents/Academisch/UoC/Dissertation/Experiment/OpenSesame/NAP-FC/NAP_GER_AA_4blocks_noglides","yes","no","sans","no","20","no","black","no","Weiter","yes","768","legacy","11","9","0","/Users/aviadalbert/Documents/Academisch/UoC/Dissertation/Experiment/OpenSesame/NAP-FC/NAP_GER_AA_4blocks_noglides/subject-4.csv","xpyriment","Jazzy James","3.1.9","yes","yes","59a800d99ad5a1025d81bb03","59a801616c613b0251691de0","no","no","0","f","f","space","NA","return","return","f","935","3182","22716","NA","22611","8844","935","2","legacy","1024","1","44100","-16","experiment","nval","3","1","2","0","1","english","4","","even","11081792","11058533","NA","NA","11084975","11081788","NA","8654139","11081308","8654140","8654140","10981448","11004063","11114848","11113344","11115784","11027318","11013194","11058533","NA","10920060","10949708","11056864","11012974","11081792","11013198","NA","11114848","11114848","NA","NA","11113340","NAP perception","11","9433","12","yes","1024"
"84.6153846154","yes","84.6153846154","814.461538462","814.461538462","white","no","xpyriment","Ich habe die obigen Informationen gelesen und verstanden.","legacy","legacy","0","uniform","0","0","0","undefined","undefined","0","j","2","1","NA","0","1","0","0","0","0","0","0","0","0","22","22","22","0","0","0","NA","0","0","2","0","0","0","2","22","22","22","22","22","Wed Oct  4 16:03:05 2017","Forced-choice identification task with a practice and an experimental phase","yes","NAP_GER_AA_4blocks_noglides.osexp","/Users/aviadalbert/Documents/Academisch/UoC/Dissertation/Experiment/OpenSesame/NAP-FC/NAP_GER_AA_4blocks_noglides","yes","no","sans","no","20","no","black","no","Weiter","yes","768","legacy","12","9","0","/Users/aviadalbert/Documents/Academisch/UoC/Dissertation/Experiment/OpenSesame/NAP-FC/NAP_GER_AA_4blocks_noglides/subject-4.csv","xpyriment","Jazzy James","3.1.9","yes","yes","59a800d99ad5a1025d81bb03","59a801616c613b0251691de0","no","no","0","f","f","space","NA","return","return","f","1155","3182","22716","NA","22611","8844","1155","2","legacy","1024","1","44100","-16","experiment","evlal","3","1","2","0","1","english","4","","even","11081792","11058533","NA","NA","11084975","11081788","NA","8654139","11081308","8654140","8654140","10981448","11004063","11117572","11116066","11118728","11027318","11013194","11058533","NA","10920060","10949708","11056864","11012974","11081792","11013198","NA","11117571","11117571","NA","NA","11116062","NAP perception","11","10588","13","yes","1024"
"85.7142857143","yes","85.7142857143","823.928571429","823.928571429","white","no","xpyriment","Ich habe die obigen Informationen gelesen und verstanden.","legacy","legacy","0","uniform","1","0","0","undefined","undefined","1","j","2","1","NA","0","1","0","0","0","0","0","0","0","0","23","23","23","0","0","0","NA","0","0","2","0","0","0","2","23","23","23","23","23","Wed Oct  4 16:03:05 2017","Forced-choice identification task with a practice and an experimental phase","yes","NAP_GER_AA_4blocks_noglides.osexp","/Users/aviadalbert/Documents/Academisch/UoC/Dissertation/Experiment/OpenSesame/NAP-FC/NAP_GER_AA_4blocks_noglides","yes","no","sans","no","20","no","black","no","Weiter","yes","768","legacy","13","9","0","/Users/aviadalbert/Documents/Academisch/UoC/Dissertation/Experiment/OpenSesame/NAP-FC/NAP_GER_AA_4blocks_noglides/subject-4.csv","xpyriment","Jazzy James","3.1.9","yes","yes","59a800d99ad5a1025d81bb03","59a801616c613b0251691de0","no","no","0","j","f","space","NA","return","return","j","947","3182","22716","NA","22611","8844","947","2","legacy","1024","1","44100","-16","experiment","elval","3","1","2","0","1","english","4","","even","11081792","11058533","NA","NA","11084975","11081788","NA","8654139","11081308","8654140","8654140","10981448","11004063","11120514","11119010","11121462","11027318","11013194","11058533","NA","10920060","10949708","11056864","11012974","11081792","11013198","NA","11120514","11120514","NA","NA","11119006","NAP perception","12","11535","14","yes","1024"
"86.6666666667","yes","86.6666666667","832.933333333","832.933333333","white","no","xpyriment","Ich habe die obigen Informationen gelesen und verstanden.","legacy","legacy","0","uniform","1","0","0","undefined","undefined","1","f","2","1","NA","0","1","0","0","0","0","0","0","0","0","24","24","24","0","0","0","NA","0","0","2","0","0","0","2","24","24","24","24","24","Wed Oct  4 16:03:05 2017","Forced-choice identification task with a practice and an experimental phase","yes","NAP_GER_AA_4blocks_noglides.osexp","/Users/aviadalbert/Documents/Academisch/UoC/Dissertation/Experiment/OpenSesame/NAP-FC/NAP_GER_AA_4blocks_noglides","yes","no","sans","no","20","no","black","no","Weiter","yes","768","legacy","14","9","0","/Users/aviadalbert/Documents/Academisch/UoC/Dissertation/Experiment/OpenSesame/NAP-FC/NAP_GER_AA_4blocks_noglides/subject-4.csv","xpyriment","Jazzy James","3.1.9","yes","yes","59a800d99ad5a1025d81bb03","59a801616c613b0251691de0","no","no","0","f","f","space","NA","return","return","f","959","3182","22716","NA","22611","8844","959","2","legacy","1024","1","44100","-16","experiment","vzal","3","1","2","0","1","english","4","","even","11081792","11058533","NA","NA","11084975","11081788","NA","8654139","11081308","8654140","8654140","10981448","11004063","11123247","11121741","11124207","11027318","11013194","11058533","NA","10920060","10949708","11056864","11012974","11081792","11013198","NA","11123247","11123247","NA","NA","11121737","NAP perception","13","12494","15","yes","1024"
"81.25","yes","81.25","826","826","white","no","xpyriment","Ich habe die obigen Informationen gelesen und verstanden.","legacy","legacy","0","uniform","0","0","0","undefined","undefined","0","f","2","1","NA","0","1","0","0","0","0","0","0","0","0","25","25","25","0","0","0","NA","0","0","2","0","0","0","2","25","25","25","25","25","Wed Oct  4 16:03:05 2017","Forced-choice identification task with a practice and an experimental phase","yes","NAP_GER_AA_4blocks_noglides.osexp","/Users/aviadalbert/Documents/Academisch/UoC/Dissertation/Experiment/OpenSesame/NAP-FC/NAP_GER_AA_4blocks_noglides","yes","no","sans","no","20","no","black","no","Weiter","yes","768","legacy","15","9","0","/Users/aviadalbert/Documents/Academisch/UoC/Dissertation/Experiment/OpenSesame/NAP-FC/NAP_GER_AA_4blocks_noglides/subject-4.csv","xpyriment","Jazzy James","3.1.9","yes","yes","59a800d99ad5a1025d81bb03","59a801616c613b0251691de0","no","no","0","j","f","space","NA","return","return","j","722","3182","22716","NA","22611","8844","722","2","legacy","1024","1","44100","-16","experiment","lpal","3","1","2","0","1","english","4","","even","11081792","11058533","NA","NA","11084975","11081788","NA","8654139","11081308","8654140","8654140","10981448","11004063","11125985","11124480","11126708","11027318","11013194","11058533","NA","10920060","10949708","11056864","11012974","11081792","11013198","NA","11125985","11125985","NA","NA","11124475","NAP perception","13","13216","16","yes","1024"
"82.3529411765","yes","82.3529411765","822.705882353","822.705882353","white","no","xpyriment","Ich habe die obigen Informationen gelesen und verstanden.","legacy","legacy","0","uniform","1","0","0","undefined","undefined","1","f","2","1","NA","0","1","0","0","0","0","0","0","0","0","26","26","26","0","0","0","NA","0","0","2","0","0","0","2","26","26","26","26","26","Wed Oct  4 16:03:05 2017","Forced-choice identification task with a practice and an experimental phase","yes","NAP_GER_AA_4blocks_noglides.osexp","/Users/aviadalbert/Documents/Academisch/UoC/Dissertation/Experiment/OpenSesame/NAP-FC/NAP_GER_AA_4blocks_noglides","yes","no","sans","no","20","no","black","no","Weiter","yes","768","legacy","16","9","0","/Users/aviadalbert/Documents/Academisch/UoC/Dissertation/Experiment/OpenSesame/NAP-FC/NAP_GER_AA_4blocks_noglides/subject-4.csv","xpyriment","Jazzy James","3.1.9","yes","yes","59a800d99ad5a1025d81bb03","59a801616c613b0251691de0","no","no","0","f","f","space","NA","return","return","f","770","3182","22716","NA","22611","8844","770","2","legacy","1024","1","44100","-16","experiment","sfal","3","1","2","0","1","english","4","","even","11081792","11058533","NA","NA","11084975","11081788","NA","8654139","11081308","8654140","8654140","10981448","11004063","11128497","11126991","11129268","11027318","11013194","11058533","NA","10920060","10949708","11056864","11012974","11081792","11013198","NA","11128497","11128497","NA","NA","11126987","NAP perception","14","13986","17","yes","1024"
"83.3333333333","yes","83.3333333333","808.333333333","808.333333333","white","no","xpyriment","Ich habe die obigen Informationen gelesen und verstanden.","legacy","legacy","0","uniform","1","0","0","undefined","undefined","1","j","2","1","NA","0","1","0","0","0","0","0","0","0","0","27","27","27","0","0","0","NA","0","0","2","0","0","0","2","27","27","27","27","27","Wed Oct  4 16:03:05 2017","Forced-choice identification task with a practice and an experimental phase","yes","NAP_GER_AA_4blocks_noglides.osexp","/Users/aviadalbert/Documents/Academisch/UoC/Dissertation/Experiment/OpenSesame/NAP-FC/NAP_GER_AA_4blocks_noglides","yes","no","sans","no","20","no","black","no","Weiter","yes","768","legacy","17","9","0","/Users/aviadalbert/Documents/Academisch/UoC/Dissertation/Experiment/OpenSesame/NAP-FC/NAP_GER_AA_4blocks_noglides/subject-4.csv","xpyriment","Jazzy James","3.1.9","yes","yes","59a800d99ad5a1025d81bb03","59a801616c613b0251691de0","no","no","0","j","f","space","NA","return","return","j","564","3182","22716","NA","22611","8844","564","2","legacy","1024","1","44100","-16","experiment","emlal","3","1","2","0","1","english","4","","even","11081792","11058533","NA","NA","11084975","11081788","NA","8654139","11081308","8654140","8654140","10981448","11004063","11131055","11129551","11131620","11027318","11013194","11058533","NA","10920060","10949708","11056864","11012974","11081792","11013198","NA","11131055","11131055","NA","NA","11129547","NAP perception","15","14550","18","yes","1024"
"84.2105263158","yes","84.2105263158","809.263157895","809.263157895","white","no","xpyriment","Ich habe die obigen Informationen gelesen und verstanden.","legacy","legacy","0","uniform","1","0","0","undefined","undefined","1","j","2","1","NA","0","1","0","0","0","0","0","0","0","0","28","28","28","0","0","0","NA","0","0","2","0","0","0","2","28","28","28","28","28","Wed Oct  4 16:03:05 2017","Forced-choice identification task with a practice and an experimental phase","yes","NAP_GER_AA_4blocks_noglides.osexp","/Users/aviadalbert/Documents/Academisch/UoC/Dissertation/Experiment/OpenSesame/NAP-FC/NAP_GER_AA_4blocks_noglides","yes","no","sans","no","20","no","black","no","Weiter","yes","768","legacy","18","9","0","/Users/aviadalbert/Documents/Academisch/UoC/Dissertation/Experiment/OpenSesame/NAP-FC/NAP_GER_AA_4blocks_noglides/subject-4.csv","xpyriment","Jazzy James","3.1.9","yes","yes","59a800d99ad5a1025d81bb03","59a801616c613b0251691de0","no","no","0","j","f","space","NA","return","return","j","826","3182","22716","NA","22611","8844","826","2","legacy","1024","1","44100","-16","experiment","menal","3","1","2","0","1","english","4","","even","11081792","11058533","NA","NA","11084975","11081788","NA","8654139","11081308","8654140","8654140","10981448","11004063","11133400","11131896","11134227","11027318","11013194","11058533","NA","10920060","10949708","11056864","11012974","11081792","11013198","NA","11133399","11133399","NA","NA","11131892","NAP perception","16","15376","19","yes","1024"
"85","yes","85","807.75","807.75","white","no","xpyriment","Ich habe die obigen Informationen gelesen und verstanden.","legacy","legacy","0","uniform","1","0","0","undefined","undefined","1","f","2","1","NA","0","1","0","0","0","0","0","0","0","0","29","29","29","0","0","0","NA","0","0","2","0","0","0","2","29","29","29","29","29","Wed Oct  4 16:03:05 2017","Forced-choice identification task with a practice and an experimental phase","yes","NAP_GER_AA_4blocks_noglides.osexp","/Users/aviadalbert/Documents/Academisch/UoC/Dissertation/Experiment/OpenSesame/NAP-FC/NAP_GER_AA_4blocks_noglides","yes","no","sans","no","20","no","black","no","Weiter","yes","768","legacy","19","9","0","/Users/aviadalbert/Documents/Academisch/UoC/Dissertation/Experiment/OpenSesame/NAP-FC/NAP_GER_AA_4blocks_noglides/subject-4.csv","xpyriment","Jazzy James","3.1.9","yes","yes","59a800d99ad5a1025d81bb03","59a801616c613b0251691de0","no","no","0","f","f","space","NA","return","return","f","779","3182","22716","NA","22611","8844","779","2","legacy","1024","1","44100","-16","experiment","mlal","3","1","2","0","1","english","4","","even","11081792","11058533","NA","NA","11084975","11081788","NA","8654139","11081308","8654140","8654140","10981448","11004063","11135997","11134492","11136778","11027318","11013194","11058533","NA","10920060","10949708","11056864","11012974","11081792","11013198","NA","11135997","11135997","NA","NA","11134488","NAP perception","17","16155","20","yes","1024"
"80.9523809524","yes","80.9523809524","799.428571429","799.428571429","white","no","xpyriment","Ich habe die obigen Informationen gelesen und verstanden.","legacy","legacy","0","uniform","0","0","0","undefined","undefined","0","f","2","1","NA","0","1","0","0","0","0","0","0","0","0","30","30","30","0","0","0","NA","0","0","2","0","0","0","2","30","30","30","30","30","Wed Oct  4 16:03:05 2017","Forced-choice identification task with a practice and an experimental phase","yes","NAP_GER_AA_4blocks_noglides.osexp","/Users/aviadalbert/Documents/Academisch/UoC/Dissertation/Experiment/OpenSesame/NAP-FC/NAP_GER_AA_4blocks_noglides","yes","no","sans","no","20","no","black","no","Weiter","yes","768","legacy","20","9","0","/Users/aviadalbert/Documents/Academisch/UoC/Dissertation/Experiment/OpenSesame/NAP-FC/NAP_GER_AA_4blocks_noglides/subject-4.csv","xpyriment","Jazzy James","3.1.9","yes","yes","59a800d99ad5a1025d81bb03","59a801616c613b0251691de0","no","no","0","j","f","space","NA","return","return","j","633","3182","22716","NA","22611","8844","633","2","legacy","1024","1","44100","-16","experiment","spal","3","1","2","0","1","english","4","","even","11081792","11058533","NA","NA","11084975","11081788","NA","8654139","11081308","8654140","8654140","10981448","11004063","11138556","11137051","11139191","11027318","11013194","11058533","NA","10920060","10949708","11056864","11012974","11081792","11013198","NA","11138556","11138556","NA","NA","11137047","NAP perception","17","16788","21","yes","1024"
"81.8181818182","yes","81.8181818182","798.818181818","798.818181818","white","no","xpyriment","Ich habe die obigen Informationen gelesen und verstanden.","legacy","legacy","0","uniform","1","0","0","undefined","undefined","1","j","2","1","NA","0","1","0","0","0","0","0","0","0","0","31","31","31","0","0","0","NA","0","0","2","0","0","0","2","31","31","31","31","31","Wed Oct  4 16:03:05 2017","Forced-choice identification task with a practice and an experimental phase","yes","NAP_GER_AA_4blocks_noglides.osexp","/Users/aviadalbert/Documents/Academisch/UoC/Dissertation/Experiment/OpenSesame/NAP-FC/NAP_GER_AA_4blocks_noglides","yes","no","sans","no","20","no","black","no","Weiter","yes","768","legacy","21","9","0","/Users/aviadalbert/Documents/Academisch/UoC/Dissertation/Experiment/OpenSesame/NAP-FC/NAP_GER_AA_4blocks_noglides/subject-4.csv","xpyriment","Jazzy James","3.1.9","yes","yes","59a800d99ad5a1025d81bb03","59a801616c613b0251691de0","no","no","0","j","f","space","NA","return","return","j","786","3182","22716","NA","22611","8844","786","2","legacy","1024","1","44100","-16","experiment","efnal","3","1","2","0","1","english","4","","even","11081792","11058533","NA","NA","11084975","11081788","NA","8654139","11081308","8654140","8654140","10981448","11004063","11140969","11139465","11141757","11027318","11013194","11058533","NA","10920060","10949708","11056864","11012974","11081792","11013198","NA","11140969","11140969","NA","NA","11139461","NAP perception","18","17574","22","yes","1024"
"82.6086956522","yes","82.6086956522","822.217391304","822.217391304","white","no","xpyriment","Ich habe die obigen Informationen gelesen und verstanden.","legacy","legacy","0","uniform","1","0","0","undefined","undefined","1","f","2","1","NA","0","1","0","0","0","0","0","0","0","0","32","32","32","0","0","0","NA","0","0","2","0","0","0","2","32","32","32","32","32","Wed Oct  4 16:03:05 2017","Forced-choice identification task with a practice and an experimental phase","yes","NAP_GER_AA_4blocks_noglides.osexp","/Users/aviadalbert/Documents/Academisch/UoC/Dissertation/Experiment/OpenSesame/NAP-FC/NAP_GER_AA_4blocks_noglides","yes","no","sans","no","20","no","black","no","Weiter","yes","768","legacy","22","9","0","/Users/aviadalbert/Documents/Academisch/UoC/Dissertation/Experiment/OpenSesame/NAP-FC/NAP_GER_AA_4blocks_noglides/subject-4.csv","xpyriment","Jazzy James","3.1.9","yes","yes","59a800d99ad5a1025d81bb03","59a801616c613b0251691de0","no","no","0","f","f","space","NA","return","return","f","1337","3182","22716","NA","22611","8844","1337","2","legacy","1024","1","44100","-16","experiment","fsal","3","1","2","0","1","english","4","","even","11081792","11058533","NA","NA","11084975","11081788","NA","8654139","11081308","8654140","8654140","10981448","11004063","11143537","11142032","11144876","11027318","11013194","11058533","NA","10920060","10949708","11056864","11012974","11081792","11013198","NA","11143536","11143536","NA","NA","11142027","NAP perception","19","18911","23","yes","1024"
"83.3333333333","yes","83.3333333333","817.875","817.875","white","no","xpyriment","Ich habe die obigen Informationen gelesen und verstanden.","legacy","legacy","0","uniform","1","0","0","undefined","undefined","1","j","2","1","NA","0","1","0","0","0","0","0","0","0","0","33","33","33","0","0","0","NA","0","0","2","0","0","0","2","33","33","33","33","33","Wed Oct  4 16:03:05 2017","Forced-choice identification task with a practice and an experimental phase","yes","NAP_GER_AA_4blocks_noglides.osexp","/Users/aviadalbert/Documents/Academisch/UoC/Dissertation/Experiment/OpenSesame/NAP-FC/NAP_GER_AA_4blocks_noglides","yes","no","sans","no","20","no","black","no","Weiter","yes","768","legacy","23","9","0","/Users/aviadalbert/Documents/Academisch/UoC/Dissertation/Experiment/OpenSesame/NAP-FC/NAP_GER_AA_4blocks_noglides/subject-4.csv","xpyriment","Jazzy James","3.1.9","yes","yes","59a800d99ad5a1025d81bb03","59a801616c613b0251691de0","no","no","0","j","f","space","NA","return","return","j","718","3182","22716","NA","22611","8844","718","2","legacy","1024","1","44100","-16","experiment","neval","3","1","2","0","1","english","4","","even","11081792","11058533","NA","NA","11084975","11081788","NA","8654139","11081308","8654140","8654140","10981448","11004063","11146660","11145155","11147380","11027318","11013194","11058533","NA","10920060","10949708","11056864","11012974","11081792","11013198","NA","11146659","11146659","NA","NA","11145150","NAP perception","20","19629","24","yes","1024"
"84","yes","84","824.04","824.04","white","no","xpyriment","Ich habe die obigen Informationen gelesen und verstanden.","legacy","legacy","0","uniform","1","0","0","undefined","undefined","1","f","2","1","NA","0","1","0","0","0","0","0","0","0","0","34","34","34","0","0","0","NA","0","0","2","0","0","0","2","34","34","34","34","34","Wed Oct  4 16:03:05 2017","Forced-choice identification task with a practice and an experimental phase","yes","NAP_GER_AA_4blocks_noglides.osexp","/Users/aviadalbert/Documents/Academisch/UoC/Dissertation/Experiment/OpenSesame/NAP-FC/NAP_GER_AA_4blocks_noglides","yes","no","sans","no","20","no","black","no","Weiter","yes","768","legacy","24","9","0","/Users/aviadalbert/Documents/Academisch/UoC/Dissertation/Experiment/OpenSesame/NAP-FC/NAP_GER_AA_4blocks_noglides/subject-4.csv","xpyriment","Jazzy James","3.1.9","yes","yes","59a800d99ad5a1025d81bb03","59a801616c613b0251691de0","no","no","0","f","f","space","NA","return","return","f","972","3182","22716","NA","22611","8844","972","2","legacy","1024","1","44100","-16","experiment","lval","3","1","2","0","1","english","4","","even","11081792","11058533","NA","NA","11084975","11081788","NA","8654139","11081308","8654140","8654140","10981448","11004063","11149159","11147652","11150133","11027318","11013194","11058533","NA","10920060","10949708","11056864","11012974","11081792","11013198","NA","11149158","11149158","NA","NA","11147648","NAP perception","21","20601","25","yes","1024"
"84.6153846154","yes","84.6153846154","825.423076923","825.423076923","white","no","xpyriment","Ich habe die obigen Informationen gelesen und verstanden.","legacy","legacy","0","uniform","1","0","0","undefined","undefined","1","j","2","1","NA","0","1","0","0","0","0","0","0","0","0","35","35","35","0","0","0","NA","0","0","2","0","0","0","2","35","35","35","35","35","Wed Oct  4 16:03:05 2017","Forced-choice identification task with a practice and an experimental phase","yes","NAP_GER_AA_4blocks_noglides.osexp","/Users/aviadalbert/Documents/Academisch/UoC/Dissertation/Experiment/OpenSesame/NAP-FC/NAP_GER_AA_4blocks_noglides","yes","no","sans","no","20","no","black","no","Weiter","yes","768","legacy","25","9","0","/Users/aviadalbert/Documents/Academisch/UoC/Dissertation/Experiment/OpenSesame/NAP-FC/NAP_GER_AA_4blocks_noglides/subject-4.csv","xpyriment","Jazzy James","3.1.9","yes","yes","59a800d99ad5a1025d81bb03","59a801616c613b0251691de0","no","no","0","j","f","space","NA","return","return","j","860","3182","22716","NA","22611","8844","860","2","legacy","1024","1","44100","-16","experiment","eftal","3","1","2","0","1","english","4","","even","11081792","11058533","NA","NA","11084975","11081788","NA","8654139","11081308","8654140","8654140","10981448","11004063","11151906","11150401","11152768","11027318","11013194","11058533","NA","10920060","10949708","11056864","11012974","11081792","11013198","NA","11151905","11151906","NA","NA","11150396","NAP perception","22","21461","26","yes","1024"
"85.1851851852","yes","85.1851851852","836.148148148","836.148148148","white","no","xpyriment","Ich habe die obigen Informationen gelesen und verstanden.","legacy","legacy","0","uniform","1","0","0","undefined","undefined","1","f","2","1","NA","0","1","0","0","0","0","0","0","0","0","36","36","36","0","0","0","NA","0","0","2","0","0","0","2","36","36","36","36","36","Wed Oct  4 16:03:05 2017","Forced-choice identification task with a practice and an experimental phase","yes","NAP_GER_AA_4blocks_noglides.osexp","/Users/aviadalbert/Documents/Academisch/UoC/Dissertation/Experiment/OpenSesame/NAP-FC/NAP_GER_AA_4blocks_noglides","yes","no","sans","no","20","no","black","no","Weiter","yes","768","legacy","26","9","0","/Users/aviadalbert/Documents/Academisch/UoC/Dissertation/Experiment/OpenSesame/NAP-FC/NAP_GER_AA_4blocks_noglides/subject-4.csv","xpyriment","Jazzy James","3.1.9","yes","yes","59a800d99ad5a1025d81bb03","59a801616c613b0251691de0","no","no","0","f","f","space","NA","return","return","f","1115","3182","22716","NA","22611","8844","1115","2","legacy","1024","1","44100","-16","experiment","ʃpal","3","1","2","0","1","english","4","","even","11081792","11058533","NA","NA","11084975","11081788","NA","8654139","11081308","8654140","8654140","10981448","11004063","11154551","11153043","11155668","11027318","11013194","11058533","NA","10920060","10949708","11056864","11012974","11081792","11013198","NA","11154551","11154551","NA","NA","11153038","NAP perception","23","22576","27","yes","1024"
"85.7142857143","yes","85.7142857143","834.714285714","834.714285714","white","no","xpyriment","Ich habe die obigen Informationen gelesen und verstanden.","legacy","legacy","0","uniform","1","0","0","undefined","undefined","1","j","2","1","NA","0","1","0","0","0","0","0","0","0","0","37","37","37","0","0","0","NA","0","0","2","0","0","0","2","37","37","37","37","37","Wed Oct  4 16:03:05 2017","Forced-choice identification task with a practice and an experimental phase","yes","NAP_GER_AA_4blocks_noglides.osexp","/Users/aviadalbert/Documents/Academisch/UoC/Dissertation/Experiment/OpenSesame/NAP-FC/NAP_GER_AA_4blocks_noglides","yes","no","sans","no","20","no","black","no","Weiter","yes","768","legacy","27","9","0","/Users/aviadalbert/Documents/Academisch/UoC/Dissertation/Experiment/OpenSesame/NAP-FC/NAP_GER_AA_4blocks_noglides/subject-4.csv","xpyriment","Jazzy James","3.1.9","yes","yes","59a800d99ad5a1025d81bb03","59a801616c613b0251691de0","no","no","0","j","f","space","NA","return","return","j","796","3182","22716","NA","22611","8844","796","2","legacy","1024","1","44100","-16","experiment","fesal","3","1","2","0","1","english","4","","even","11081792","11058533","NA","NA","11084975","11081788","NA","8654139","11081308","8654140","8654140","10981448","11004063","11157441","11155937","11158238","11027318","11013194","11058533","NA","10920060","10949708","11056864","11012974","11081792","11013198","NA","11157441","11157441","NA","NA","11155933","NAP perception","24","23372","28","yes","1024"
"86.2068965517","yes","86.2068965517","831.862068966","831.862068966","white","no","xpyriment","Ich habe die obigen Informationen gelesen und verstanden.","legacy","legacy","0","uniform","1","0","0","undefined","undefined","1","f","2","1","NA","0","1","0","0","0","0","0","0","0","0","38","38","38","0","0","0","NA","0","0","2","0","0","0","2","38","38","38","38","38","Wed Oct  4 16:03:05 2017","Forced-choice identification task with a practice and an experimental phase","yes","NAP_GER_AA_4blocks_noglides.osexp","/Users/aviadalbert/Documents/Academisch/UoC/Dissertation/Experiment/OpenSesame/NAP-FC/NAP_GER_AA_4blocks_noglides","yes","no","sans","no","20","no","black","no","Weiter","yes","768","legacy","28","9","0","/Users/aviadalbert/Documents/Academisch/UoC/Dissertation/Experiment/OpenSesame/NAP-FC/NAP_GER_AA_4blocks_noglides/subject-4.csv","xpyriment","Jazzy James","3.1.9","yes","yes","59a800d99ad5a1025d81bb03","59a801616c613b0251691de0","no","no","0","f","f","space","NA","return","return","f","752","3182","22716","NA","22611","8844","752","2","legacy","1024","1","44100","-16","experiment","lkal","3","1","2","0","1","english","4","","even","11081792","11058533","NA","NA","11084975","11081788","NA","8654139","11081308","8654140","8654140","10981448","11004063","11160029","11158522","11160782","11027318","11013194","11058533","NA","10920060","10949708","11056864","11012974","11081792","11013198","NA","11160028","11160029","NA","NA","11158518","NAP perception","25","24124","29","yes","1024"
"86.6666666667","yes","86.6666666667","862.833333333","862.833333333","white","no","xpyriment","Ich habe die obigen Informationen gelesen und verstanden.","legacy","legacy","0","uniform","1","0","0","undefined","undefined","1","f","2","1","NA","0","1","0","0","0","0","0","0","0","0","39","39","39","0","0","0","NA","0","0","2","0","0","0","2","39","39","39","39","39","Wed Oct  4 16:03:05 2017","Forced-choice identification task with a practice and an experimental phase","yes","NAP_GER_AA_4blocks_noglides.osexp","/Users/aviadalbert/Documents/Academisch/UoC/Dissertation/Experiment/OpenSesame/NAP-FC/NAP_GER_AA_4blocks_noglides","yes","no","sans","no","20","no","black","no","Weiter","yes","768","legacy","29","9","0","/Users/aviadalbert/Documents/Academisch/UoC/Dissertation/Experiment/OpenSesame/NAP-FC/NAP_GER_AA_4blocks_noglides/subject-4.csv","xpyriment","Jazzy James","3.1.9","yes","yes","59a800d99ad5a1025d81bb03","59a801616c613b0251691de0","no","no","0","f","f","space","NA","return","return","f","1761","3182","22716","NA","22611","8844","1761","2","legacy","1024","1","44100","-16","experiment","lpal","3","1","2","0","1","english","4","","even","11081792","11058533","NA","NA","11084975","11081788","NA","8654139","11081308","8654140","8654140","10981448","11004063","11162565","11161056","11164327","11027318","11013194","11058533","NA","10920060","10949708","11056864","11012974","11081792","11013198","NA","11162564","11162564","NA","NA","11161052","NAP perception","26","25885","30","yes","1024"
"83.8709677419","yes","83.8709677419","862.258064516","862.258064516","white","no","xpyriment","Ich habe die obigen Informationen gelesen und verstanden.","legacy","legacy","0","uniform","0","0","0","undefined","undefined","0","f","2","1","NA","0","1","0","0","0","0","0","0","0","0","40","40","40","0","0","0","NA","0","0","2","0","0","0","2","40","40","40","40","40","Wed Oct  4 16:03:05 2017","Forced-choice identification task with a practice and an experimental phase","yes","NAP_GER_AA_4blocks_noglides.osexp","/Users/aviadalbert/Documents/Academisch/UoC/Dissertation/Experiment/OpenSesame/NAP-FC/NAP_GER_AA_4blocks_noglides","yes","no","sans","no","20","no","black","no","Weiter","yes","768","legacy","30","9","0","/Users/aviadalbert/Documents/Academisch/UoC/Dissertation/Experiment/OpenSesame/NAP-FC/NAP_GER_AA_4blocks_noglides/subject-4.csv","xpyriment","Jazzy James","3.1.9","yes","yes","59a800d99ad5a1025d81bb03","59a801616c613b0251691de0","no","no","0","j","f","space","NA","return","return","j","845","3182","22716","NA","22611","8844","845","2","legacy","1024","1","44100","-16","experiment","lfal","3","1","2","0","1","english","4","","even","11081792","11058533","NA","NA","11084975","11081788","NA","8654139","11081308","8654140","8654140","10981448","11004063","11166107","11164603","11166953","11027318","11013194","11058533","NA","10920060","10949708","11056864","11012974","11081792","11013198","NA","11166106","11166107","NA","NA","11164599","NAP perception","26","26730","31","yes","1024"
"84.375","yes","84.375","879.0625","879.0625","white","no","xpyriment","Ich habe die obigen Informationen gelesen und verstanden.","legacy","legacy","0","uniform","1","0","0","undefined","undefined","1","j","2","1","NA","0","1","0","0","0","0","0","0","0","0","41","41","41","0","0","0","NA","0","0","2","0","0","0","2","41","41","41","41","41","Wed Oct  4 16:03:05 2017","Forced-choice identification task with a practice and an experimental phase","yes","NAP_GER_AA_4blocks_noglides.osexp","/Users/aviadalbert/Documents/Academisch/UoC/Dissertation/Experiment/OpenSesame/NAP-FC/NAP_GER_AA_4blocks_noglides","yes","no","sans","no","20","no","black","no","Weiter","yes","768","legacy","31","9","0","/Users/aviadalbert/Documents/Academisch/UoC/Dissertation/Experiment/OpenSesame/NAP-FC/NAP_GER_AA_4blocks_noglides/subject-4.csv","xpyriment","Jazzy James","3.1.9","yes","yes","59a800d99ad5a1025d81bb03","59a801616c613b0251691de0","no","no","0","j","f","space","NA","return","return","j","1400","3182","22716","NA","22611","8844","1400","2","legacy","1024","1","44100","-16","experiment","espal","3","1","2","0","1","english","4","","even","11081792","11058533","NA","NA","11084975","11081788","NA","8654139","11081308","8654140","8654140","10981448","11004063","11168749","11167245","11170150","11027318","11013194","11058533","NA","10920060","10949708","11056864","11012974","11081792","11013198","NA","11168749","11168749","NA","NA","11167241","NAP perception","27","28130","32","yes","1024"
"84.8484848485","yes","84.8484848485","885.151515152","885.151515152","white","no","xpyriment","Ich habe die obigen Informationen gelesen und verstanden.","legacy","legacy","0","uniform","1","0","0","undefined","undefined","1","f","2","1","NA","0","1","0","0","0","0","0","0","0","0","42","42","42","0","0","0","NA","0","0","2","0","0","0","2","42","42","42","42","42","Wed Oct  4 16:03:05 2017","Forced-choice identification task with a practice and an experimental phase","yes","NAP_GER_AA_4blocks_noglides.osexp","/Users/aviadalbert/Documents/Academisch/UoC/Dissertation/Experiment/OpenSesame/NAP-FC/NAP_GER_AA_4blocks_noglides","yes","no","sans","no","20","no","black","no","Weiter","yes","768","legacy","32","9","0","/Users/aviadalbert/Documents/Academisch/UoC/Dissertation/Experiment/OpenSesame/NAP-FC/NAP_GER_AA_4blocks_noglides/subject-4.csv","xpyriment","Jazzy James","3.1.9","yes","yes","59a800d99ad5a1025d81bb03","59a801616c613b0251691de0","no","no","0","f","f","space","NA","return","return","f","1080","3182","22716","NA","22611","8844","1080","2","legacy","1024","1","44100","-16","experiment","vnal","3","1","2","0","1","english","4","","even","11081792","11058533","NA","NA","11084975","11081788","NA","8654139","11081308","8654140","8654140","10981448","11004063","11171933","11170428","11173014","11027318","11013194","11058533","NA","10920060","10949708","11056864","11012974","11081792","11013198","NA","11171932","11171933","NA","NA","11170424","NAP perception","28","29210","33","yes","1024"
"85.2941176471","yes","85.2941176471","904.441176471","904.441176471","white","no","xpyriment","Ich habe die obigen Informationen gelesen und verstanden.","legacy","legacy","0","uniform","1","0","0","undefined","undefined","1","j","2","1","NA","0","1","0","0","0","0","0","0","0","0","43","43","43","0","0","0","NA","0","0","2","0","0","0","2","43","43","43","43","43","Wed Oct  4 16:03:05 2017","Forced-choice identification task with a practice and an experimental phase","yes","NAP_GER_AA_4blocks_noglides.osexp","/Users/aviadalbert/Documents/Academisch/UoC/Dissertation/Experiment/OpenSesame/NAP-FC/NAP_GER_AA_4blocks_noglides","yes","no","sans","no","20","no","black","no","Weiter","yes","768","legacy","33","9","0","/Users/aviadalbert/Documents/Academisch/UoC/Dissertation/Experiment/OpenSesame/NAP-FC/NAP_GER_AA_4blocks_noglides/subject-4.csv","xpyriment","Jazzy James","3.1.9","yes","yes","59a800d99ad5a1025d81bb03","59a801616c613b0251691de0","no","no","0","j","f","space","NA","return","return","j","1541","3182","22716","NA","22611","8844","1541","2","legacy","1024","1","44100","-16","experiment","eʃfal","3","1","2","0","1","english","4","","even","11081792","11058533","NA","NA","11084975","11081788","NA","8654139","11081308","8654140","8654140","10981448","11004063","11174805","11173301","11176347","11027318","11013194","11058533","NA","10920060","10949708","11056864","11012974","11081792","11013198","NA","11174805","11174805","NA","NA","11173297","NAP perception","29","30751","34","yes","1024"
"85.7142857143","yes","85.7142857143","911.142857143","911.142857143","white","no","xpyriment","Ich habe die obigen Informationen gelesen und verstanden.","legacy","legacy","0","uniform","1","0","0","undefined","undefined","1","j","2","1","NA","0","1","0","0","0","0","0","0","0","0","44","44","44","0","0","0","NA","0","0","2","0","0","0","2","44","44","44","44","44","Wed Oct  4 16:03:05 2017","Forced-choice identification task with a practice and an experimental phase","yes","NAP_GER_AA_4blocks_noglides.osexp","/Users/aviadalbert/Documents/Academisch/UoC/Dissertation/Experiment/OpenSesame/NAP-FC/NAP_GER_AA_4blocks_noglides","yes","no","sans","no","20","no","black","no","Weiter","yes","768","legacy","34","9","0","/Users/aviadalbert/Documents/Academisch/UoC/Dissertation/Experiment/OpenSesame/NAP-FC/NAP_GER_AA_4blocks_noglides/subject-4.csv","xpyriment","Jazzy James","3.1.9","yes","yes","59a800d99ad5a1025d81bb03","59a801616c613b0251691de0","no","no","0","j","f","space","NA","return","return","j","1139","3182","22716","NA","22611","8844","1139","2","legacy","1024","1","44100","-16","experiment","felal","3","1","2","0","1","english","4","","even","11081792","11058533","NA","NA","11084975","11081788","NA","8654139","11081308","8654140","8654140","10981448","11004063","11178124","11176620","11179265","11027318","11013194","11058533","NA","10920060","10949708","11056864","11012974","11081792","11013198","NA","11178124","11178124","NA","NA","11176616","NAP perception","30","31890","35","yes","1024"
"83.3333333333","yes","83.3333333333","908.861111111","908.861111111","white","no","xpyriment","Ich habe die obigen Informationen gelesen und verstanden.","legacy","legacy","0","uniform","0","0","0","undefined","undefined","0","j","2","1","NA","0","1","0","0","0","0","0","0","0","0","45","45","45","0","0","0","NA","0","0","2","0","0","0","2","45","45","45","45","45","Wed Oct  4 16:03:05 2017","Forced-choice identification task with a practice and an experimental phase","yes","NAP_GER_AA_4blocks_noglides.osexp","/Users/aviadalbert/Documents/Academisch/UoC/Dissertation/Experiment/OpenSesame/NAP-FC/NAP_GER_AA_4blocks_noglides","yes","no","sans","no","20","no","black","no","Weiter","yes","768","legacy","35","9","0","/Users/aviadalbert/Documents/Academisch/UoC/Dissertation/Experiment/OpenSesame/NAP-FC/NAP_GER_AA_4blocks_noglides/subject-4.csv","xpyriment","Jazzy James","3.1.9","yes","yes","59a800d99ad5a1025d81bb03","59a801616c613b0251691de0","no","no","0","f","f","space","NA","return","return","f","829","3182","22716","NA","22611","8844","829","2","legacy","1024","1","44100","-16","experiment","zeval","3","1","2","0","1","english","4","","even","11081792","11058533","NA","NA","11084975","11081788","NA","8654139","11081308","8654140","8654140","10981448","11004063","11181051","11179547","11181881","11027318","11013194","11058533","NA","10920060","10949708","11056864","11012974","11081792","11013198","NA","11181050","11181050","NA","NA","11179542","NAP perception","30","32719","36","yes","1024"
"81.0810810811","yes","81.0810810811","927.891891892","927.891891892","white","no","xpyriment","Ich habe die obigen Informationen gelesen und verstanden.","legacy","legacy","0","uniform","0","0","0","undefined","undefined","0","f","2","1","NA","0","1","0","0","0","0","0","0","0","0","46","46","46","0","0","0","NA","0","0","2","0","0","0","2","46","46","46","46","46","Wed Oct  4 16:03:05 2017","Forced-choice identification task with a practice and an experimental phase","yes","NAP_GER_AA_4blocks_noglides.osexp","/Users/aviadalbert/Documents/Academisch/UoC/Dissertation/Experiment/OpenSesame/NAP-FC/NAP_GER_AA_4blocks_noglides","yes","no","sans","no","20","no","black","no","Weiter","yes","768","legacy","36","9","0","/Users/aviadalbert/Documents/Academisch/UoC/Dissertation/Experiment/OpenSesame/NAP-FC/NAP_GER_AA_4blocks_noglides/subject-4.csv","xpyriment","Jazzy James","3.1.9","yes","yes","59a800d99ad5a1025d81bb03","59a801616c613b0251691de0","no","no","0","j","f","space","NA","return","return","j","1613","3182","22716","NA","22611","8844","1613","2","legacy","1024","1","44100","-16","experiment","nfal","3","1","2","0","1","english","4","","even","11081792","11058533","NA","NA","11084975","11081788","NA","8654139","11081308","8654140","8654140","10981448","11004063","11183648","11182144","11185262","11027318","11013194","11058533","NA","10920060","10949708","11056864","11012974","11081792","11013198","NA","11183648","11183648","NA","NA","11182140","NAP perception","30","34332","37","yes","1024"
"81.5789473684","yes","81.5789473684","947.894736842","947.894736842","white","no","xpyriment","Ich habe die obigen Informationen gelesen und verstanden.","legacy","legacy","0","uniform","1","0","0","undefined","undefined","1","j","2","1","NA","0","1","0","0","0","0","0","0","0","0","47","47","47","0","0","0","NA","0","0","2","0","0","0","2","47","47","47","47","47","Wed Oct  4 16:03:05 2017","Forced-choice identification task with a practice and an experimental phase","yes","NAP_GER_AA_4blocks_noglides.osexp","/Users/aviadalbert/Documents/Academisch/UoC/Dissertation/Experiment/OpenSesame/NAP-FC/NAP_GER_AA_4blocks_noglides","yes","no","sans","no","20","no","black","no","Weiter","yes","768","legacy","37","9","0","/Users/aviadalbert/Documents/Academisch/UoC/Dissertation/Experiment/OpenSesame/NAP-FC/NAP_GER_AA_4blocks_noglides/subject-4.csv","xpyriment","Jazzy James","3.1.9","yes","yes","59a800d99ad5a1025d81bb03","59a801616c613b0251691de0","no","no","0","j","f","space","NA","return","return","j","1688","3182","22716","NA","22611","8844","1688","2","legacy","1024","1","44100","-16","experiment","fenal","3","1","2","0","1","english","4","","even","11081792","11058533","NA","NA","11084975","11081788","NA","8654139","11081308","8654140","8654140","10981448","11004063","11187039","11185532","11188728","11027318","11013194","11058533","NA","10920060","10949708","11056864","11012974","11081792","11013198","NA","11187039","11187039","NA","NA","11185528","NAP perception","31","36020","38","yes","1024"
"79.4871794872","yes","79.4871794872","940.358974359","940.358974359","white","no","xpyriment","Ich habe die obigen Informationen gelesen und verstanden.","legacy","legacy","0","uniform","0","0","0","undefined","undefined","0","f","2","1","NA","0","1","0","0","0","0","0","0","0","0","48","48","48","0","0","0","NA","0","0","2","0","0","0","2","48","48","48","48","48","Wed Oct  4 16:03:05 2017","Forced-choice identification task with a practice and an experimental phase","yes","NAP_GER_AA_4blocks_noglides.osexp","/Users/aviadalbert/Documents/Academisch/UoC/Dissertation/Experiment/OpenSesame/NAP-FC/NAP_GER_AA_4blocks_noglides","yes","no","sans","no","20","no","black","no","Weiter","yes","768","legacy","38","9","0","/Users/aviadalbert/Documents/Academisch/UoC/Dissertation/Experiment/OpenSesame/NAP-FC/NAP_GER_AA_4blocks_noglides/subject-4.csv","xpyriment","Jazzy James","3.1.9","yes","yes","59a800d99ad5a1025d81bb03","59a801616c613b0251691de0","no","no","0","j","f","space","NA","return","return","j","654","3182","22716","NA","22611","8844","654","2","legacy","1024","1","44100","-16","experiment","lkal","3","1","2","0","1","english","4","","even","11081792","11058533","NA","NA","11084975","11081788","NA","8654139","11081308","8654140","8654140","10981448","11004063","11190512","11189008","11191167","11027318","11013194","11058533","NA","10920060","10949708","11056864","11012974","11081792","11013198","NA","11190512","11190512","NA","NA","11189004","NAP perception","31","36674","39","yes","1024"
"80","yes","80","939.1","939.1","white","no","xpyriment","Ich habe die obigen Informationen gelesen und verstanden.","legacy","legacy","0","uniform","1","0","0","undefined","undefined","1","f","2","1","NA","0","1","0","0","0","0","0","0","0","0","49","49","49","0","0","0","NA","0","0","2","0","0","0","2","49","49","49","49","49","Wed Oct  4 16:03:05 2017","Forced-choice identification task with a practice and an experimental phase","yes","NAP_GER_AA_4blocks_noglides.osexp","/Users/aviadalbert/Documents/Academisch/UoC/Dissertation/Experiment/OpenSesame/NAP-FC/NAP_GER_AA_4blocks_noglides","yes","no","sans","no","20","no","black","no","Weiter","yes","768","legacy","39","9","0","/Users/aviadalbert/Documents/Academisch/UoC/Dissertation/Experiment/OpenSesame/NAP-FC/NAP_GER_AA_4blocks_noglides/subject-4.csv","xpyriment","Jazzy James","3.1.9","yes","yes","59a800d99ad5a1025d81bb03","59a801616c613b0251691de0","no","no","0","f","f","space","NA","return","return","f","890","3182","22716","NA","22611","8844","890","2","legacy","1024","1","44100","-16","experiment","ʃfal","3","1","2","0","1","english","4","","even","11081792","11058533","NA","NA","11084975","11081788","NA","8654139","11081308","8654140","8654140","10981448","11004063","11192952","11191445","11193843","11027318","11013194","11058533","NA","10920060","10949708","11056864","11012974","11081792","11013198","NA","11192951","11192951","NA","NA","11191441","NAP perception","32","37564","40","yes","1024"
"78.0487804878","yes","78.0487804878","962.756097561","962.756097561","white","no","xpyriment","Ich habe die obigen Informationen gelesen und verstanden.","legacy","legacy","0","uniform","0","0","0","undefined","undefined","0","f","2","1","NA","0","1","0","0","0","0","0","0","0","0","50","50","50","0","0","0","NA","0","0","2","0","0","0","2","50","50","50","50","50","Wed Oct  4 16:03:05 2017","Forced-choice identification task with a practice and an experimental phase","yes","NAP_GER_AA_4blocks_noglides.osexp","/Users/aviadalbert/Documents/Academisch/UoC/Dissertation/Experiment/OpenSesame/NAP-FC/NAP_GER_AA_4blocks_noglides","yes","no","sans","no","20","no","black","no","Weiter","yes","768","legacy","40","9","0","/Users/aviadalbert/Documents/Academisch/UoC/Dissertation/Experiment/OpenSesame/NAP-FC/NAP_GER_AA_4blocks_noglides/subject-4.csv","xpyriment","Jazzy James","3.1.9","yes","yes","59a800d99ad5a1025d81bb03","59a801616c613b0251691de0","no","no","0","j","f","space","NA","return","return","j","1909","3182","22716","NA","22611","8844","1909","2","legacy","1024","1","44100","-16","experiment","mtal","3","1","2","0","1","english","4","","even","11081792","11058533","NA","NA","11084975","11081788","NA","8654139","11081308","8654140","8654140","10981448","11004063","11195616","11194111","11197527","11027318","11013194","11058533","NA","10920060","10949708","11056864","11012974","11081792","11013198","NA","11195616","11195616","NA","NA","11194107","NAP perception","32","39473","41","yes","1024"
"78.5714285714","yes","78.5714285714","981.928571429","981.928571429","white","no","xpyriment","Ich habe die obigen Informationen gelesen und verstanden.","legacy","legacy","0","uniform","1","0","0","undefined","undefined","1","j","2","1","NA","0","1","0","0","0","0","0","0","0","0","51","51","51","0","0","0","NA","0","0","2","0","0","0","2","51","51","51","51","51","Wed Oct  4 16:03:05 2017","Forced-choice identification task with a practice and an experimental phase","yes","NAP_GER_AA_4blocks_noglides.osexp","/Users/aviadalbert/Documents/Academisch/UoC/Dissertation/Experiment/OpenSesame/NAP-FC/NAP_GER_AA_4blocks_noglides","yes","no","sans","no","20","no","black","no","Weiter","yes","768","legacy","41","9","0","/Users/aviadalbert/Documents/Academisch/UoC/Dissertation/Experiment/OpenSesame/NAP-FC/NAP_GER_AA_4blocks_noglides/subject-4.csv","xpyriment","Jazzy James","3.1.9","yes","yes","59a800d99ad5a1025d81bb03","59a801616c613b0251691de0","no","no","0","j","f","space","NA","return","return","j","1768","3182","22716","NA","22611","8844","1768","2","legacy","1024","1","44100","-16","experiment","nefal","3","1","2","0","1","english","4","","even","11081792","11058533","NA","NA","11084975","11081788","NA","8654139","11081308","8654140","8654140","10981448","11004063","11199320","11197814","11201090","11027318","11013194","11058533","NA","10920060","10949708","11056864","11012974","11081792","11013198","NA","11199320","11199320","NA","NA","11197809","NAP perception","33","41241","42","yes","1024"
"79.0697674419","yes","79.0697674419","1012.02325581","1012.02325581","white","no","xpyriment","Ich habe die obigen Informationen gelesen und verstanden.","legacy","legacy","0","uniform","1","0","0","undefined","undefined","1","f","2","1","NA","0","1","0","0","0","0","0","0","0","0","52","52","52","0","0","0","NA","0","0","2","0","0","0","2","52","52","52","52","52","Wed Oct  4 16:03:05 2017","Forced-choice identification task with a practice and an experimental phase","yes","NAP_GER_AA_4blocks_noglides.osexp","/Users/aviadalbert/Documents/Academisch/UoC/Dissertation/Experiment/OpenSesame/NAP-FC/NAP_GER_AA_4blocks_noglides","yes","no","sans","no","20","no","black","no","Weiter","yes","768","legacy","42","9","0","/Users/aviadalbert/Documents/Academisch/UoC/Dissertation/Experiment/OpenSesame/NAP-FC/NAP_GER_AA_4blocks_noglides/subject-4.csv","xpyriment","Jazzy James","3.1.9","yes","yes","59a800d99ad5a1025d81bb03","59a801616c613b0251691de0","no","no","0","f","f","space","NA","return","return","f","2276","3182","22716","NA","22611","8844","2276","2","legacy","1024","1","44100","-16","experiment","npal","3","1","2","0","1","english","4","","even","11081792","11058533","NA","NA","11084975","11081788","NA","8654139","11081308","8654140","8654140","10981448","11004063","11202862","11201358","11205139","11027318","11013194","11058533","NA","10920060","10949708","11056864","11012974","11081792","11013198","NA","11202861","11202861","NA","NA","11201353","NAP perception","34","43517","43","yes","1024"
"79.5454545455","yes","79.5454545455","1030.02272727","1030.02272727","white","no","xpyriment","Ich habe die obigen Informationen gelesen und verstanden.","legacy","legacy","0","uniform","1","0","0","undefined","undefined","1","j","2","1","NA","0","1","0","0","0","0","0","0","0","0","53","53","53","0","0","0","NA","0","0","2","0","0","0","2","53","53","53","53","53","Wed Oct  4 16:03:05 2017","Forced-choice identification task with a practice and an experimental phase","yes","NAP_GER_AA_4blocks_noglides.osexp","/Users/aviadalbert/Documents/Academisch/UoC/Dissertation/Experiment/OpenSesame/NAP-FC/NAP_GER_AA_4blocks_noglides","yes","no","sans","no","20","no","black","no","Weiter","yes","768","legacy","43","9","0","/Users/aviadalbert/Documents/Academisch/UoC/Dissertation/Experiment/OpenSesame/NAP-FC/NAP_GER_AA_4blocks_noglides/subject-4.csv","xpyriment","Jazzy James","3.1.9","yes","yes","59a800d99ad5a1025d81bb03","59a801616c613b0251691de0","no","no","0","j","f","space","NA","return","return","j","1804","3182","22716","NA","22611","8844","1804","2","legacy","1024","1","44100","-16","experiment","elmal","3","1","2","0","1","english","4","","even","11081792","11058533","NA","NA","11084975","11081788","NA","8654139","11081308","8654140","8654140","10981448","11004063","11206917","11205413","11208723","11027318","11013194","11058533","NA","10920060","10949708","11056864","11012974","11081792","11013198","NA","11206916","11206916","NA","NA","11205409","NAP perception","35","45321","44","yes","1024"
"80","yes","80","1023.55555556","1023.55555556","white","no","xpyriment","Ich habe die obigen Informationen gelesen und verstanden.","legacy","legacy","0","uniform","1","0","0","undefined","undefined","1","f","2","1","NA","0","1","0","0","0","0","0","0","0","0","54","54","54","0","0","0","NA","0","0","2","0","0","0","2","54","54","54","54","54","Wed Oct  4 16:03:05 2017","Forced-choice identification task with a practice and an experimental phase","yes","NAP_GER_AA_4blocks_noglides.osexp","/Users/aviadalbert/Documents/Academisch/UoC/Dissertation/Experiment/OpenSesame/NAP-FC/NAP_GER_AA_4blocks_noglides","yes","no","sans","no","20","no","black","no","Weiter","yes","768","legacy","44","9","0","/Users/aviadalbert/Documents/Academisch/UoC/Dissertation/Experiment/OpenSesame/NAP-FC/NAP_GER_AA_4blocks_noglides/subject-4.csv","xpyriment","Jazzy James","3.1.9","yes","yes","59a800d99ad5a1025d81bb03","59a801616c613b0251691de0","no","no","0","f","f","space","NA","return","return","f","739","3182","22716","NA","22611","8844","739","2","legacy","1024","1","44100","-16","experiment","zval","3","1","2","0","1","english","4","","even","11081792","11058533","NA","NA","11084975","11081788","NA","8654139","11081308","8654140","8654140","10981448","11004063","11210501","11208995","11211241","11027318","11013194","11058533","NA","10920060","10949708","11056864","11012974","11081792","11013198","NA","11210501","11210501","NA","NA","11208991","NAP perception","36","46060","45","yes","1024"
"80.4347826087","yes","80.4347826087","1045","1045","white","no","xpyriment","Ich habe die obigen Informationen gelesen und verstanden.","legacy","legacy","0","uniform","1","0","0","undefined","undefined","1","j","2","1","NA","0","1","0","0","0","0","0","0","0","0","55","55","55","0","0","0","NA","0","0","2","0","0","0","2","55","55","55","55","55","Wed Oct  4 16:03:05 2017","Forced-choice identification task with a practice and an experimental phase","yes","NAP_GER_AA_4blocks_noglides.osexp","/Users/aviadalbert/Documents/Academisch/UoC/Dissertation/Experiment/OpenSesame/NAP-FC/NAP_GER_AA_4blocks_noglides","yes","no","sans","no","20","no","black","no","Weiter","yes","768","legacy","45","9","0","/Users/aviadalbert/Documents/Academisch/UoC/Dissertation/Experiment/OpenSesame/NAP-FC/NAP_GER_AA_4blocks_noglides/subject-4.csv","xpyriment","Jazzy James","3.1.9","yes","yes","59a800d99ad5a1025d81bb03","59a801616c613b0251691de0","no","no","0","j","f","space","NA","return","return","j","2010","3182","22716","NA","22611","8844","2010","2","legacy","1024","1","44100","-16","experiment","evnal","3","1","2","0","1","english","4","","even","11081792","11058533","NA","NA","11084975","11081788","NA","8654139","11081308","8654140","8654140","10981448","11004063","11213019","11211515","11215030","11027318","11013194","11058533","NA","10920060","10949708","11056864","11012974","11081792","11013198","NA","11213018","11213018","NA","NA","11211510","NAP perception","37","48070","46","yes","1024"
"80.8510638298","yes","80.8510638298","1048.78723404","1048.78723404","white","no","xpyriment","Ich habe die obigen Informationen gelesen und verstanden.","legacy","legacy","0","uniform","1","0","0","undefined","undefined","1","j","2","1","NA","0","1","0","0","0","0","0","0","0","0","56","56","56","0","0","0","NA","0","0","2","0","0","0","2","56","56","56","56","56","Wed Oct  4 16:03:05 2017","Forced-choice identification task with a practice and an experimental phase","yes","NAP_GER_AA_4blocks_noglides.osexp","/Users/aviadalbert/Documents/Academisch/UoC/Dissertation/Experiment/OpenSesame/NAP-FC/NAP_GER_AA_4blocks_noglides","yes","no","sans","no","20","no","black","no","Weiter","yes","768","legacy","46","9","0","/Users/aviadalbert/Documents/Academisch/UoC/Dissertation/Experiment/OpenSesame/NAP-FC/NAP_GER_AA_4blocks_noglides/subject-4.csv","xpyriment","Jazzy James","3.1.9","yes","yes","59a800d99ad5a1025d81bb03","59a801616c613b0251691de0","no","no","0","j","f","space","NA","return","return","j","1223","3182","22716","NA","22611","8844","1223","2","legacy","1024","1","44100","-16","experiment","melal","3","1","2","0","1","english","4","","even","11081792","11058533","NA","NA","11084975","11081788","NA","8654139","11081308","8654140","8654140","10981448","11004063","11216817","11215313","11218042","11027318","11013194","11058533","NA","10920060","10949708","11056864","11012974","11081792","11013198","NA","11216816","11216817","NA","NA","11215309","NAP perception","38","49293","47","yes","1024"
"81.25","yes","81.25","1049.10416667","1049.10416667","white","no","xpyriment","Ich habe die obigen Informationen gelesen und verstanden.","legacy","legacy","0","uniform","1","0","0","undefined","undefined","1","j","2","1","NA","0","1","0","0","0","0","0","0","0","0","57","57","57","0","0","0","NA","0","0","2","0","0","0","2","57","57","57","57","57","Wed Oct  4 16:03:05 2017","Forced-choice identification task with a practice and an experimental phase","yes","NAP_GER_AA_4blocks_noglides.osexp","/Users/aviadalbert/Documents/Academisch/UoC/Dissertation/Experiment/OpenSesame/NAP-FC/NAP_GER_AA_4blocks_noglides","yes","no","sans","no","20","no","black","no","Weiter","yes","768","legacy","47","9","0","/Users/aviadalbert/Documents/Academisch/UoC/Dissertation/Experiment/OpenSesame/NAP-FC/NAP_GER_AA_4blocks_noglides/subject-4.csv","xpyriment","Jazzy James","3.1.9","yes","yes","59a800d99ad5a1025d81bb03","59a801616c613b0251691de0","no","no","0","j","f","space","NA","return","return","j","1064","3182","22716","NA","22611","8844","1064","2","legacy","1024","1","44100","-16","experiment","fetal","3","1","2","0","1","english","4","","even","11081792","11058533","NA","NA","11084975","11081788","NA","8654139","11081308","8654140","8654140","10981448","11004063","11219824","11218317","11220890","11027318","11013194","11058533","NA","10920060","10949708","11056864","11012974","11081792","11013198","NA","11219824","11219824","NA","NA","11218313","NAP perception","39","50357","48","yes","1024"
"79.5918367347","yes","79.5918367347","1050.53061224","1050.53061224","white","no","xpyriment","Ich habe die obigen Informationen gelesen und verstanden.","legacy","legacy","0","uniform","0","0","0","undefined","undefined","0","j","2","1","NA","0","1","0","0","0","0","0","0","0","0","58","58","58","0","0","0","NA","0","0","2","0","0","0","2","58","58","58","58","58","Wed Oct  4 16:03:05 2017","Forced-choice identification task with a practice and an experimental phase","yes","NAP_GER_AA_4blocks_noglides.osexp","/Users/aviadalbert/Documents/Academisch/UoC/Dissertation/Experiment/OpenSesame/NAP-FC/NAP_GER_AA_4blocks_noglides","yes","no","sans","no","20","no","black","no","Weiter","yes","768","legacy","48","9","0","/Users/aviadalbert/Documents/Academisch/UoC/Dissertation/Experiment/OpenSesame/NAP-FC/NAP_GER_AA_4blocks_noglides/subject-4.csv","xpyriment","Jazzy James","3.1.9","yes","yes","59a800d99ad5a1025d81bb03","59a801616c613b0251691de0","no","no","0","f","f","space","NA","return","return","f","1119","3182","22716","NA","22611","8844","1119","2","legacy","1024","1","44100","-16","experiment","eʃpal","3","1","2","0","1","english","4","","even","11081792","11058533","NA","NA","11084975","11081788","NA","8654139","11081308","8654140","8654140","10981448","11004063","11222673","11221164","11223794","11027318","11013194","11058533","NA","10920060","10949708","11056864","11012974","11081792","11013198","NA","11222672","11222672","NA","NA","11221160","NAP perception","39","51476","49","yes","1024"
"80","yes","80","1053.2","1053.2","white","no","xpyriment","Ich habe die obigen Informationen gelesen und verstanden.","legacy","legacy","0","uniform","1","0","0","undefined","undefined","1","f","2","1","NA","0","1","0","0","0","0","0","0","0","0","59","59","59","0","0","0","NA","0","0","2","0","0","0","2","59","59","59","59","59","Wed Oct  4 16:03:05 2017","Forced-choice identification task with a practice and an experimental phase","yes","NAP_GER_AA_4blocks_noglides.osexp","/Users/aviadalbert/Documents/Academisch/UoC/Dissertation/Experiment/OpenSesame/NAP-FC/NAP_GER_AA_4blocks_noglides","yes","no","sans","no","20","no","black","no","Weiter","yes","768","legacy","49","9","0","/Users/aviadalbert/Documents/Academisch/UoC/Dissertation/Experiment/OpenSesame/NAP-FC/NAP_GER_AA_4blocks_noglides/subject-4.csv","xpyriment","Jazzy James","3.1.9","yes","yes","59a800d99ad5a1025d81bb03","59a801616c613b0251691de0","no","no","0","f","f","space","NA","return","return","f","1184","3182","22716","NA","22611","8844","1184","2","legacy","1024","1","44100","-16","experiment","ʃmal","3","1","2","0","1","english","4","","even","11081792","11058533","NA","NA","11084975","11081788","NA","8654139","11081308","8654140","8654140","10981448","11004063","11225567","11224061","11226753","11027318","11013194","11058533","NA","10920060","10949708","11056864","11012974","11081792","11013198","NA","11225566","11225566","NA","NA","11224057","NAP perception","40","52660","50","yes","1024"
"78.431372549","yes","78.431372549","1057.21568627","1057.21568627","white","no","xpyriment","Ich habe die obigen Informationen gelesen und verstanden.","legacy","legacy","0","uniform","0","0","0","undefined","undefined","0","j","2","1","NA","0","1","0","0","0","0","0","0","0","0","60","60","60","0","0","0","NA","0","0","2","0","0","0","2","60","60","60","60","60","Wed Oct  4 16:03:05 2017","Forced-choice identification task with a practice and an experimental phase","yes","NAP_GER_AA_4blocks_noglides.osexp","/Users/aviadalbert/Documents/Academisch/UoC/Dissertation/Experiment/OpenSesame/NAP-FC/NAP_GER_AA_4blocks_noglides","yes","no","sans","no","20","no","black","no","Weiter","yes","768","legacy","50","9","0","/Users/aviadalbert/Documents/Academisch/UoC/Dissertation/Experiment/OpenSesame/NAP-FC/NAP_GER_AA_4blocks_noglides/subject-4.csv","xpyriment","Jazzy James","3.1.9","yes","yes","59a800d99ad5a1025d81bb03","59a801616c613b0251691de0","no","no","0","f","f","space","NA","return","return","f","1258","3182","22716","NA","22611","8844","1258","2","legacy","1024","1","44100","-16","experiment","evzal","3","1","2","0","1","english","4","","even","11081792","11058533","NA","NA","11084975","11081788","NA","8654139","11081308","8654140","8654140","10981448","11004063","11228531","11227023","11229792","11027318","11013194","11058533","NA","10920060","10949708","11056864","11012974","11081792","11013198","NA","11228531","11228531","NA","NA","11227018","NAP perception","40","53918","51","yes","1024"
"78.8461538462","yes","78.8461538462","1053.23076923","1053.23076923","white","no","xpyriment","Ich habe die obigen Informationen gelesen und verstanden.","legacy","legacy","0","uniform","1","0","0","undefined","undefined","1","j","2","1","NA","0","1","0","0","0","0","0","0","0","0","61","61","61","0","0","0","NA","0","0","2","0","0","0","2","61","61","61","61","61","Wed Oct  4 16:03:05 2017","Forced-choice identification task with a practice and an experimental phase","yes","NAP_GER_AA_4blocks_noglides.osexp","/Users/aviadalbert/Documents/Academisch/UoC/Dissertation/Experiment/OpenSesame/NAP-FC/NAP_GER_AA_4blocks_noglides","yes","no","sans","no","20","no","black","no","Weiter","yes","768","legacy","51","9","0","/Users/aviadalbert/Documents/Academisch/UoC/Dissertation/Experiment/OpenSesame/NAP-FC/NAP_GER_AA_4blocks_noglides/subject-4.csv","xpyriment","Jazzy James","3.1.9","yes","yes","59a800d99ad5a1025d81bb03","59a801616c613b0251691de0","no","no","0","j","f","space","NA","return","return","j","850","3182","22716","NA","22611","8844","850","2","legacy","1024","1","44100","-16","experiment","mezal","3","1","2","0","1","english","4","","even","11081792","11058533","NA","NA","11084975","11081788","NA","8654139","11081308","8654140","8654140","10981448","11004063","11231573","11230065","11232425","11027318","11013194","11058533","NA","10920060","10949708","11056864","11012974","11081792","11013198","NA","11231573","11231573","NA","NA","11230061","NAP perception","41","54768","52","yes","1024"
"77.358490566","yes","77.358490566","1052.24528302","1052.24528302","white","no","xpyriment","Ich habe die obigen Informationen gelesen und verstanden.","legacy","legacy","0","uniform","0","0","0","undefined","undefined","0","f","2","1","NA","0","1","0","0","0","0","0","0","0","0","62","62","62","0","0","0","NA","0","0","2","0","0","0","2","62","62","62","62","62","Wed Oct  4 16:03:05 2017","Forced-choice identification task with a practice and an experimental phase","yes","NAP_GER_AA_4blocks_noglides.osexp","/Users/aviadalbert/Documents/Academisch/UoC/Dissertation/Experiment/OpenSesame/NAP-FC/NAP_GER_AA_4blocks_noglides","yes","no","sans","no","20","no","black","no","Weiter","yes","768","legacy","52","9","0","/Users/aviadalbert/Documents/Academisch/UoC/Dissertation/Experiment/OpenSesame/NAP-FC/NAP_GER_AA_4blocks_noglides/subject-4.csv","xpyriment","Jazzy James","3.1.9","yes","yes","59a800d99ad5a1025d81bb03","59a801616c613b0251691de0","no","no","0","j","f","space","NA","return","return","j","1001","3182","22716","NA","22611","8844","1001","2","legacy","1024","1","44100","-16","experiment","nfal","3","1","2","0","1","english","4","","even","11081792","11058533","NA","NA","11084975","11081788","NA","8654139","11081308","8654140","8654140","10981448","11004063","11234211","11232707","11235214","11027318","11013194","11058533","NA","10920060","10949708","11056864","11012974","11081792","11013198","NA","11234211","11234211","NA","NA","11232703","NAP perception","41","55769","53","yes","1024"
"77.7777777778","yes","77.7777777778","1046.24074074","1046.24074074","white","no","xpyriment","Ich habe die obigen Informationen gelesen und verstanden.","legacy","legacy","0","uniform","1","0","0","undefined","undefined","1","j","2","1","NA","0","1","0","0","0","0","0","0","0","0","63","63","63","0","0","0","NA","0","0","2","0","0","0","2","63","63","63","63","63","Wed Oct  4 16:03:05 2017","Forced-choice identification task with a practice and an experimental phase","yes","NAP_GER_AA_4blocks_noglides.osexp","/Users/aviadalbert/Documents/Academisch/UoC/Dissertation/Experiment/OpenSesame/NAP-FC/NAP_GER_AA_4blocks_noglides","yes","no","sans","no","20","no","black","no","Weiter","yes","768","legacy","53","9","0","/Users/aviadalbert/Documents/Academisch/UoC/Dissertation/Experiment/OpenSesame/NAP-FC/NAP_GER_AA_4blocks_noglides/subject-4.csv","xpyriment","Jazzy James","3.1.9","yes","yes","59a800d99ad5a1025d81bb03","59a801616c613b0251691de0","no","no","0","j","f","space","NA","return","return","j","728","3182","22716","NA","22611","8844","728","2","legacy","1024","1","44100","-16","experiment","mesal","3","1","2","0","1","english","4","","even","11081792","11058533","NA","NA","11084975","11081788","NA","8654139","11081308","8654140","8654140","10981448","11004063","11236995","11235489","11237725","11027318","11013194","11058533","NA","10920060","10949708","11056864","11012974","11081792","11013198","NA","11236995","11236995","NA","NA","11235484","NAP perception","42","56497","54","yes","1024"
