"acc","accept_status","accuracy","average_response_time","avg_rt","background","bidi","canvas_backend","checkbox_status","clock_backend","color_backend","compensation","coordinates","correct","correct_block_activation","correct_block_exit","correct_instructions_1","correct_instructions_2","correct_keyboard_response","correct_response","count_block_activation","count_block_exit","count_block_info_QA","count_cont_e_block_message","count_e_block_loop","count_e_block_sequence","count_end_of_experiment","count_experiment","count_experimental_loop","count_form_consent","count_info_forms","count_instructions_1","count_instructions_2","count_keyboard_response","count_listen_message","count_logger","count_p_block_loop","count_p_block_sequence","count_p_feedback","count_pause_feedback","count_personal_details_form_1","count_personal_details_form_2","count_post_loop_blank","count_practice_loop","count_pre_e_block_message","count_pre_p_block_message","count_reset_feedback","count_stimulus_image","count_stimulus_sound","count_timeout_message","count_timeout_sound","count_trial_sequence","datetime","description","disable_garbage_collection","experiment_file","experiment_path","expyriment_opengl","font_bold","font_family","font_italic","font_size","font_underline","foreground","form_clicks","form_response","fullscreen","height","keyboard_backend","live_row","live_row_p_block_loop","live_row_practice_loop","logfile","mouse_backend","opensesame_codename","opensesame_version","osf_always_upload_data","osf_always_upload_experiment","osf_datanode_id","osf_id","practice","pygame_doublebuf","repeat_cycle","response","response_block_activation","response_block_exit","response_block_info_QA","response_instructions_1","response_instructions_2","response_keyboard_response","response_time","response_time_block_activation","response_time_block_exit","response_time_block_info_QA","response_time_instructions_1","response_time_instructions_2","response_time_keyboard_response","round_decimals","sampler_backend","sound_buf_size","sound_channels","sound_freq","sound_sample_size","start","stimulus","subject_age","subject_education","subject_gender","subject_german_native","subject_handedness","subject_language_other","subject_nr","subject_other_native_lang","subject_parity","time_block_activation","time_block_exit","time_block_info_QA","time_cont_e_block_message","time_e_block_loop","time_e_block_sequence","time_end_of_experiment","time_experiment","time_experimental_loop","time_form_consent","time_info_forms","time_instructions_1","time_instructions_2","time_keyboard_response","time_listen_message","time_logger","time_p_block_loop","time_p_block_sequence","time_p_feedback","time_pause_feedback","time_personal_details_form_1","time_personal_details_form_2","time_post_loop_blank","time_practice_loop","time_pre_e_block_message","time_pre_p_block_message","time_reset_feedback","time_stimulus_image","time_stimulus_sound","time_timeout_message","time_timeout_sound","time_trial_sequence","title","total_correct","total_response_time","total_responses","uniform_coordinates","width"
"100","yes","100","1753","1753","white","no","xpyriment","Ich habe die obigen Informationen gelesen und verstanden.","legacy","legacy","0","uniform","1","0","NA","undefined","undefined","1","f","0","0","NA","NA","NA","NA","NA","0","0","0","0","0","0","0","0","0","0","0","NA","NA","0","0","0","0","NA","0","0","0","0","0","0","0","Fri Nov  3 13:48:28 2017","Forced-choice identification task with a practice and an experimental phase","yes","NAP_GER_AA_4blocks_noglides.osexp","/Users/aviadalbert/Documents/Academisch/UoC/Dissertation/Experiment/OpenSesame/NAP-FC/NAP_GER_AA_4blocks_noglides","yes","no","sans","no","20","no","black","no","Weiter","yes","768","legacy","0","0","0","/Users/aviadalbert/Documents/Academisch/UoC/Dissertation/Experiment/OpenSesame/NAP-FC/NAP_GER_AA_4blocks_noglides/subject-43.csv","xpyriment","Jazzy James","3.1.9","yes","yes","59a800d99ad5a1025d81bb03","59a801616c613b0251691de0","yes","no","0","f","f","NA","NA","space","space","f","1753","3104","NA","NA","38800","8134","1753","2","legacy","1024","1","44100","-16","experiment","flal","2","0","1","0","1","Niederaendsch, english","43","","odd","325444","NA","NA","NA","NA","NA","NA","1673","NA","227606","1674","278221","317025","330277","328772","332031","328549","325440","NA","NA","231254","268785","NA","325223","NA","325444","NA","330277","330277","NA","NA","328769","NAP perception","1","1753","1","yes","1024"
"100","yes","100","1779","1779","white","no","xpyriment","Ich habe die obigen Informationen gelesen und verstanden.","legacy","legacy","0","uniform","1","0","NA","undefined","undefined","1","j","0","0","NA","NA","NA","NA","NA","0","0","0","0","0","0","1","1","1","0","0","NA","NA","0","0","0","0","NA","0","0","1","1","1","1","1","Fri Nov  3 13:48:28 2017","Forced-choice identification task with a practice and an experimental phase","yes","NAP_GER_AA_4blocks_noglides.osexp","/Users/aviadalbert/Documents/Academisch/UoC/Dissertation/Experiment/OpenSesame/NAP-FC/NAP_GER_AA_4blocks_noglides","yes","no","sans","no","20","no","black","no","Weiter","yes","768","legacy","1","1","0","/Users/aviadalbert/Documents/Academisch/UoC/Dissertation/Experiment/OpenSesame/NAP-FC/NAP_GER_AA_4blocks_noglides/subject-43.csv","xpyriment","Jazzy James","3.1.9","yes","yes","59a800d99ad5a1025d81bb03","59a801616c613b0251691de0","yes","no","0","j","f","NA","NA","space","space","j","1805","3104","NA","NA","38800","8134","1805","2","legacy","1024","1","44100","-16","experiment","lepal","2","0","1","0","1","Niederaendsch, english","43","","odd","325444","NA","NA","NA","NA","NA","NA","1673","NA","227606","1674","278221","317025","333820","332317","335626","328549","325440","NA","NA","231254","268785","NA","325223","NA","325444","NA","333820","333820","NA","NA","332313","NAP perception","2","3558","2","yes","1024"
"100","yes","100","1693.33333333","1693.33333333","white","no","xpyriment","Ich habe die obigen Informationen gelesen und verstanden.","legacy","legacy","0","uniform","1","0","NA","undefined","undefined","1","j","0","0","NA","NA","NA","NA","NA","0","0","0","0","0","0","2","2","2","0","0","NA","NA","0","0","0","0","NA","0","0","2","2","2","2","2","Fri Nov  3 13:48:28 2017","Forced-choice identification task with a practice and an experimental phase","yes","NAP_GER_AA_4blocks_noglides.osexp","/Users/aviadalbert/Documents/Academisch/UoC/Dissertation/Experiment/OpenSesame/NAP-FC/NAP_GER_AA_4blocks_noglides","yes","no","sans","no","20","no","black","no","Weiter","yes","768","legacy","2","2","0","/Users/aviadalbert/Documents/Academisch/UoC/Dissertation/Experiment/OpenSesame/NAP-FC/NAP_GER_AA_4blocks_noglides/subject-43.csv","xpyriment","Jazzy James","3.1.9","yes","yes","59a800d99ad5a1025d81bb03","59a801616c613b0251691de0","yes","no","0","j","f","NA","NA","space","space","j","1522","3104","NA","NA","38800","8134","1522","2","legacy","1024","1","44100","-16","experiment","emtal","2","0","1","0","1","Niederaendsch, english","43","","odd","325444","NA","NA","NA","NA","NA","NA","1673","NA","227606","1674","278221","317025","337412","335907","338935","328549","325440","NA","NA","231254","268785","NA","325223","NA","325444","NA","337412","337412","NA","NA","335903","NAP perception","3","5080","3","yes","1024"
"100","yes","100","1599","1599","white","no","xpyriment","Ich habe die obigen Informationen gelesen und verstanden.","legacy","legacy","0","uniform","1","0","NA","undefined","undefined","1","f","0","0","NA","NA","NA","NA","NA","0","0","0","0","0","0","3","3","3","0","0","NA","NA","0","0","0","0","NA","0","0","3","3","3","3","3","Fri Nov  3 13:48:28 2017","Forced-choice identification task with a practice and an experimental phase","yes","NAP_GER_AA_4blocks_noglides.osexp","/Users/aviadalbert/Documents/Academisch/UoC/Dissertation/Experiment/OpenSesame/NAP-FC/NAP_GER_AA_4blocks_noglides","yes","no","sans","no","20","no","black","no","Weiter","yes","768","legacy","3","3","0","/Users/aviadalbert/Documents/Academisch/UoC/Dissertation/Experiment/OpenSesame/NAP-FC/NAP_GER_AA_4blocks_noglides/subject-43.csv","xpyriment","Jazzy James","3.1.9","yes","yes","59a800d99ad5a1025d81bb03","59a801616c613b0251691de0","yes","no","0","f","f","NA","NA","space","space","f","1316","3104","NA","NA","38800","8134","1316","2","legacy","1024","1","44100","-16","experiment","ʃpal","2","0","1","0","1","Niederaendsch, english","43","","odd","325444","NA","NA","NA","NA","NA","NA","1673","NA","227606","1674","278221","317025","340717","339213","342034","328549","325440","NA","NA","231254","268785","NA","325223","NA","325444","NA","340717","340717","NA","NA","339209","NAP perception","4","6396","4","yes","1024"
"100","yes","100","1585","1585","white","no","xpyriment","Ich habe die obigen Informationen gelesen und verstanden.","legacy","legacy","0","uniform","1","0","NA","undefined","undefined","1","j","0","0","NA","NA","NA","NA","NA","0","0","0","0","0","0","4","4","4","0","0","NA","NA","0","0","0","0","NA","0","0","4","4","4","4","4","Fri Nov  3 13:48:28 2017","Forced-choice identification task with a practice and an experimental phase","yes","NAP_GER_AA_4blocks_noglides.osexp","/Users/aviadalbert/Documents/Academisch/UoC/Dissertation/Experiment/OpenSesame/NAP-FC/NAP_GER_AA_4blocks_noglides","yes","no","sans","no","20","no","black","no","Weiter","yes","768","legacy","4","4","0","/Users/aviadalbert/Documents/Academisch/UoC/Dissertation/Experiment/OpenSesame/NAP-FC/NAP_GER_AA_4blocks_noglides/subject-43.csv","xpyriment","Jazzy James","3.1.9","yes","yes","59a800d99ad5a1025d81bb03","59a801616c613b0251691de0","yes","no","0","j","f","NA","NA","space","space","j","1529","3104","NA","NA","38800","8134","1529","2","legacy","1024","1","44100","-16","experiment","nefal","2","0","1","0","1","Niederaendsch, english","43","","odd","325444","NA","NA","NA","NA","NA","NA","1673","NA","227606","1674","278221","317025","343837","342332","345367","328549","325440","NA","NA","231254","268785","NA","325223","NA","325444","NA","343837","343837","NA","NA","342328","NAP perception","5","7925","5","yes","1024"
"100","yes","100","1611.5","1611.5","white","no","xpyriment","Ich habe die obigen Informationen gelesen und verstanden.","legacy","legacy","0","uniform","1","0","NA","undefined","undefined","1","f","0","0","NA","NA","NA","NA","NA","0","0","0","0","0","0","5","5","5","0","0","NA","NA","0","0","0","0","NA","0","0","5","5","5","5","5","Fri Nov  3 13:48:28 2017","Forced-choice identification task with a practice and an experimental phase","yes","NAP_GER_AA_4blocks_noglides.osexp","/Users/aviadalbert/Documents/Academisch/UoC/Dissertation/Experiment/OpenSesame/NAP-FC/NAP_GER_AA_4blocks_noglides","yes","no","sans","no","20","no","black","no","Weiter","yes","768","legacy","5","5","0","/Users/aviadalbert/Documents/Academisch/UoC/Dissertation/Experiment/OpenSesame/NAP-FC/NAP_GER_AA_4blocks_noglides/subject-43.csv","xpyriment","Jazzy James","3.1.9","yes","yes","59a800d99ad5a1025d81bb03","59a801616c613b0251691de0","yes","no","0","f","f","NA","NA","space","space","f","1744","3104","NA","NA","38800","8134","1744","2","legacy","1024","1","44100","-16","experiment","sfal","2","0","1","0","1","Niederaendsch, english","43","","odd","325444","NA","NA","NA","NA","NA","NA","1673","NA","227606","1674","278221","317025","347146","345642","348891","328549","325440","NA","NA","231254","268785","NA","325223","NA","325444","NA","347145","347146","NA","NA","345638","NAP perception","6","9669","6","yes","1024"
"100","yes","100","1644.71428571","1644.71428571","white","no","xpyriment","Ich habe die obigen Informationen gelesen und verstanden.","legacy","legacy","0","uniform","1","0","NA","undefined","undefined","1","f","0","0","NA","NA","NA","NA","NA","0","0","0","0","0","0","6","6","6","0","0","NA","NA","0","0","0","0","NA","0","0","6","6","6","6","6","Fri Nov  3 13:48:28 2017","Forced-choice identification task with a practice and an experimental phase","yes","NAP_GER_AA_4blocks_noglides.osexp","/Users/aviadalbert/Documents/Academisch/UoC/Dissertation/Experiment/OpenSesame/NAP-FC/NAP_GER_AA_4blocks_noglides","yes","no","sans","no","20","no","black","no","Weiter","yes","768","legacy","6","6","0","/Users/aviadalbert/Documents/Academisch/UoC/Dissertation/Experiment/OpenSesame/NAP-FC/NAP_GER_AA_4blocks_noglides/subject-43.csv","xpyriment","Jazzy James","3.1.9","yes","yes","59a800d99ad5a1025d81bb03","59a801616c613b0251691de0","yes","no","0","f","f","NA","NA","space","space","f","1844","3104","NA","NA","38800","8134","1844","2","legacy","1024","1","44100","-16","experiment","zmal","2","0","1","0","1","Niederaendsch, english","43","","odd","325444","NA","NA","NA","NA","NA","NA","1673","NA","227606","1674","278221","317025","350666","349163","352511","328549","325440","NA","NA","231254","268785","NA","325223","NA","325444","NA","350666","350666","NA","NA","349159","NAP perception","7","11513","7","yes","1024"
"100","yes","100","1616.5","1616.5","white","no","xpyriment","Ich habe die obigen Informationen gelesen und verstanden.","legacy","legacy","0","uniform","1","0","NA","undefined","undefined","1","j","0","0","NA","NA","NA","NA","NA","0","0","0","0","0","0","7","7","7","0","0","NA","NA","0","0","0","0","NA","0","0","7","7","7","7","7","Fri Nov  3 13:48:28 2017","Forced-choice identification task with a practice and an experimental phase","yes","NAP_GER_AA_4blocks_noglides.osexp","/Users/aviadalbert/Documents/Academisch/UoC/Dissertation/Experiment/OpenSesame/NAP-FC/NAP_GER_AA_4blocks_noglides","yes","no","sans","no","20","no","black","no","Weiter","yes","768","legacy","7","7","0","/Users/aviadalbert/Documents/Academisch/UoC/Dissertation/Experiment/OpenSesame/NAP-FC/NAP_GER_AA_4blocks_noglides/subject-43.csv","xpyriment","Jazzy James","3.1.9","yes","yes","59a800d99ad5a1025d81bb03","59a801616c613b0251691de0","yes","no","0","j","f","NA","NA","space","space","j","1419","3104","NA","NA","38800","8134","1419","2","legacy","1024","1","44100","-16","experiment","mesal","2","0","1","0","1","Niederaendsch, english","43","","odd","325444","NA","NA","NA","NA","NA","NA","1673","NA","227606","1674","278221","317025","354286","352781","355706","328549","325440","NA","NA","231254","268785","NA","325223","NA","325444","NA","354286","354286","NA","NA","352778","NAP perception","8","12932","8","yes","1024"
"100","yes","100","1631.11111111","1631.11111111","white","no","xpyriment","Ich habe die obigen Informationen gelesen und verstanden.","legacy","legacy","0","uniform","1","0","NA","undefined","undefined","1","j","0","0","NA","NA","NA","NA","NA","0","0","0","0","0","0","8","8","8","0","0","NA","NA","0","0","0","0","NA","0","0","8","8","8","8","8","Fri Nov  3 13:48:28 2017","Forced-choice identification task with a practice and an experimental phase","yes","NAP_GER_AA_4blocks_noglides.osexp","/Users/aviadalbert/Documents/Academisch/UoC/Dissertation/Experiment/OpenSesame/NAP-FC/NAP_GER_AA_4blocks_noglides","yes","no","sans","no","20","no","black","no","Weiter","yes","768","legacy","8","8","0","/Users/aviadalbert/Documents/Academisch/UoC/Dissertation/Experiment/OpenSesame/NAP-FC/NAP_GER_AA_4blocks_noglides/subject-43.csv","xpyriment","Jazzy James","3.1.9","yes","yes","59a800d99ad5a1025d81bb03","59a801616c613b0251691de0","yes","no","0","j","f","NA","NA","space","space","j","1748","3104","NA","NA","38800","8134","1748","2","legacy","1024","1","44100","-16","experiment","enval","2","0","1","0","1","Niederaendsch, english","43","","odd","325444","NA","NA","NA","NA","NA","NA","1673","NA","227606","1674","278221","317025","357502","355996","359251","328549","325440","NA","NA","231254","268785","NA","325223","NA","325444","NA","357502","357502","NA","NA","355992","NAP perception","9","14680","9","yes","1024"
"100","yes","100","1643.7","1643.7","white","no","xpyriment","Ich habe die obigen Informationen gelesen und verstanden.","legacy","legacy","0","uniform","1","0","NA","undefined","undefined","1","f","0","0","NA","NA","NA","NA","NA","0","0","0","0","0","0","9","9","9","0","0","NA","NA","0","0","0","0","NA","0","0","9","9","9","9","9","Fri Nov  3 13:48:28 2017","Forced-choice identification task with a practice and an experimental phase","yes","NAP_GER_AA_4blocks_noglides.osexp","/Users/aviadalbert/Documents/Academisch/UoC/Dissertation/Experiment/OpenSesame/NAP-FC/NAP_GER_AA_4blocks_noglides","yes","no","sans","no","20","no","black","no","Weiter","yes","768","legacy","9","9","0","/Users/aviadalbert/Documents/Academisch/UoC/Dissertation/Experiment/OpenSesame/NAP-FC/NAP_GER_AA_4blocks_noglides/subject-43.csv","xpyriment","Jazzy James","3.1.9","yes","yes","59a800d99ad5a1025d81bb03","59a801616c613b0251691de0","yes","no","0","f","f","NA","NA","space","space","f","1757","3104","NA","NA","38800","8134","1757","2","legacy","1024","1","44100","-16","experiment","vlal","2","0","1","0","1","Niederaendsch, english","43","","odd","325444","NA","NA","NA","NA","NA","NA","1673","NA","227606","1674","278221","317025","361036","359533","362795","328549","325440","NA","NA","231254","268785","NA","325223","NA","325444","NA","361036","361036","NA","NA","359529","NAP perception","10","16437","10","yes","1024"
"0","yes","0","1598","1598","white","no","xpyriment","Ich habe die obigen Informationen gelesen und verstanden.","legacy","legacy","0","uniform","0","0","0","undefined","undefined","0","f","2","1","NA","0","1","0","0","0","0","0","0","0","0","10","10","10","0","0","0","NA","0","0","2","0","0","0","2","10","10","10","10","10","Fri Nov  3 13:48:28 2017","Forced-choice identification task with a practice and an experimental phase","yes","NAP_GER_AA_4blocks_noglides.osexp","/Users/aviadalbert/Documents/Academisch/UoC/Dissertation/Experiment/OpenSesame/NAP-FC/NAP_GER_AA_4blocks_noglides","yes","no","sans","no","20","no","black","no","Weiter","yes","768","legacy","0","9","0","/Users/aviadalbert/Documents/Academisch/UoC/Dissertation/Experiment/OpenSesame/NAP-FC/NAP_GER_AA_4blocks_noglides/subject-43.csv","xpyriment","Jazzy James","3.1.9","yes","yes","59a800d99ad5a1025d81bb03","59a801616c613b0251691de0","no","no","0","j","f","space","NA","space","space","j","1598","2180","31349","NA","38800","8134","1598","2","legacy","1024","1","44100","-16","experiment","lval","2","0","1","0","1","Niederaendsch, english","43","","odd","396407","364517","NA","NA","398588","396404","NA","1673","395921","227606","1674","278221","317025","400308","398802","401907","328549","325440","364517","NA","231254","268785","362855","325223","396407","325444","NA","400308","400308","NA","NA","398798","NAP perception","0","1598","1","yes","1024"
"50","yes","50","1343","1343","white","no","xpyriment","Ich habe die obigen Informationen gelesen und verstanden.","legacy","legacy","0","uniform","1","0","0","undefined","undefined","1","j","2","1","NA","0","1","0","0","0","0","0","0","0","0","11","11","11","0","0","0","NA","0","0","2","0","0","0","2","11","11","11","11","11","Fri Nov  3 13:48:28 2017","Forced-choice identification task with a practice and an experimental phase","yes","NAP_GER_AA_4blocks_noglides.osexp","/Users/aviadalbert/Documents/Academisch/UoC/Dissertation/Experiment/OpenSesame/NAP-FC/NAP_GER_AA_4blocks_noglides","yes","no","sans","no","20","no","black","no","Weiter","yes","768","legacy","1","9","0","/Users/aviadalbert/Documents/Academisch/UoC/Dissertation/Experiment/OpenSesame/NAP-FC/NAP_GER_AA_4blocks_noglides/subject-43.csv","xpyriment","Jazzy James","3.1.9","yes","yes","59a800d99ad5a1025d81bb03","59a801616c613b0251691de0","no","no","0","j","f","space","NA","space","space","j","1088","2180","31349","NA","38800","8134","1088","2","legacy","1024","1","44100","-16","experiment","elkal","2","0","1","0","1","Niederaendsch, english","43","","odd","396407","364517","NA","NA","398588","396404","NA","1673","395921","227606","1674","278221","317025","403692","402188","404781","328549","325440","364517","NA","231254","268785","362855","325223","396407","325444","NA","403692","403692","NA","NA","402184","NAP perception","1","2686","2","yes","1024"
"66.6666666667","yes","66.6666666667","1281.66666667","1281.66666667","white","no","xpyriment","Ich habe die obigen Informationen gelesen und verstanden.","legacy","legacy","0","uniform","1","0","0","undefined","undefined","1","j","2","1","NA","0","1","0","0","0","0","0","0","0","0","12","12","12","0","0","0","NA","0","0","2","0","0","0","2","12","12","12","12","12","Fri Nov  3 13:48:28 2017","Forced-choice identification task with a practice and an experimental phase","yes","NAP_GER_AA_4blocks_noglides.osexp","/Users/aviadalbert/Documents/Academisch/UoC/Dissertation/Experiment/OpenSesame/NAP-FC/NAP_GER_AA_4blocks_noglides","yes","no","sans","no","20","no","black","no","Weiter","yes","768","legacy","2","9","0","/Users/aviadalbert/Documents/Academisch/UoC/Dissertation/Experiment/OpenSesame/NAP-FC/NAP_GER_AA_4blocks_noglides/subject-43.csv","xpyriment","Jazzy James","3.1.9","yes","yes","59a800d99ad5a1025d81bb03","59a801616c613b0251691de0","no","no","0","j","f","space","NA","space","space","j","1159","2180","31349","NA","38800","8134","1159","2","legacy","1024","1","44100","-16","experiment","elpal","2","0","1","0","1","Niederaendsch, english","43","","odd","396407","364517","NA","NA","398588","396404","NA","1673","395921","227606","1674","278221","317025","406566","405060","407726","328549","325440","364517","NA","231254","268785","362855","325223","396407","325444","NA","406566","406566","NA","NA","405056","NAP perception","2","3845","3","yes","1024"
"75","yes","75","1209.25","1209.25","white","no","xpyriment","Ich habe die obigen Informationen gelesen und verstanden.","legacy","legacy","0","uniform","1","0","0","undefined","undefined","1","j","2","1","NA","0","1","0","0","0","0","0","0","0","0","13","13","13","0","0","0","NA","0","0","2","0","0","0","2","13","13","13","13","13","Fri Nov  3 13:48:28 2017","Forced-choice identification task with a practice and an experimental phase","yes","NAP_GER_AA_4blocks_noglides.osexp","/Users/aviadalbert/Documents/Academisch/UoC/Dissertation/Experiment/OpenSesame/NAP-FC/NAP_GER_AA_4blocks_noglides","yes","no","sans","no","20","no","black","no","Weiter","yes","768","legacy","3","9","0","/Users/aviadalbert/Documents/Academisch/UoC/Dissertation/Experiment/OpenSesame/NAP-FC/NAP_GER_AA_4blocks_noglides/subject-43.csv","xpyriment","Jazzy James","3.1.9","yes","yes","59a800d99ad5a1025d81bb03","59a801616c613b0251691de0","no","no","0","j","f","space","NA","space","space","j","992","2180","31349","NA","38800","8134","992","2","legacy","1024","1","44100","-16","experiment","lemal","2","0","1","0","1","Niederaendsch, english","43","","odd","396407","364517","NA","NA","398588","396404","NA","1673","395921","227606","1674","278221","317025","409517","408013","410511","328549","325440","364517","NA","231254","268785","362855","325223","396407","325444","NA","409517","409517","NA","NA","408009","NAP perception","3","4837","4","yes","1024"
"80","yes","80","1166.4","1166.4","white","no","xpyriment","Ich habe die obigen Informationen gelesen und verstanden.","legacy","legacy","0","uniform","1","0","0","undefined","undefined","1","j","2","1","NA","0","1","0","0","0","0","0","0","0","0","14","14","14","0","0","0","NA","0","0","2","0","0","0","2","14","14","14","14","14","Fri Nov  3 13:48:28 2017","Forced-choice identification task with a practice and an experimental phase","yes","NAP_GER_AA_4blocks_noglides.osexp","/Users/aviadalbert/Documents/Academisch/UoC/Dissertation/Experiment/OpenSesame/NAP-FC/NAP_GER_AA_4blocks_noglides","yes","no","sans","no","20","no","black","no","Weiter","yes","768","legacy","4","9","0","/Users/aviadalbert/Documents/Academisch/UoC/Dissertation/Experiment/OpenSesame/NAP-FC/NAP_GER_AA_4blocks_noglides/subject-43.csv","xpyriment","Jazzy James","3.1.9","yes","yes","59a800d99ad5a1025d81bb03","59a801616c613b0251691de0","no","no","0","j","f","space","NA","space","space","j","995","2180","31349","NA","38800","8134","995","2","legacy","1024","1","44100","-16","experiment","evzal","2","0","1","0","1","Niederaendsch, english","43","","odd","396407","364517","NA","NA","398588","396404","NA","1673","395921","227606","1674","278221","317025","412303","410799","413299","328549","325440","364517","NA","231254","268785","362855","325223","396407","325444","NA","412303","412303","NA","NA","410796","NAP perception","4","5832","5","yes","1024"
"66.6666666667","yes","66.6666666667","1122.5","1122.5","white","no","xpyriment","Ich habe die obigen Informationen gelesen und verstanden.","legacy","legacy","0","uniform","0","0","0","undefined","undefined","0","f","2","1","NA","0","1","0","0","0","0","0","0","0","0","15","15","15","0","0","0","NA","0","0","2","0","0","0","2","15","15","15","15","15","Fri Nov  3 13:48:28 2017","Forced-choice identification task with a practice and an experimental phase","yes","NAP_GER_AA_4blocks_noglides.osexp","/Users/aviadalbert/Documents/Academisch/UoC/Dissertation/Experiment/OpenSesame/NAP-FC/NAP_GER_AA_4blocks_noglides","yes","no","sans","no","20","no","black","no","Weiter","yes","768","legacy","5","9","0","/Users/aviadalbert/Documents/Academisch/UoC/Dissertation/Experiment/OpenSesame/NAP-FC/NAP_GER_AA_4blocks_noglides/subject-43.csv","xpyriment","Jazzy James","3.1.9","yes","yes","59a800d99ad5a1025d81bb03","59a801616c613b0251691de0","no","no","0","j","f","space","NA","space","space","j","903","2180","31349","NA","38800","8134","903","2","legacy","1024","1","44100","-16","experiment","mtal","2","0","1","0","1","Niederaendsch, english","43","","odd","396407","364517","NA","NA","398588","396404","NA","1673","395921","227606","1674","278221","317025","415089","413586","415993","328549","325440","364517","NA","231254","268785","362855","325223","396407","325444","NA","415089","415089","NA","NA","413582","NAP perception","4","6735","6","yes","1024"
"71.4285714286","yes","71.4285714286","1076.14285714","1076.14285714","white","no","xpyriment","Ich habe die obigen Informationen gelesen und verstanden.","legacy","legacy","0","uniform","1","0","0","undefined","undefined","1","j","2","1","NA","0","1","0","0","0","0","0","0","0","0","16","16","16","0","0","0","NA","0","0","2","0","0","0","2","16","16","16","16","16","Fri Nov  3 13:48:28 2017","Forced-choice identification task with a practice and an experimental phase","yes","NAP_GER_AA_4blocks_noglides.osexp","/Users/aviadalbert/Documents/Academisch/UoC/Dissertation/Experiment/OpenSesame/NAP-FC/NAP_GER_AA_4blocks_noglides","yes","no","sans","no","20","no","black","no","Weiter","yes","768","legacy","6","9","0","/Users/aviadalbert/Documents/Academisch/UoC/Dissertation/Experiment/OpenSesame/NAP-FC/NAP_GER_AA_4blocks_noglides/subject-43.csv","xpyriment","Jazzy James","3.1.9","yes","yes","59a800d99ad5a1025d81bb03","59a801616c613b0251691de0","no","no","0","j","f","space","NA","space","space","j","798","2180","31349","NA","38800","8134","798","2","legacy","1024","1","44100","-16","experiment","semal","2","0","1","0","1","Niederaendsch, english","43","","odd","396407","364517","NA","NA","398588","396404","NA","1673","395921","227606","1674","278221","317025","417788","416285","418587","328549","325440","364517","NA","231254","268785","362855","325223","396407","325444","NA","417788","417788","NA","NA","416281","NAP perception","5","7533","7","yes","1024"
"75","yes","75","1058.75","1058.75","white","no","xpyriment","Ich habe die obigen Informationen gelesen und verstanden.","legacy","legacy","0","uniform","1","0","0","undefined","undefined","1","j","2","1","NA","0","1","0","0","0","0","0","0","0","0","17","17","17","0","0","0","NA","0","0","2","0","0","0","2","17","17","17","17","17","Fri Nov  3 13:48:28 2017","Forced-choice identification task with a practice and an experimental phase","yes","NAP_GER_AA_4blocks_noglides.osexp","/Users/aviadalbert/Documents/Academisch/UoC/Dissertation/Experiment/OpenSesame/NAP-FC/NAP_GER_AA_4blocks_noglides","yes","no","sans","no","20","no","black","no","Weiter","yes","768","legacy","7","9","0","/Users/aviadalbert/Documents/Academisch/UoC/Dissertation/Experiment/OpenSesame/NAP-FC/NAP_GER_AA_4blocks_noglides/subject-43.csv","xpyriment","Jazzy James","3.1.9","yes","yes","59a800d99ad5a1025d81bb03","59a801616c613b0251691de0","no","no","0","j","f","space","NA","space","space","j","937","2180","31349","NA","38800","8134","937","2","legacy","1024","1","44100","-16","experiment","velal","2","0","1","0","1","Niederaendsch, english","43","","odd","396407","364517","NA","NA","398588","396404","NA","1673","395921","227606","1674","278221","317025","420361","418857","421299","328549","325440","364517","NA","231254","268785","362855","325223","396407","325444","NA","420360","420361","NA","NA","418853","NAP perception","6","8470","8","yes","1024"
"77.7777777778","yes","77.7777777778","1050.22222222","1050.22222222","white","no","xpyriment","Ich habe die obigen Informationen gelesen und verstanden.","legacy","legacy","0","uniform","1","0","0","undefined","undefined","1","j","2","1","NA","0","1","0","0","0","0","0","0","0","0","18","18","18","0","0","0","NA","0","0","2","0","0","0","2","18","18","18","18","18","Fri Nov  3 13:48:28 2017","Forced-choice identification task with a practice and an experimental phase","yes","NAP_GER_AA_4blocks_noglides.osexp","/Users/aviadalbert/Documents/Academisch/UoC/Dissertation/Experiment/OpenSesame/NAP-FC/NAP_GER_AA_4blocks_noglides","yes","no","sans","no","20","no","black","no","Weiter","yes","768","legacy","8","9","0","/Users/aviadalbert/Documents/Academisch/UoC/Dissertation/Experiment/OpenSesame/NAP-FC/NAP_GER_AA_4blocks_noglides/subject-43.csv","xpyriment","Jazzy James","3.1.9","yes","yes","59a800d99ad5a1025d81bb03","59a801616c613b0251691de0","no","no","0","j","f","space","NA","space","space","j","982","2180","31349","NA","38800","8134","982","2","legacy","1024","1","44100","-16","experiment","vezal","2","0","1","0","1","Niederaendsch, english","43","","odd","396407","364517","NA","NA","398588","396404","NA","1673","395921","227606","1674","278221","317025","423088","421585","424071","328549","325440","364517","NA","231254","268785","362855","325223","396407","325444","NA","423088","423088","NA","NA","421581","NAP perception","7","9452","9","yes","1024"
"80","yes","80","1045.4","1045.4","white","no","xpyriment","Ich habe die obigen Informationen gelesen und verstanden.","legacy","legacy","0","uniform","1","0","0","undefined","undefined","1","j","2","1","NA","0","1","0","0","0","0","0","0","0","0","19","19","19","0","0","0","NA","0","0","2","0","0","0","2","19","19","19","19","19","Fri Nov  3 13:48:28 2017","Forced-choice identification task with a practice and an experimental phase","yes","NAP_GER_AA_4blocks_noglides.osexp","/Users/aviadalbert/Documents/Academisch/UoC/Dissertation/Experiment/OpenSesame/NAP-FC/NAP_GER_AA_4blocks_noglides","yes","no","sans","no","20","no","black","no","Weiter","yes","768","legacy","9","9","0","/Users/aviadalbert/Documents/Academisch/UoC/Dissertation/Experiment/OpenSesame/NAP-FC/NAP_GER_AA_4blocks_noglides/subject-43.csv","xpyriment","Jazzy James","3.1.9","yes","yes","59a800d99ad5a1025d81bb03","59a801616c613b0251691de0","no","no","0","j","f","space","NA","space","space","j","1002","2180","31349","NA","38800","8134","1002","2","legacy","1024","1","44100","-16","experiment","venal","2","0","1","0","1","Niederaendsch, english","43","","odd","396407","364517","NA","NA","398588","396404","NA","1673","395921","227606","1674","278221","317025","425859","424354","426862","328549","325440","364517","NA","231254","268785","362855","325223","396407","325444","NA","425858","425859","NA","NA","424350","NAP perception","8","10454","10","yes","1024"
"81.8181818182","yes","81.8181818182","1062.90909091","1062.90909091","white","no","xpyriment","Ich habe die obigen Informationen gelesen und verstanden.","legacy","legacy","0","uniform","1","0","0","undefined","undefined","1","j","2","1","NA","0","1","0","0","0","0","0","0","0","0","20","20","20","0","0","0","NA","0","0","2","0","0","0","2","20","20","20","20","20","Fri Nov  3 13:48:28 2017","Forced-choice identification task with a practice and an experimental phase","yes","NAP_GER_AA_4blocks_noglides.osexp","/Users/aviadalbert/Documents/Academisch/UoC/Dissertation/Experiment/OpenSesame/NAP-FC/NAP_GER_AA_4blocks_noglides","yes","no","sans","no","20","no","black","no","Weiter","yes","768","legacy","10","9","0","/Users/aviadalbert/Documents/Academisch/UoC/Dissertation/Experiment/OpenSesame/NAP-FC/NAP_GER_AA_4blocks_noglides/subject-43.csv","xpyriment","Jazzy James","3.1.9","yes","yes","59a800d99ad5a1025d81bb03","59a801616c613b0251691de0","no","no","0","j","f","space","NA","space","space","j","1238","2180","31349","NA","38800","8134","1238","2","legacy","1024","1","44100","-16","experiment","efsal","2","0","1","0","1","Niederaendsch, english","43","","odd","396407","364517","NA","NA","398588","396404","NA","1673","395921","227606","1674","278221","317025","428649","427141","429888","328549","325440","364517","NA","231254","268785","362855","325223","396407","325444","NA","428649","428649","NA","NA","427137","NAP perception","9","11692","11","yes","1024"
"83.3333333333","yes","83.3333333333","1051.08333333","1051.08333333","white","no","xpyriment","Ich habe die obigen Informationen gelesen und verstanden.","legacy","legacy","0","uniform","1","0","0","undefined","undefined","1","j","2","1","NA","0","1","0","0","0","0","0","0","0","0","21","21","21","0","0","0","NA","0","0","2","0","0","0","2","21","21","21","21","21","Fri Nov  3 13:48:28 2017","Forced-choice identification task with a practice and an experimental phase","yes","NAP_GER_AA_4blocks_noglides.osexp","/Users/aviadalbert/Documents/Academisch/UoC/Dissertation/Experiment/OpenSesame/NAP-FC/NAP_GER_AA_4blocks_noglides","yes","no","sans","no","20","no","black","no","Weiter","yes","768","legacy","11","9","0","/Users/aviadalbert/Documents/Academisch/UoC/Dissertation/Experiment/OpenSesame/NAP-FC/NAP_GER_AA_4blocks_noglides/subject-43.csv","xpyriment","Jazzy James","3.1.9","yes","yes","59a800d99ad5a1025d81bb03","59a801616c613b0251691de0","no","no","0","j","f","space","NA","space","space","j","921","2180","31349","NA","38800","8134","921","2","legacy","1024","1","44100","-16","experiment","sepal","2","0","1","0","1","Niederaendsch, english","43","","odd","396407","364517","NA","NA","398588","396404","NA","1673","395921","227606","1674","278221","317025","431680","430172","432602","328549","325440","364517","NA","231254","268785","362855","325223","396407","325444","NA","431680","431680","NA","NA","430169","NAP perception","10","12613","12","yes","1024"
"84.6153846154","yes","84.6153846154","1032.15384615","1032.15384615","white","no","xpyriment","Ich habe die obigen Informationen gelesen und verstanden.","legacy","legacy","0","uniform","1","0","0","undefined","undefined","1","f","2","1","NA","0","1","0","0","0","0","0","0","0","0","22","22","22","0","0","0","NA","0","0","2","0","0","0","2","22","22","22","22","22","Fri Nov  3 13:48:28 2017","Forced-choice identification task with a practice and an experimental phase","yes","NAP_GER_AA_4blocks_noglides.osexp","/Users/aviadalbert/Documents/Academisch/UoC/Dissertation/Experiment/OpenSesame/NAP-FC/NAP_GER_AA_4blocks_noglides","yes","no","sans","no","20","no","black","no","Weiter","yes","768","legacy","12","9","0","/Users/aviadalbert/Documents/Academisch/UoC/Dissertation/Experiment/OpenSesame/NAP-FC/NAP_GER_AA_4blocks_noglides/subject-43.csv","xpyriment","Jazzy James","3.1.9","yes","yes","59a800d99ad5a1025d81bb03","59a801616c613b0251691de0","no","no","0","f","f","space","NA","space","space","f","805","2180","31349","NA","38800","8134","805","2","legacy","1024","1","44100","-16","experiment","smal","2","0","1","0","1","Niederaendsch, english","43","","odd","396407","364517","NA","NA","398588","396404","NA","1673","395921","227606","1674","278221","317025","434373","432870","435179","328549","325440","364517","NA","231254","268785","362855","325223","396407","325444","NA","434373","434373","NA","NA","432866","NAP perception","11","13418","13","yes","1024"
"78.5714285714","yes","78.5714285714","1083","1083","white","no","xpyriment","Ich habe die obigen Informationen gelesen und verstanden.","legacy","legacy","0","uniform","0","0","0","undefined","undefined","0","f","2","1","NA","0","1","0","0","0","0","0","0","0","0","23","23","23","0","0","0","NA","0","0","2","0","0","0","2","23","23","23","23","23","Fri Nov  3 13:48:28 2017","Forced-choice identification task with a practice and an experimental phase","yes","NAP_GER_AA_4blocks_noglides.osexp","/Users/aviadalbert/Documents/Academisch/UoC/Dissertation/Experiment/OpenSesame/NAP-FC/NAP_GER_AA_4blocks_noglides","yes","no","sans","no","20","no","black","no","Weiter","yes","768","legacy","13","9","0","/Users/aviadalbert/Documents/Academisch/UoC/Dissertation/Experiment/OpenSesame/NAP-FC/NAP_GER_AA_4blocks_noglides/subject-43.csv","xpyriment","Jazzy James","3.1.9","yes","yes","59a800d99ad5a1025d81bb03","59a801616c613b0251691de0","no","no","0","j","f","space","NA","space","space","j","1744","2180","31349","NA","38800","8134","1744","2","legacy","1024","1","44100","-16","experiment","ftal","2","0","1","0","1","Niederaendsch, english","43","","odd","396407","364517","NA","NA","398588","396404","NA","1673","395921","227606","1674","278221","317025","436963","435460","438708","328549","325440","364517","NA","231254","268785","362855","325223","396407","325444","NA","436963","436963","NA","NA","435456","NAP perception","11","15162","14","yes","1024"
"80","yes","80","1064.8","1064.8","white","no","xpyriment","Ich habe die obigen Informationen gelesen und verstanden.","legacy","legacy","0","uniform","1","0","0","undefined","undefined","1","j","2","1","NA","0","1","0","0","0","0","0","0","0","0","24","24","24","0","0","0","NA","0","0","2","0","0","0","2","24","24","24","24","24","Fri Nov  3 13:48:28 2017","Forced-choice identification task with a practice and an experimental phase","yes","NAP_GER_AA_4blocks_noglides.osexp","/Users/aviadalbert/Documents/Academisch/UoC/Dissertation/Experiment/OpenSesame/NAP-FC/NAP_GER_AA_4blocks_noglides","yes","no","sans","no","20","no","black","no","Weiter","yes","768","legacy","14","9","0","/Users/aviadalbert/Documents/Academisch/UoC/Dissertation/Experiment/OpenSesame/NAP-FC/NAP_GER_AA_4blocks_noglides/subject-43.csv","xpyriment","Jazzy James","3.1.9","yes","yes","59a800d99ad5a1025d81bb03","59a801616c613b0251691de0","no","no","0","j","f","space","NA","space","space","j","810","2180","31349","NA","38800","8134","810","2","legacy","1024","1","44100","-16","experiment","lepal","2","0","1","0","1","Niederaendsch, english","43","","odd","396407","364517","NA","NA","398588","396404","NA","1673","395921","227606","1674","278221","317025","440480","438973","441292","328549","325440","364517","NA","231254","268785","362855","325223","396407","325444","NA","440479","440479","NA","NA","438969","NAP perception","12","15972","15","yes","1024"
"81.25","yes","81.25","1084.5625","1084.5625","white","no","xpyriment","Ich habe die obigen Informationen gelesen und verstanden.","legacy","legacy","0","uniform","1","0","0","undefined","undefined","1","j","2","1","NA","0","1","0","0","0","0","0","0","0","0","25","25","25","0","0","0","NA","0","0","2","0","0","0","2","25","25","25","25","25","Fri Nov  3 13:48:28 2017","Forced-choice identification task with a practice and an experimental phase","yes","NAP_GER_AA_4blocks_noglides.osexp","/Users/aviadalbert/Documents/Academisch/UoC/Dissertation/Experiment/OpenSesame/NAP-FC/NAP_GER_AA_4blocks_noglides","yes","no","sans","no","20","no","black","no","Weiter","yes","768","legacy","15","9","0","/Users/aviadalbert/Documents/Academisch/UoC/Dissertation/Experiment/OpenSesame/NAP-FC/NAP_GER_AA_4blocks_noglides/subject-43.csv","xpyriment","Jazzy James","3.1.9","yes","yes","59a800d99ad5a1025d81bb03","59a801616c613b0251691de0","no","no","0","j","f","space","NA","space","space","j","1381","2180","31349","NA","38800","8134","1381","2","legacy","1024","1","44100","-16","experiment","eftal","2","0","1","0","1","Niederaendsch, english","43","","odd","396407","364517","NA","NA","398588","396404","NA","1673","395921","227606","1674","278221","317025","443074","441570","444457","328549","325440","364517","NA","231254","268785","362855","325223","396407","325444","NA","443073","443073","NA","NA","441566","NAP perception","13","17353","16","yes","1024"
"76.4705882353","yes","76.4705882353","1111.47058824","1111.47058824","white","no","xpyriment","Ich habe die obigen Informationen gelesen und verstanden.","legacy","legacy","0","uniform","0","0","0","undefined","undefined","0","f","2","1","NA","0","1","0","0","0","0","0","0","0","0","26","26","26","0","0","0","NA","0","0","2","0","0","0","2","26","26","26","26","26","Fri Nov  3 13:48:28 2017","Forced-choice identification task with a practice and an experimental phase","yes","NAP_GER_AA_4blocks_noglides.osexp","/Users/aviadalbert/Documents/Academisch/UoC/Dissertation/Experiment/OpenSesame/NAP-FC/NAP_GER_AA_4blocks_noglides","yes","no","sans","no","20","no","black","no","Weiter","yes","768","legacy","16","9","0","/Users/aviadalbert/Documents/Academisch/UoC/Dissertation/Experiment/OpenSesame/NAP-FC/NAP_GER_AA_4blocks_noglides/subject-43.csv","xpyriment","Jazzy James","3.1.9","yes","yes","59a800d99ad5a1025d81bb03","59a801616c613b0251691de0","no","no","0","j","f","space","NA","space","space","j","1542","2180","31349","NA","38800","8134","1542","2","legacy","1024","1","44100","-16","experiment","mtal","2","0","1","0","1","Niederaendsch, english","43","","odd","396407","364517","NA","NA","398588","396404","NA","1673","395921","227606","1674","278221","317025","446244","444741","447788","328549","325440","364517","NA","231254","268785","362855","325223","396407","325444","NA","446244","446244","NA","NA","444737","NAP perception","13","18895","17","yes","1024"
"77.7777777778","yes","77.7777777778","1160.33333333","1160.33333333","white","no","xpyriment","Ich habe die obigen Informationen gelesen und verstanden.","legacy","legacy","0","uniform","1","0","0","undefined","undefined","1","j","2","1","NA","0","1","0","0","0","0","0","0","0","0","27","27","27","0","0","0","NA","0","0","2","0","0","0","2","27","27","27","27","27","Fri Nov  3 13:48:28 2017","Forced-choice identification task with a practice and an experimental phase","yes","NAP_GER_AA_4blocks_noglides.osexp","/Users/aviadalbert/Documents/Academisch/UoC/Dissertation/Experiment/OpenSesame/NAP-FC/NAP_GER_AA_4blocks_noglides","yes","no","sans","no","20","no","black","no","Weiter","yes","768","legacy","17","9","0","/Users/aviadalbert/Documents/Academisch/UoC/Dissertation/Experiment/OpenSesame/NAP-FC/NAP_GER_AA_4blocks_noglides/subject-43.csv","xpyriment","Jazzy James","3.1.9","yes","yes","59a800d99ad5a1025d81bb03","59a801616c613b0251691de0","no","no","0","j","f","space","NA","space","space","j","1991","2180","31349","NA","38800","8134","1991","2","legacy","1024","1","44100","-16","experiment","esfal","2","0","1","0","1","Niederaendsch, english","43","","odd","396407","364517","NA","NA","398588","396404","NA","1673","395921","227606","1674","278221","317025","449571","448067","451563","328549","325440","364517","NA","231254","268785","362855","325223","396407","325444","NA","449571","449571","NA","NA","448063","NAP perception","14","20886","18","yes","1024"
"73.6842105263","yes","73.6842105263","1150.47368421","1150.47368421","white","no","xpyriment","Ich habe die obigen Informationen gelesen und verstanden.","legacy","legacy","0","uniform","0","0","0","undefined","undefined","0","f","2","1","NA","0","1","0","0","0","0","0","0","0","0","28","28","28","0","0","0","NA","0","0","2","0","0","0","2","28","28","28","28","28","Fri Nov  3 13:48:28 2017","Forced-choice identification task with a practice and an experimental phase","yes","NAP_GER_AA_4blocks_noglides.osexp","/Users/aviadalbert/Documents/Academisch/UoC/Dissertation/Experiment/OpenSesame/NAP-FC/NAP_GER_AA_4blocks_noglides","yes","no","sans","no","20","no","black","no","Weiter","yes","768","legacy","18","9","0","/Users/aviadalbert/Documents/Academisch/UoC/Dissertation/Experiment/OpenSesame/NAP-FC/NAP_GER_AA_4blocks_noglides/subject-43.csv","xpyriment","Jazzy James","3.1.9","yes","yes","59a800d99ad5a1025d81bb03","59a801616c613b0251691de0","no","no","0","j","f","space","NA","space","space","j","973","2180","31349","NA","38800","8134","973","2","legacy","1024","1","44100","-16","experiment","nval","2","0","1","0","1","Niederaendsch, english","43","","odd","396407","364517","NA","NA","398588","396404","NA","1673","395921","227606","1674","278221","317025","453350","451846","454324","328549","325440","364517","NA","231254","268785","362855","325223","396407","325444","NA","453350","453350","NA","NA","451842","NAP perception","14","21859","19","yes","1024"
"70","yes","70","1172.9","1172.9","white","no","xpyriment","Ich habe die obigen Informationen gelesen und verstanden.","legacy","legacy","0","uniform","0","0","0","undefined","undefined","0","f","2","1","NA","0","1","0","0","0","0","0","0","0","0","29","29","29","0","0","0","NA","0","0","2","0","0","0","2","29","29","29","29","29","Fri Nov  3 13:48:28 2017","Forced-choice identification task with a practice and an experimental phase","yes","NAP_GER_AA_4blocks_noglides.osexp","/Users/aviadalbert/Documents/Academisch/UoC/Dissertation/Experiment/OpenSesame/NAP-FC/NAP_GER_AA_4blocks_noglides","yes","no","sans","no","20","no","black","no","Weiter","yes","768","legacy","19","9","0","/Users/aviadalbert/Documents/Academisch/UoC/Dissertation/Experiment/OpenSesame/NAP-FC/NAP_GER_AA_4blocks_noglides/subject-43.csv","xpyriment","Jazzy James","3.1.9","yes","yes","59a800d99ad5a1025d81bb03","59a801616c613b0251691de0","no","no","0","j","f","space","NA","space","space","j","1599","2180","31349","NA","38800","8134","1599","2","legacy","1024","1","44100","-16","experiment","ʃfal","2","0","1","0","1","Niederaendsch, english","43","","odd","396407","364517","NA","NA","398588","396404","NA","1673","395921","227606","1674","278221","317025","456118","454613","457718","328549","325440","364517","NA","231254","268785","362855","325223","396407","325444","NA","456118","456118","NA","NA","454608","NAP perception","14","23458","20","yes","1024"
"71.4285714286","yes","71.4285714286","1155.57142857","1155.57142857","white","no","xpyriment","Ich habe die obigen Informationen gelesen und verstanden.","legacy","legacy","0","uniform","1","0","0","undefined","undefined","1","j","2","1","NA","0","1","0","0","0","0","0","0","0","0","30","30","30","0","0","0","NA","0","0","2","0","0","0","2","30","30","30","30","30","Fri Nov  3 13:48:28 2017","Forced-choice identification task with a practice and an experimental phase","yes","NAP_GER_AA_4blocks_noglides.osexp","/Users/aviadalbert/Documents/Academisch/UoC/Dissertation/Experiment/OpenSesame/NAP-FC/NAP_GER_AA_4blocks_noglides","yes","no","sans","no","20","no","black","no","Weiter","yes","768","legacy","20","9","0","/Users/aviadalbert/Documents/Academisch/UoC/Dissertation/Experiment/OpenSesame/NAP-FC/NAP_GER_AA_4blocks_noglides/subject-43.csv","xpyriment","Jazzy James","3.1.9","yes","yes","59a800d99ad5a1025d81bb03","59a801616c613b0251691de0","no","no","0","j","f","space","NA","space","space","j","809","2180","31349","NA","38800","8134","809","2","legacy","1024","1","44100","-16","experiment","ʃemal","2","0","1","0","1","Niederaendsch, english","43","","odd","396407","364517","NA","NA","398588","396404","NA","1673","395921","227606","1674","278221","317025","459500","457996","460310","328549","325440","364517","NA","231254","268785","362855","325223","396407","325444","NA","459500","459500","NA","NA","457993","NAP perception","15","24267","21","yes","1024"
"68.1818181818","yes","68.1818181818","1153.95454545","1153.95454545","white","no","xpyriment","Ich habe die obigen Informationen gelesen und verstanden.","legacy","legacy","0","uniform","0","0","0","undefined","undefined","0","f","2","1","NA","0","1","0","0","0","0","0","0","0","0","31","31","31","0","0","0","NA","0","0","2","0","0","0","2","31","31","31","31","31","Fri Nov  3 13:48:28 2017","Forced-choice identification task with a practice and an experimental phase","yes","NAP_GER_AA_4blocks_noglides.osexp","/Users/aviadalbert/Documents/Academisch/UoC/Dissertation/Experiment/OpenSesame/NAP-FC/NAP_GER_AA_4blocks_noglides","yes","no","sans","no","20","no","black","no","Weiter","yes","768","legacy","21","9","0","/Users/aviadalbert/Documents/Academisch/UoC/Dissertation/Experiment/OpenSesame/NAP-FC/NAP_GER_AA_4blocks_noglides/subject-43.csv","xpyriment","Jazzy James","3.1.9","yes","yes","59a800d99ad5a1025d81bb03","59a801616c613b0251691de0","no","no","0","j","f","space","NA","space","space","j","1120","2180","31349","NA","38800","8134","1120","2","legacy","1024","1","44100","-16","experiment","zmal","2","0","1","0","1","Niederaendsch, english","43","","odd","396407","364517","NA","NA","398588","396404","NA","1673","395921","227606","1674","278221","317025","462082","460579","463203","328549","325440","364517","NA","231254","268785","362855","325223","396407","325444","NA","462082","462082","NA","NA","460575","NAP perception","15","25387","22","yes","1024"
"69.5652173913","yes","69.5652173913","1166.52173913","1166.52173913","white","no","xpyriment","Ich habe die obigen Informationen gelesen und verstanden.","legacy","legacy","0","uniform","1","0","0","undefined","undefined","1","j","2","1","NA","0","1","0","0","0","0","0","0","0","0","32","32","32","0","0","0","NA","0","0","2","0","0","0","2","32","32","32","32","32","Fri Nov  3 13:48:28 2017","Forced-choice identification task with a practice and an experimental phase","yes","NAP_GER_AA_4blocks_noglides.osexp","/Users/aviadalbert/Documents/Academisch/UoC/Dissertation/Experiment/OpenSesame/NAP-FC/NAP_GER_AA_4blocks_noglides","yes","no","sans","no","20","no","black","no","Weiter","yes","768","legacy","22","9","0","/Users/aviadalbert/Documents/Academisch/UoC/Dissertation/Experiment/OpenSesame/NAP-FC/NAP_GER_AA_4blocks_noglides/subject-43.csv","xpyriment","Jazzy James","3.1.9","yes","yes","59a800d99ad5a1025d81bb03","59a801616c613b0251691de0","no","no","0","j","f","space","NA","space","space","j","1443","2180","31349","NA","38800","8134","1443","2","legacy","1024","1","44100","-16","experiment","evlal","2","0","1","0","1","Niederaendsch, english","43","","odd","396407","364517","NA","NA","398588","396404","NA","1673","395921","227606","1674","278221","317025","464990","463485","466434","328549","325440","364517","NA","231254","268785","362855","325223","396407","325444","NA","464990","464990","NA","NA","463481","NAP perception","16","26830","23","yes","1024"
"66.6666666667","yes","66.6666666667","1148.45833333","1148.45833333","white","no","xpyriment","Ich habe die obigen Informationen gelesen und verstanden.","legacy","legacy","0","uniform","0","0","0","undefined","undefined","0","f","2","1","NA","0","1","0","0","0","0","0","0","0","0","33","33","33","0","0","0","NA","0","0","2","0","0","0","2","33","33","33","33","33","Fri Nov  3 13:48:28 2017","Forced-choice identification task with a practice and an experimental phase","yes","NAP_GER_AA_4blocks_noglides.osexp","/Users/aviadalbert/Documents/Academisch/UoC/Dissertation/Experiment/OpenSesame/NAP-FC/NAP_GER_AA_4blocks_noglides","yes","no","sans","no","20","no","black","no","Weiter","yes","768","legacy","23","9","0","/Users/aviadalbert/Documents/Academisch/UoC/Dissertation/Experiment/OpenSesame/NAP-FC/NAP_GER_AA_4blocks_noglides/subject-43.csv","xpyriment","Jazzy James","3.1.9","yes","yes","59a800d99ad5a1025d81bb03","59a801616c613b0251691de0","no","no","0","j","f","space","NA","space","space","j","733","2180","31349","NA","38800","8134","733","2","legacy","1024","1","44100","-16","experiment","npal","2","0","1","0","1","Niederaendsch, english","43","","odd","396407","364517","NA","NA","398588","396404","NA","1673","395921","227606","1674","278221","317025","468204","466701","468939","328549","325440","364517","NA","231254","268785","362855","325223","396407","325444","NA","468204","468204","NA","NA","466697","NAP perception","16","27563","24","yes","1024"
"64","yes","64","1140.92","1140.92","white","no","xpyriment","Ich habe die obigen Informationen gelesen und verstanden.","legacy","legacy","0","uniform","0","0","0","undefined","undefined","0","f","2","1","NA","0","1","0","0","0","0","0","0","0","0","34","34","34","0","0","0","NA","0","0","2","0","0","0","2","34","34","34","34","34","Fri Nov  3 13:48:28 2017","Forced-choice identification task with a practice and an experimental phase","yes","NAP_GER_AA_4blocks_noglides.osexp","/Users/aviadalbert/Documents/Academisch/UoC/Dissertation/Experiment/OpenSesame/NAP-FC/NAP_GER_AA_4blocks_noglides","yes","no","sans","no","20","no","black","no","Weiter","yes","768","legacy","24","9","0","/Users/aviadalbert/Documents/Academisch/UoC/Dissertation/Experiment/OpenSesame/NAP-FC/NAP_GER_AA_4blocks_noglides/subject-43.csv","xpyriment","Jazzy James","3.1.9","yes","yes","59a800d99ad5a1025d81bb03","59a801616c613b0251691de0","no","no","0","j","f","space","NA","space","space","j","960","2180","31349","NA","38800","8134","960","2","legacy","1024","1","44100","-16","experiment","ʃmal","2","0","1","0","1","Niederaendsch, english","43","","odd","396407","364517","NA","NA","398588","396404","NA","1673","395921","227606","1674","278221","317025","470719","469215","471681","328549","325440","364517","NA","231254","268785","362855","325223","396407","325444","NA","470719","470719","NA","NA","469211","NAP perception","16","28523","25","yes","1024"
"65.3846153846","yes","65.3846153846","1178.07692308","1178.07692308","white","no","xpyriment","Ich habe die obigen Informationen gelesen und verstanden.","legacy","legacy","0","uniform","1","0","0","undefined","undefined","1","f","2","1","NA","0","1","0","0","0","0","0","0","0","0","35","35","35","0","0","0","NA","0","0","2","0","0","0","2","35","35","35","35","35","Fri Nov  3 13:48:28 2017","Forced-choice identification task with a practice and an experimental phase","yes","NAP_GER_AA_4blocks_noglides.osexp","/Users/aviadalbert/Documents/Academisch/UoC/Dissertation/Experiment/OpenSesame/NAP-FC/NAP_GER_AA_4blocks_noglides","yes","no","sans","no","20","no","black","no","Weiter","yes","768","legacy","25","9","0","/Users/aviadalbert/Documents/Academisch/UoC/Dissertation/Experiment/OpenSesame/NAP-FC/NAP_GER_AA_4blocks_noglides/subject-43.csv","xpyriment","Jazzy James","3.1.9","yes","yes","59a800d99ad5a1025d81bb03","59a801616c613b0251691de0","no","no","0","f","f","space","NA","space","space","f","2107","2180","31349","NA","38800","8134","2107","2","legacy","1024","1","44100","-16","experiment","flal","2","0","1","0","1","Niederaendsch, english","43","","odd","396407","364517","NA","NA","398588","396404","NA","1673","395921","227606","1674","278221","317025","473466","471959","475574","328549","325440","364517","NA","231254","268785","362855","325223","396407","325444","NA","473466","473466","NA","NA","471955","NAP perception","17","30630","26","yes","1024"
"66.6666666667","yes","66.6666666667","1181.7037037","1181.7037037","white","no","xpyriment","Ich habe die obigen Informationen gelesen und verstanden.","legacy","legacy","0","uniform","1","0","0","undefined","undefined","1","f","2","1","NA","0","1","0","0","0","0","0","0","0","0","36","36","36","0","0","0","NA","0","0","2","0","0","0","2","36","36","36","36","36","Fri Nov  3 13:48:28 2017","Forced-choice identification task with a practice and an experimental phase","yes","NAP_GER_AA_4blocks_noglides.osexp","/Users/aviadalbert/Documents/Academisch/UoC/Dissertation/Experiment/OpenSesame/NAP-FC/NAP_GER_AA_4blocks_noglides","yes","no","sans","no","20","no","black","no","Weiter","yes","768","legacy","26","9","0","/Users/aviadalbert/Documents/Academisch/UoC/Dissertation/Experiment/OpenSesame/NAP-FC/NAP_GER_AA_4blocks_noglides/subject-43.csv","xpyriment","Jazzy James","3.1.9","yes","yes","59a800d99ad5a1025d81bb03","59a801616c613b0251691de0","no","no","0","f","f","space","NA","space","space","f","1276","2180","31349","NA","38800","8134","1276","2","legacy","1024","1","44100","-16","experiment","spal","2","0","1","0","1","Niederaendsch, english","43","","odd","396407","364517","NA","NA","398588","396404","NA","1673","395921","227606","1674","278221","317025","477354","475848","478631","328549","325440","364517","NA","231254","268785","362855","325223","396407","325444","NA","477354","477354","NA","NA","475844","NAP perception","18","31906","27","yes","1024"
"64.2857142857","yes","64.2857142857","1173.32142857","1173.32142857","white","no","xpyriment","Ich habe die obigen Informationen gelesen und verstanden.","legacy","legacy","0","uniform","0","0","0","undefined","undefined","0","f","2","1","NA","0","1","0","0","0","0","0","0","0","0","37","37","37","0","0","0","NA","0","0","2","0","0","0","2","37","37","37","37","37","Fri Nov  3 13:48:28 2017","Forced-choice identification task with a practice and an experimental phase","yes","NAP_GER_AA_4blocks_noglides.osexp","/Users/aviadalbert/Documents/Academisch/UoC/Dissertation/Experiment/OpenSesame/NAP-FC/NAP_GER_AA_4blocks_noglides","yes","no","sans","no","20","no","black","no","Weiter","yes","768","legacy","27","9","0","/Users/aviadalbert/Documents/Academisch/UoC/Dissertation/Experiment/OpenSesame/NAP-FC/NAP_GER_AA_4blocks_noglides/subject-43.csv","xpyriment","Jazzy James","3.1.9","yes","yes","59a800d99ad5a1025d81bb03","59a801616c613b0251691de0","no","no","0","j","f","space","NA","space","space","j","947","2180","31349","NA","38800","8134","947","2","legacy","1024","1","44100","-16","experiment","nmal","2","0","1","0","1","Niederaendsch, english","43","","odd","396407","364517","NA","NA","398588","396404","NA","1673","395921","227606","1674","278221","317025","480414","478911","481362","328549","325440","364517","NA","231254","268785","362855","325223","396407","325444","NA","480414","480414","NA","NA","478907","NAP perception","18","32853","28","yes","1024"
"65.5172413793","yes","65.5172413793","1168.20689655","1168.20689655","white","no","xpyriment","Ich habe die obigen Informationen gelesen und verstanden.","legacy","legacy","0","uniform","1","0","0","undefined","undefined","1","j","2","1","NA","0","1","0","0","0","0","0","0","0","0","38","38","38","0","0","0","NA","0","0","2","0","0","0","2","38","38","38","38","38","Fri Nov  3 13:48:28 2017","Forced-choice identification task with a practice and an experimental phase","yes","NAP_GER_AA_4blocks_noglides.osexp","/Users/aviadalbert/Documents/Academisch/UoC/Dissertation/Experiment/OpenSesame/NAP-FC/NAP_GER_AA_4blocks_noglides","yes","no","sans","no","20","no","black","no","Weiter","yes","768","legacy","28","9","0","/Users/aviadalbert/Documents/Academisch/UoC/Dissertation/Experiment/OpenSesame/NAP-FC/NAP_GER_AA_4blocks_noglides/subject-43.csv","xpyriment","Jazzy James","3.1.9","yes","yes","59a800d99ad5a1025d81bb03","59a801616c613b0251691de0","no","no","0","j","f","space","NA","space","space","j","1025","2180","31349","NA","38800","8134","1025","2","legacy","1024","1","44100","-16","experiment","esmal","2","0","1","0","1","Niederaendsch, english","43","","odd","396407","364517","NA","NA","398588","396404","NA","1673","395921","227606","1674","278221","317025","483135","481631","484161","328549","325440","364517","NA","231254","268785","362855","325223","396407","325444","NA","483135","483135","NA","NA","481627","NAP perception","19","33878","29","yes","1024"
"66.6666666667","yes","66.6666666667","1155.2","1155.2","white","no","xpyriment","Ich habe die obigen Informationen gelesen und verstanden.","legacy","legacy","0","uniform","1","0","0","undefined","undefined","1","f","2","1","NA","0","1","0","0","0","0","0","0","0","0","39","39","39","0","0","0","NA","0","0","2","0","0","0","2","39","39","39","39","39","Fri Nov  3 13:48:28 2017","Forced-choice identification task with a practice and an experimental phase","yes","NAP_GER_AA_4blocks_noglides.osexp","/Users/aviadalbert/Documents/Academisch/UoC/Dissertation/Experiment/OpenSesame/NAP-FC/NAP_GER_AA_4blocks_noglides","yes","no","sans","no","20","no","black","no","Weiter","yes","768","legacy","29","9","0","/Users/aviadalbert/Documents/Academisch/UoC/Dissertation/Experiment/OpenSesame/NAP-FC/NAP_GER_AA_4blocks_noglides/subject-43.csv","xpyriment","Jazzy James","3.1.9","yes","yes","59a800d99ad5a1025d81bb03","59a801616c613b0251691de0","no","no","0","f","f","space","NA","space","space","f","778","2180","31349","NA","38800","8134","778","2","legacy","1024","1","44100","-16","experiment","flal","2","0","1","0","1","Niederaendsch, english","43","","odd","396407","364517","NA","NA","398588","396404","NA","1673","395921","227606","1674","278221","317025","485946","484441","486726","328549","325440","364517","NA","231254","268785","362855","325223","396407","325444","NA","485945","485945","NA","NA","484437","NAP perception","20","34656","30","yes","1024"
"64.5161290323","yes","64.5161290323","1154.25806452","1154.25806452","white","no","xpyriment","Ich habe die obigen Informationen gelesen und verstanden.","legacy","legacy","0","uniform","0","0","0","undefined","undefined","0","f","2","1","NA","0","1","0","0","0","0","0","0","0","0","40","40","40","0","0","0","NA","0","0","2","0","0","0","2","40","40","40","40","40","Fri Nov  3 13:48:28 2017","Forced-choice identification task with a practice and an experimental phase","yes","NAP_GER_AA_4blocks_noglides.osexp","/Users/aviadalbert/Documents/Academisch/UoC/Dissertation/Experiment/OpenSesame/NAP-FC/NAP_GER_AA_4blocks_noglides","yes","no","sans","no","20","no","black","no","Weiter","yes","768","legacy","30","9","0","/Users/aviadalbert/Documents/Academisch/UoC/Dissertation/Experiment/OpenSesame/NAP-FC/NAP_GER_AA_4blocks_noglides/subject-43.csv","xpyriment","Jazzy James","3.1.9","yes","yes","59a800d99ad5a1025d81bb03","59a801616c613b0251691de0","no","no","0","j","f","space","NA","space","space","j","1126","2180","31349","NA","38800","8134","1126","2","legacy","1024","1","44100","-16","experiment","zval","2","0","1","0","1","Niederaendsch, english","43","","odd","396407","364517","NA","NA","398588","396404","NA","1673","395921","227606","1674","278221","317025","488502","486999","489630","328549","325440","364517","NA","231254","268785","362855","325223","396407","325444","NA","488502","488502","NA","NA","486995","NAP perception","20","35782","31","yes","1024"
"62.5","yes","62.5","1145.84375","1145.84375","white","no","xpyriment","Ich habe die obigen Informationen gelesen und verstanden.","legacy","legacy","0","uniform","0","0","0","undefined","undefined","0","f","2","1","NA","0","1","0","0","0","0","0","0","0","0","41","41","41","0","0","0","NA","0","0","2","0","0","0","2","41","41","41","41","41","Fri Nov  3 13:48:28 2017","Forced-choice identification task with a practice and an experimental phase","yes","NAP_GER_AA_4blocks_noglides.osexp","/Users/aviadalbert/Documents/Academisch/UoC/Dissertation/Experiment/OpenSesame/NAP-FC/NAP_GER_AA_4blocks_noglides","yes","no","sans","no","20","no","black","no","Weiter","yes","768","legacy","31","9","0","/Users/aviadalbert/Documents/Academisch/UoC/Dissertation/Experiment/OpenSesame/NAP-FC/NAP_GER_AA_4blocks_noglides/subject-43.csv","xpyriment","Jazzy James","3.1.9","yes","yes","59a800d99ad5a1025d81bb03","59a801616c613b0251691de0","no","no","0","j","f","space","NA","space","space","j","885","2180","31349","NA","38800","8134","885","2","legacy","1024","1","44100","-16","experiment","lpal","2","0","1","0","1","Niederaendsch, english","43","","odd","396407","364517","NA","NA","398588","396404","NA","1673","395921","227606","1674","278221","317025","491403","489900","492290","328549","325440","364517","NA","231254","268785","362855","325223","396407","325444","NA","491403","491403","NA","NA","489896","NAP perception","20","36667","32","yes","1024"
"63.6363636364","yes","63.6363636364","1139.09090909","1139.09090909","white","no","xpyriment","Ich habe die obigen Informationen gelesen und verstanden.","legacy","legacy","0","uniform","1","0","0","undefined","undefined","1","j","2","1","NA","0","1","0","0","0","0","0","0","0","0","42","42","42","0","0","0","NA","0","0","2","0","0","0","2","42","42","42","42","42","Fri Nov  3 13:48:28 2017","Forced-choice identification task with a practice and an experimental phase","yes","NAP_GER_AA_4blocks_noglides.osexp","/Users/aviadalbert/Documents/Academisch/UoC/Dissertation/Experiment/OpenSesame/NAP-FC/NAP_GER_AA_4blocks_noglides","yes","no","sans","no","20","no","black","no","Weiter","yes","768","legacy","32","9","0","/Users/aviadalbert/Documents/Academisch/UoC/Dissertation/Experiment/OpenSesame/NAP-FC/NAP_GER_AA_4blocks_noglides/subject-43.csv","xpyriment","Jazzy James","3.1.9","yes","yes","59a800d99ad5a1025d81bb03","59a801616c613b0251691de0","no","no","0","j","f","space","NA","space","space","j","923","2180","31349","NA","38800","8134","923","2","legacy","1024","1","44100","-16","experiment","emlal","2","0","1","0","1","Niederaendsch, english","43","","odd","396407","364517","NA","NA","398588","396404","NA","1673","395921","227606","1674","278221","317025","494075","492572","495000","328549","325440","364517","NA","231254","268785","362855","325223","396407","325444","NA","494075","494075","NA","NA","492568","NAP perception","21","37590","33","yes","1024"
"61.7647058824","yes","61.7647058824","1133.58823529","1133.58823529","white","no","xpyriment","Ich habe die obigen Informationen gelesen und verstanden.","legacy","legacy","0","uniform","0","0","0","undefined","undefined","0","f","2","1","NA","0","1","0","0","0","0","0","0","0","0","43","43","43","0","0","0","NA","0","0","2","0","0","0","2","43","43","43","43","43","Fri Nov  3 13:48:28 2017","Forced-choice identification task with a practice and an experimental phase","yes","NAP_GER_AA_4blocks_noglides.osexp","/Users/aviadalbert/Documents/Academisch/UoC/Dissertation/Experiment/OpenSesame/NAP-FC/NAP_GER_AA_4blocks_noglides","yes","no","sans","no","20","no","black","no","Weiter","yes","768","legacy","33","9","0","/Users/aviadalbert/Documents/Academisch/UoC/Dissertation/Experiment/OpenSesame/NAP-FC/NAP_GER_AA_4blocks_noglides/subject-43.csv","xpyriment","Jazzy James","3.1.9","yes","yes","59a800d99ad5a1025d81bb03","59a801616c613b0251691de0","no","no","0","j","f","space","NA","space","space","j","952","2180","31349","NA","38800","8134","952","2","legacy","1024","1","44100","-16","experiment","lfal","2","0","1","0","1","Niederaendsch, english","43","","odd","396407","364517","NA","NA","398588","396404","NA","1673","395921","227606","1674","278221","317025","496783","495277","497737","328549","325440","364517","NA","231254","268785","362855","325223","396407","325444","NA","496783","496783","NA","NA","495273","NAP perception","21","38542","34","yes","1024"
"62.8571428571","yes","62.8571428571","1126.91428571","1126.91428571","white","no","xpyriment","Ich habe die obigen Informationen gelesen und verstanden.","legacy","legacy","0","uniform","1","0","0","undefined","undefined","1","j","2","1","NA","0","1","0","0","0","0","0","0","0","0","44","44","44","0","0","0","NA","0","0","2","0","0","0","2","44","44","44","44","44","Fri Nov  3 13:48:28 2017","Forced-choice identification task with a practice and an experimental phase","yes","NAP_GER_AA_4blocks_noglides.osexp","/Users/aviadalbert/Documents/Academisch/UoC/Dissertation/Experiment/OpenSesame/NAP-FC/NAP_GER_AA_4blocks_noglides","yes","no","sans","no","20","no","black","no","Weiter","yes","768","legacy","34","9","0","/Users/aviadalbert/Documents/Academisch/UoC/Dissertation/Experiment/OpenSesame/NAP-FC/NAP_GER_AA_4blocks_noglides/subject-43.csv","xpyriment","Jazzy James","3.1.9","yes","yes","59a800d99ad5a1025d81bb03","59a801616c613b0251691de0","no","no","0","j","f","space","NA","space","space","j","900","2180","31349","NA","38800","8134","900","2","legacy","1024","1","44100","-16","experiment","ʃepal","2","0","1","0","1","Niederaendsch, english","43","","odd","396407","364517","NA","NA","398588","396404","NA","1673","395921","227606","1674","278221","317025","499518","498015","500420","328549","325440","364517","NA","231254","268785","362855","325223","396407","325444","NA","499518","499518","NA","NA","498011","NAP perception","22","39442","35","yes","1024"
"63.8888888889","yes","63.8888888889","1120.11111111","1120.11111111","white","no","xpyriment","Ich habe die obigen Informationen gelesen und verstanden.","legacy","legacy","0","uniform","1","0","0","undefined","undefined","1","j","2","1","NA","0","1","0","0","0","0","0","0","0","0","45","45","45","0","0","0","NA","0","0","2","0","0","0","2","45","45","45","45","45","Fri Nov  3 13:48:28 2017","Forced-choice identification task with a practice and an experimental phase","yes","NAP_GER_AA_4blocks_noglides.osexp","/Users/aviadalbert/Documents/Academisch/UoC/Dissertation/Experiment/OpenSesame/NAP-FC/NAP_GER_AA_4blocks_noglides","yes","no","sans","no","20","no","black","no","Weiter","yes","768","legacy","35","9","0","/Users/aviadalbert/Documents/Academisch/UoC/Dissertation/Experiment/OpenSesame/NAP-FC/NAP_GER_AA_4blocks_noglides/subject-43.csv","xpyriment","Jazzy James","3.1.9","yes","yes","59a800d99ad5a1025d81bb03","59a801616c613b0251691de0","no","no","0","j","f","space","NA","space","space","j","882","2180","31349","NA","38800","8134","882","2","legacy","1024","1","44100","-16","experiment","neval","2","0","1","0","1","Niederaendsch, english","43","","odd","396407","364517","NA","NA","398588","396404","NA","1673","395921","227606","1674","278221","317025","502200","500697","503083","328549","325440","364517","NA","231254","268785","362855","325223","396407","325444","NA","502200","502200","NA","NA","500693","NAP perception","23","40324","36","yes","1024"
"62.1621621622","yes","62.1621621622","1114.83783784","1114.83783784","white","no","xpyriment","Ich habe die obigen Informationen gelesen und verstanden.","legacy","legacy","0","uniform","0","0","0","undefined","undefined","0","f","2","1","NA","0","1","0","0","0","0","0","0","0","0","46","46","46","0","0","0","NA","0","0","2","0","0","0","2","46","46","46","46","46","Fri Nov  3 13:48:28 2017","Forced-choice identification task with a practice and an experimental phase","yes","NAP_GER_AA_4blocks_noglides.osexp","/Users/aviadalbert/Documents/Academisch/UoC/Dissertation/Experiment/OpenSesame/NAP-FC/NAP_GER_AA_4blocks_noglides","yes","no","sans","no","20","no","black","no","Weiter","yes","768","legacy","36","9","0","/Users/aviadalbert/Documents/Academisch/UoC/Dissertation/Experiment/OpenSesame/NAP-FC/NAP_GER_AA_4blocks_noglides/subject-43.csv","xpyriment","Jazzy James","3.1.9","yes","yes","59a800d99ad5a1025d81bb03","59a801616c613b0251691de0","no","no","0","j","f","space","NA","space","space","j","925","2180","31349","NA","38800","8134","925","2","legacy","1024","1","44100","-16","experiment","nfal","2","0","1","0","1","Niederaendsch, english","43","","odd","396407","364517","NA","NA","398588","396404","NA","1673","395921","227606","1674","278221","317025","504870","503364","505796","328549","325440","364517","NA","231254","268785","362855","325223","396407","325444","NA","504870","504870","NA","NA","503360","NAP perception","23","41249","37","yes","1024"
"63.1578947368","yes","63.1578947368","1106.86842105","1106.86842105","white","no","xpyriment","Ich habe die obigen Informationen gelesen und verstanden.","legacy","legacy","0","uniform","1","0","0","undefined","undefined","1","j","2","1","NA","0","1","0","0","0","0","0","0","0","0","47","47","47","0","0","0","NA","0","0","2","0","0","0","2","47","47","47","47","47","Fri Nov  3 13:48:28 2017","Forced-choice identification task with a practice and an experimental phase","yes","NAP_GER_AA_4blocks_noglides.osexp","/Users/aviadalbert/Documents/Academisch/UoC/Dissertation/Experiment/OpenSesame/NAP-FC/NAP_GER_AA_4blocks_noglides","yes","no","sans","no","20","no","black","no","Weiter","yes","768","legacy","37","9","0","/Users/aviadalbert/Documents/Academisch/UoC/Dissertation/Experiment/OpenSesame/NAP-FC/NAP_GER_AA_4blocks_noglides/subject-43.csv","xpyriment","Jazzy James","3.1.9","yes","yes","59a800d99ad5a1025d81bb03","59a801616c613b0251691de0","no","no","0","j","f","space","NA","space","space","j","812","2180","31349","NA","38800","8134","812","2","legacy","1024","1","44100","-16","experiment","metal","2","0","1","0","1","Niederaendsch, english","43","","odd","396407","364517","NA","NA","398588","396404","NA","1673","395921","227606","1674","278221","317025","507569","506065","508382","328549","325440","364517","NA","231254","268785","362855","325223","396407","325444","NA","507569","507569","NA","NA","506061","NAP perception","24","42061","38","yes","1024"
"64.1025641026","yes","64.1025641026","1099.53846154","1099.53846154","white","no","xpyriment","Ich habe die obigen Informationen gelesen und verstanden.","legacy","legacy","0","uniform","1","0","0","undefined","undefined","1","f","2","1","NA","0","1","0","0","0","0","0","0","0","0","48","48","48","0","0","0","NA","0","0","2","0","0","0","2","48","48","48","48","48","Fri Nov  3 13:48:28 2017","Forced-choice identification task with a practice and an experimental phase","yes","NAP_GER_AA_4blocks_noglides.osexp","/Users/aviadalbert/Documents/Academisch/UoC/Dissertation/Experiment/OpenSesame/NAP-FC/NAP_GER_AA_4blocks_noglides","yes","no","sans","no","20","no","black","no","Weiter","yes","768","legacy","38","9","0","/Users/aviadalbert/Documents/Academisch/UoC/Dissertation/Experiment/OpenSesame/NAP-FC/NAP_GER_AA_4blocks_noglides/subject-43.csv","xpyriment","Jazzy James","3.1.9","yes","yes","59a800d99ad5a1025d81bb03","59a801616c613b0251691de0","no","no","0","f","f","space","NA","space","space","f","821","2180","31349","NA","38800","8134","821","2","legacy","1024","1","44100","-16","experiment","ʃpal","2","0","1","0","1","Niederaendsch, english","43","","odd","396407","364517","NA","NA","398588","396404","NA","1673","395921","227606","1674","278221","317025","510175","508669","510997","328549","325440","364517","NA","231254","268785","362855","325223","396407","325444","NA","510174","510174","NA","NA","508665","NAP perception","25","42882","39","yes","1024"
"65","yes","65","1098.6","1098.6","white","no","xpyriment","Ich habe die obigen Informationen gelesen und verstanden.","legacy","legacy","0","uniform","1","0","0","undefined","undefined","1","j","2","1","NA","0","1","0","0","0","0","0","0","0","0","49","49","49","0","0","0","NA","0","0","2","0","0","0","2","49","49","49","49","49","Fri Nov  3 13:48:28 2017","Forced-choice identification task with a practice and an experimental phase","yes","NAP_GER_AA_4blocks_noglides.osexp","/Users/aviadalbert/Documents/Academisch/UoC/Dissertation/Experiment/OpenSesame/NAP-FC/NAP_GER_AA_4blocks_noglides","yes","no","sans","no","20","no","black","no","Weiter","yes","768","legacy","39","9","0","/Users/aviadalbert/Documents/Academisch/UoC/Dissertation/Experiment/OpenSesame/NAP-FC/NAP_GER_AA_4blocks_noglides/subject-43.csv","xpyriment","Jazzy James","3.1.9","yes","yes","59a800d99ad5a1025d81bb03","59a801616c613b0251691de0","no","no","0","j","f","space","NA","space","space","j","1062","2180","31349","NA","38800","8134","1062","2","legacy","1024","1","44100","-16","experiment","fesal","2","0","1","0","1","Niederaendsch, english","43","","odd","396407","364517","NA","NA","398588","396404","NA","1673","395921","227606","1674","278221","317025","512783","511279","513846","328549","325440","364517","NA","231254","268785","362855","325223","396407","325444","NA","512783","512783","NA","NA","511276","NAP perception","26","43944","40","yes","1024"
"65.8536585366","yes","65.8536585366","1109.70731707","1109.70731707","white","no","xpyriment","Ich habe die obigen Informationen gelesen und verstanden.","legacy","legacy","0","uniform","1","0","0","undefined","undefined","1","j","2","1","NA","0","1","0","0","0","0","0","0","0","0","50","50","50","0","0","0","NA","0","0","2","0","0","0","2","50","50","50","50","50","Fri Nov  3 13:48:28 2017","Forced-choice identification task with a practice and an experimental phase","yes","NAP_GER_AA_4blocks_noglides.osexp","/Users/aviadalbert/Documents/Academisch/UoC/Dissertation/Experiment/OpenSesame/NAP-FC/NAP_GER_AA_4blocks_noglides","yes","no","sans","no","20","no","black","no","Weiter","yes","768","legacy","40","9","0","/Users/aviadalbert/Documents/Academisch/UoC/Dissertation/Experiment/OpenSesame/NAP-FC/NAP_GER_AA_4blocks_noglides/subject-43.csv","xpyriment","Jazzy James","3.1.9","yes","yes","59a800d99ad5a1025d81bb03","59a801616c613b0251691de0","no","no","0","j","f","space","NA","space","space","j","1554","2180","31349","NA","38800","8134","1554","2","legacy","1024","1","44100","-16","experiment","ezval","2","0","1","0","1","Niederaendsch, english","43","","odd","396407","364517","NA","NA","398588","396404","NA","1673","395921","227606","1674","278221","317025","515625","514122","517180","328549","325440","364517","NA","231254","268785","362855","325223","396407","325444","NA","515625","515625","NA","NA","514118","NAP perception","27","45498","41","yes","1024"
"66.6666666667","yes","66.6666666667","1119.23809524","1119.23809524","white","no","xpyriment","Ich habe die obigen Informationen gelesen und verstanden.","legacy","legacy","0","uniform","1","0","0","undefined","undefined","1","j","2","1","NA","0","1","0","0","0","0","0","0","0","0","51","51","51","0","0","0","NA","0","0","2","0","0","0","2","51","51","51","51","51","Fri Nov  3 13:48:28 2017","Forced-choice identification task with a practice and an experimental phase","yes","NAP_GER_AA_4blocks_noglides.osexp","/Users/aviadalbert/Documents/Academisch/UoC/Dissertation/Experiment/OpenSesame/NAP-FC/NAP_GER_AA_4blocks_noglides","yes","no","sans","no","20","no","black","no","Weiter","yes","768","legacy","41","9","0","/Users/aviadalbert/Documents/Academisch/UoC/Dissertation/Experiment/OpenSesame/NAP-FC/NAP_GER_AA_4blocks_noglides/subject-43.csv","xpyriment","Jazzy James","3.1.9","yes","yes","59a800d99ad5a1025d81bb03","59a801616c613b0251691de0","no","no","0","j","f","space","NA","space","space","j","1510","2180","31349","NA","38800","8134","1510","2","legacy","1024","1","44100","-16","experiment","enval","2","0","1","0","1","Niederaendsch, english","43","","odd","396407","364517","NA","NA","398588","396404","NA","1673","395921","227606","1674","278221","317025","518954","517449","520466","328549","325440","364517","NA","231254","268785","362855","325223","396407","325444","NA","518954","518954","NA","NA","517445","NAP perception","28","47008","42","yes","1024"
"67.4418604651","yes","67.4418604651","1121.88372093","1121.88372093","white","no","xpyriment","Ich habe die obigen Informationen gelesen und verstanden.","legacy","legacy","0","uniform","1","0","0","undefined","undefined","1","f","2","1","NA","0","1","0","0","0","0","0","0","0","0","52","52","52","0","0","0","NA","0","0","2","0","0","0","2","52","52","52","52","52","Fri Nov  3 13:48:28 2017","Forced-choice identification task with a practice and an experimental phase","yes","NAP_GER_AA_4blocks_noglides.osexp","/Users/aviadalbert/Documents/Academisch/UoC/Dissertation/Experiment/OpenSesame/NAP-FC/NAP_GER_AA_4blocks_noglides","yes","no","sans","no","20","no","black","no","Weiter","yes","768","legacy","42","9","0","/Users/aviadalbert/Documents/Academisch/UoC/Dissertation/Experiment/OpenSesame/NAP-FC/NAP_GER_AA_4blocks_noglides/subject-43.csv","xpyriment","Jazzy James","3.1.9","yes","yes","59a800d99ad5a1025d81bb03","59a801616c613b0251691de0","no","no","0","f","f","space","NA","space","space","f","1233","2180","31349","NA","38800","8134","1233","2","legacy","1024","1","44100","-16","experiment","fnal","2","0","1","0","1","Niederaendsch, english","43","","odd","396407","364517","NA","NA","398588","396404","NA","1673","395921","227606","1674","278221","317025","522254","520751","523489","328549","325440","364517","NA","231254","268785","362855","325223","396407","325444","NA","522254","522254","NA","NA","520747","NAP perception","29","48241","43","yes","1024"
"68.1818181818","yes","68.1818181818","1116.70454545","1116.70454545","white","no","xpyriment","Ich habe die obigen Informationen gelesen und verstanden.","legacy","legacy","0","uniform","1","0","0","undefined","undefined","1","j","2","1","NA","0","1","0","0","0","0","0","0","0","0","53","53","53","0","0","0","NA","0","0","2","0","0","0","2","53","53","53","53","53","Fri Nov  3 13:48:28 2017","Forced-choice identification task with a practice and an experimental phase","yes","NAP_GER_AA_4blocks_noglides.osexp","/Users/aviadalbert/Documents/Academisch/UoC/Dissertation/Experiment/OpenSesame/NAP-FC/NAP_GER_AA_4blocks_noglides","yes","no","sans","no","20","no","black","no","Weiter","yes","768","legacy","43","9","0","/Users/aviadalbert/Documents/Academisch/UoC/Dissertation/Experiment/OpenSesame/NAP-FC/NAP_GER_AA_4blocks_noglides/subject-43.csv","xpyriment","Jazzy James","3.1.9","yes","yes","59a800d99ad5a1025d81bb03","59a801616c613b0251691de0","no","no","0","j","f","space","NA","space","space","j","894","2180","31349","NA","38800","8134","894","2","legacy","1024","1","44100","-16","experiment","elfal","2","0","1","0","1","Niederaendsch, english","43","","odd","396407","364517","NA","NA","398588","396404","NA","1673","395921","227606","1674","278221","317025","525282","523776","526178","328549","325440","364517","NA","231254","268785","362855","325223","396407","325444","NA","525281","525281","NA","NA","523772","NAP perception","30","49135","44","yes","1024"
"68.8888888889","yes","68.8888888889","1131.88888889","1131.88888889","white","no","xpyriment","Ich habe die obigen Informationen gelesen und verstanden.","legacy","legacy","0","uniform","1","0","0","undefined","undefined","1","j","2","1","NA","0","1","0","0","0","0","0","0","0","0","54","54","54","0","0","0","NA","0","0","2","0","0","0","2","54","54","54","54","54","Fri Nov  3 13:48:28 2017","Forced-choice identification task with a practice and an experimental phase","yes","NAP_GER_AA_4blocks_noglides.osexp","/Users/aviadalbert/Documents/Academisch/UoC/Dissertation/Experiment/OpenSesame/NAP-FC/NAP_GER_AA_4blocks_noglides","yes","no","sans","no","20","no","black","no","Weiter","yes","768","legacy","44","9","0","/Users/aviadalbert/Documents/Academisch/UoC/Dissertation/Experiment/OpenSesame/NAP-FC/NAP_GER_AA_4blocks_noglides/subject-43.csv","xpyriment","Jazzy James","3.1.9","yes","yes","59a800d99ad5a1025d81bb03","59a801616c613b0251691de0","no","no","0","j","f","space","NA","space","space","j","1800","2180","31349","NA","38800","8134","1800","2","legacy","1024","1","44100","-16","experiment","emnal","2","0","1","0","1","Niederaendsch, english","43","","odd","396407","364517","NA","NA","398588","396404","NA","1673","395921","227606","1674","278221","317025","527952","526449","529754","328549","325440","364517","NA","231254","268785","362855","325223","396407","325444","NA","527952","527952","NA","NA","526445","NAP perception","31","50935","45","yes","1024"
"69.5652173913","yes","69.5652173913","1166.58695652","1166.58695652","white","no","xpyriment","Ich habe die obigen Informationen gelesen und verstanden.","legacy","legacy","0","uniform","1","0","0","undefined","undefined","1","f","2","1","NA","0","1","0","0","0","0","0","0","0","0","55","55","55","0","0","0","NA","0","0","2","0","0","0","2","55","55","55","55","55","Fri Nov  3 13:48:28 2017","Forced-choice identification task with a practice and an experimental phase","yes","NAP_GER_AA_4blocks_noglides.osexp","/Users/aviadalbert/Documents/Academisch/UoC/Dissertation/Experiment/OpenSesame/NAP-FC/NAP_GER_AA_4blocks_noglides","yes","no","sans","no","20","no","black","no","Weiter","yes","768","legacy","45","9","0","/Users/aviadalbert/Documents/Academisch/UoC/Dissertation/Experiment/OpenSesame/NAP-FC/NAP_GER_AA_4blocks_noglides/subject-43.csv","xpyriment","Jazzy James","3.1.9","yes","yes","59a800d99ad5a1025d81bb03","59a801616c613b0251691de0","no","no","0","f","f","space","NA","space","space","f","2728","2180","31349","NA","38800","8134","2728","2","legacy","1024","1","44100","-16","experiment","vlal","2","0","1","0","1","Niederaendsch, english","43","","odd","396407","364517","NA","NA","398588","396404","NA","1673","395921","227606","1674","278221","317025","531521","530017","534250","328549","325440","364517","NA","231254","268785","362855","325223","396407","325444","NA","531521","531521","NA","NA","530013","NAP perception","32","53663","46","yes","1024"
"70.2127659574","yes","70.2127659574","1161.44680851","1161.44680851","white","no","xpyriment","Ich habe die obigen Informationen gelesen und verstanden.","legacy","legacy","0","uniform","1","0","0","undefined","undefined","1","j","2","1","NA","0","1","0","0","0","0","0","0","0","0","56","56","56","0","0","0","NA","0","0","2","0","0","0","2","56","56","56","56","56","Fri Nov  3 13:48:28 2017","Forced-choice identification task with a practice and an experimental phase","yes","NAP_GER_AA_4blocks_noglides.osexp","/Users/aviadalbert/Documents/Academisch/UoC/Dissertation/Experiment/OpenSesame/NAP-FC/NAP_GER_AA_4blocks_noglides","yes","no","sans","no","20","no","black","no","Weiter","yes","768","legacy","46","9","0","/Users/aviadalbert/Documents/Academisch/UoC/Dissertation/Experiment/OpenSesame/NAP-FC/NAP_GER_AA_4blocks_noglides/subject-43.csv","xpyriment","Jazzy James","3.1.9","yes","yes","59a800d99ad5a1025d81bb03","59a801616c613b0251691de0","no","no","0","j","f","space","NA","space","space","j","925","2180","31349","NA","38800","8134","925","2","legacy","1024","1","44100","-16","experiment","fetal","2","0","1","0","1","Niederaendsch, english","43","","odd","396407","364517","NA","NA","398588","396404","NA","1673","395921","227606","1674","278221","317025","536031","534525","536957","328549","325440","364517","NA","231254","268785","362855","325223","396407","325444","NA","536030","536030","NA","NA","534521","NAP perception","33","54588","47","yes","1024"
"68.75","yes","68.75","1171.875","1171.875","white","no","xpyriment","Ich habe die obigen Informationen gelesen und verstanden.","legacy","legacy","0","uniform","0","0","0","undefined","undefined","0","f","2","1","NA","0","1","0","0","0","0","0","0","0","0","57","57","57","0","0","0","NA","0","0","2","0","0","0","2","57","57","57","57","57","Fri Nov  3 13:48:28 2017","Forced-choice identification task with a practice and an experimental phase","yes","NAP_GER_AA_4blocks_noglides.osexp","/Users/aviadalbert/Documents/Academisch/UoC/Dissertation/Experiment/OpenSesame/NAP-FC/NAP_GER_AA_4blocks_noglides","yes","no","sans","no","20","no","black","no","Weiter","yes","768","legacy","47","9","0","/Users/aviadalbert/Documents/Academisch/UoC/Dissertation/Experiment/OpenSesame/NAP-FC/NAP_GER_AA_4blocks_noglides/subject-43.csv","xpyriment","Jazzy James","3.1.9","yes","yes","59a800d99ad5a1025d81bb03","59a801616c613b0251691de0","no","no","0","j","f","space","NA","space","space","j","1662","2180","31349","NA","38800","8134","1662","2","legacy","1024","1","44100","-16","experiment","mlal","2","0","1","0","1","Niederaendsch, english","43","","odd","396407","364517","NA","NA","398588","396404","NA","1673","395921","227606","1674","278221","317025","538752","537248","540416","328549","325440","364517","NA","231254","268785","362855","325223","396407","325444","NA","538752","538752","NA","NA","537244","NAP perception","33","56250","48","yes","1024"
"67.3469387755","yes","67.3469387755","1185.73469388","1185.73469388","white","no","xpyriment","Ich habe die obigen Informationen gelesen und verstanden.","legacy","legacy","0","uniform","0","0","0","undefined","undefined","0","f","2","1","NA","0","1","0","0","0","0","0","0","0","0","58","58","58","0","0","0","NA","0","0","2","0","0","0","2","58","58","58","58","58","Fri Nov  3 13:48:28 2017","Forced-choice identification task with a practice and an experimental phase","yes","NAP_GER_AA_4blocks_noglides.osexp","/Users/aviadalbert/Documents/Academisch/UoC/Dissertation/Experiment/OpenSesame/NAP-FC/NAP_GER_AA_4blocks_noglides","yes","no","sans","no","20","no","black","no","Weiter","yes","768","legacy","48","9","0","/Users/aviadalbert/Documents/Academisch/UoC/Dissertation/Experiment/OpenSesame/NAP-FC/NAP_GER_AA_4blocks_noglides/subject-43.csv","xpyriment","Jazzy James","3.1.9","yes","yes","59a800d99ad5a1025d81bb03","59a801616c613b0251691de0","no","no","0","j","f","space","NA","space","space","j","1851","2180","31349","NA","38800","8134","1851","2","legacy","1024","1","44100","-16","experiment","mlal","2","0","1","0","1","Niederaendsch, english","43","","odd","396407","364517","NA","NA","398588","396404","NA","1673","395921","227606","1674","278221","317025","542209","540705","544062","328549","325440","364517","NA","231254","268785","362855","325223","396407","325444","NA","542209","542209","NA","NA","540701","NAP perception","33","58101","49","yes","1024"
"68","yes","68","1215.66","1215.66","white","no","xpyriment","Ich habe die obigen Informationen gelesen und verstanden.","legacy","legacy","0","uniform","1","0","0","undefined","undefined","1","f","2","1","NA","0","1","0","0","0","0","0","0","0","0","59","59","59","0","0","0","NA","0","0","2","0","0","0","2","59","59","59","59","59","Fri Nov  3 13:48:28 2017","Forced-choice identification task with a practice and an experimental phase","yes","NAP_GER_AA_4blocks_noglides.osexp","/Users/aviadalbert/Documents/Academisch/UoC/Dissertation/Experiment/OpenSesame/NAP-FC/NAP_GER_AA_4blocks_noglides","yes","no","sans","no","20","no","black","no","Weiter","yes","768","legacy","49","9","0","/Users/aviadalbert/Documents/Academisch/UoC/Dissertation/Experiment/OpenSesame/NAP-FC/NAP_GER_AA_4blocks_noglides/subject-43.csv","xpyriment","Jazzy James","3.1.9","yes","yes","59a800d99ad5a1025d81bb03","59a801616c613b0251691de0","no","no","0","f","f","space","NA","space","space","f","2682","2180","31349","NA","38800","8134","2682","2","legacy","1024","1","44100","-16","experiment","lkal","2","0","1","0","1","Niederaendsch, english","43","","odd","396407","364517","NA","NA","398588","396404","NA","1673","395921","227606","1674","278221","317025","545836","544333","548520","328549","325440","364517","NA","231254","268785","362855","325223","396407","325444","NA","545836","545836","NA","NA","544329","NAP perception","34","60783","50","yes","1024"
"68.6274509804","yes","68.6274509804","1214.25490196","1214.25490196","white","no","xpyriment","Ich habe die obigen Informationen gelesen und verstanden.","legacy","legacy","0","uniform","1","0","0","undefined","undefined","1","j","2","1","NA","0","1","0","0","0","0","0","0","0","0","60","60","60","0","0","0","NA","0","0","2","0","0","0","2","60","60","60","60","60","Fri Nov  3 13:48:28 2017","Forced-choice identification task with a practice and an experimental phase","yes","NAP_GER_AA_4blocks_noglides.osexp","/Users/aviadalbert/Documents/Academisch/UoC/Dissertation/Experiment/OpenSesame/NAP-FC/NAP_GER_AA_4blocks_noglides","yes","no","sans","no","20","no","black","no","Weiter","yes","768","legacy","50","9","0","/Users/aviadalbert/Documents/Academisch/UoC/Dissertation/Experiment/OpenSesame/NAP-FC/NAP_GER_AA_4blocks_noglides/subject-43.csv","xpyriment","Jazzy James","3.1.9","yes","yes","59a800d99ad5a1025d81bb03","59a801616c613b0251691de0","no","no","0","j","f","space","NA","space","space","j","1144","2180","31349","NA","38800","8134","1144","2","legacy","1024","1","44100","-16","experiment","elval","2","0","1","0","1","Niederaendsch, english","43","","odd","396407","364517","NA","NA","398588","396404","NA","1673","395921","227606","1674","278221","317025","550307","548803","551453","328549","325440","364517","NA","231254","268785","362855","325223","396407","325444","NA","550307","550307","NA","NA","548800","NAP perception","35","61927","51","yes","1024"
"69.2307692308","yes","69.2307692308","1211.11538462","1211.11538462","white","no","xpyriment","Ich habe die obigen Informationen gelesen und verstanden.","legacy","legacy","0","uniform","1","0","0","undefined","undefined","1","j","2","1","NA","0","1","0","0","0","0","0","0","0","0","61","61","61","0","0","0","NA","0","0","2","0","0","0","2","61","61","61","61","61","Fri Nov  3 13:48:28 2017","Forced-choice identification task with a practice and an experimental phase","yes","NAP_GER_AA_4blocks_noglides.osexp","/Users/aviadalbert/Documents/Academisch/UoC/Dissertation/Experiment/OpenSesame/NAP-FC/NAP_GER_AA_4blocks_noglides","yes","no","sans","no","20","no","black","no","Weiter","yes","768","legacy","51","9","0","/Users/aviadalbert/Documents/Academisch/UoC/Dissertation/Experiment/OpenSesame/NAP-FC/NAP_GER_AA_4blocks_noglides/subject-43.csv","xpyriment","Jazzy James","3.1.9","yes","yes","59a800d99ad5a1025d81bb03","59a801616c613b0251691de0","no","no","0","j","f","space","NA","space","space","j","1051","2180","31349","NA","38800","8134","1051","2","legacy","1024","1","44100","-16","experiment","melal","2","0","1","0","1","Niederaendsch, english","43","","odd","396407","364517","NA","NA","398588","396404","NA","1673","395921","227606","1674","278221","317025","553239","551735","554292","328549","325440","364517","NA","231254","268785","362855","325223","396407","325444","NA","553238","553239","NA","NA","551731","NAP perception","36","62978","52","yes","1024"
"69.8113207547","yes","69.8113207547","1228.16981132","1228.16981132","white","no","xpyriment","Ich habe die obigen Informationen gelesen und verstanden.","legacy","legacy","0","uniform","1","0","0","undefined","undefined","1","j","2","1","NA","0","1","0","0","0","0","0","0","0","0","62","62","62","0","0","0","NA","0","0","2","0","0","0","2","62","62","62","62","62","Fri Nov  3 13:48:28 2017","Forced-choice identification task with a practice and an experimental phase","yes","NAP_GER_AA_4blocks_noglides.osexp","/Users/aviadalbert/Documents/Academisch/UoC/Dissertation/Experiment/OpenSesame/NAP-FC/NAP_GER_AA_4blocks_noglides","yes","no","sans","no","20","no","black","no","Weiter","yes","768","legacy","52","9","0","/Users/aviadalbert/Documents/Academisch/UoC/Dissertation/Experiment/OpenSesame/NAP-FC/NAP_GER_AA_4blocks_noglides/subject-43.csv","xpyriment","Jazzy James","3.1.9","yes","yes","59a800d99ad5a1025d81bb03","59a801616c613b0251691de0","no","no","0","j","f","space","NA","space","space","j","2115","2180","31349","NA","38800","8134","2115","2","legacy","1024","1","44100","-16","experiment","zeval","2","0","1","0","1","Niederaendsch, english","43","","odd","396407","364517","NA","NA","398588","396404","NA","1673","395921","227606","1674","278221","317025","556066","554563","558183","328549","325440","364517","NA","231254","268785","362855","325223","396407","325444","NA","556066","556066","NA","NA","554559","NAP perception","37","65093","53","yes","1024"
"70.3703703704","yes","70.3703703704","1226.01851852","1226.01851852","white","no","xpyriment","Ich habe die obigen Informationen gelesen und verstanden.","legacy","legacy","0","uniform","1","0","0","undefined","undefined","1","j","2","1","NA","0","1","0","0","0","0","0","0","0","0","63","63","63","0","0","0","NA","0","0","2","0","0","0","2","63","63","63","63","63","Fri Nov  3 13:48:28 2017","Forced-choice identification task with a practice and an experimental phase","yes","NAP_GER_AA_4blocks_noglides.osexp","/Users/aviadalbert/Documents/Academisch/UoC/Dissertation/Experiment/OpenSesame/NAP-FC/NAP_GER_AA_4blocks_noglides","yes","no","sans","no","20","no","black","no","Weiter","yes","768","legacy","53","9","0","/Users/aviadalbert/Documents/Academisch/UoC/Dissertation/Experiment/OpenSesame/NAP-FC/NAP_GER_AA_4blocks_noglides/subject-43.csv","xpyriment","Jazzy James","3.1.9","yes","yes","59a800d99ad5a1025d81bb03","59a801616c613b0251691de0","no","no","0","j","f","space","NA","space","space","j","1112","2180","31349","NA","38800","8134","1112","2","legacy","1024","1","44100","-16","experiment","menal","2","0","1","0","1","Niederaendsch, english","43","","odd","396407","364517","NA","NA","398588","396404","NA","1673","395921","227606","1674","278221","317025","559960","558454","561073","328549","325440","364517","NA","231254","268785","362855","325223","396407","325444","NA","559960","559960","NA","NA","558450","NAP perception","38","66205","54","yes","1024"
"69.0909090909","yes","69.0909090909","1235.49090909","1235.49090909","white","no","xpyriment","Ich habe die obigen Informationen gelesen und verstanden.","legacy","legacy","0","uniform","0","0","0","undefined","undefined","0","f","2","1","NA","0","1","0","0","0","0","0","0","0","0","64","64","64","0","0","0","NA","0","0","2","0","0","0","2","64","64","64","64","64","Fri Nov  3 13:48:28 2017","Forced-choice identification task with a practice and an experimental phase","yes","NAP_GER_AA_4blocks_noglides.osexp","/Users/aviadalbert/Documents/Academisch/UoC/Dissertation/Experiment/OpenSesame/NAP-FC/NAP_GER_AA_4blocks_noglides","yes","no","sans","no","20","no","black","no","Weiter","yes","768","legacy","54","9","0","/Users/aviadalbert/Documents/Academisch/UoC/Dissertation/Experiment/OpenSesame/NAP-FC/NAP_GER_AA_4blocks_noglides/subject-43.csv","xpyriment","Jazzy James","3.1.9","yes","yes","59a800d99ad5a1025d81bb03","59a801616c613b0251691de0","no","no","0","j","f","space","NA","space","space","j","1747","2180","31349","NA","38800","8134","1747","2","legacy","1024","1","44100","-16","experiment","nfal","2","0","1","0","1","Niederaendsch, english","43","","odd","396407","364517","NA","NA","398588","396404","NA","1673","395921","227606","1674","278221","317025","562868","561364","564617","328549","325440","364517","NA","231254","268785","362855","325223","396407","325444","NA","562868","562868","NA","NA","561360","NAP perception","38","67952","55","yes","1024"
"69.6428571429","yes","69.6428571429","1260.625","1260.625","white","no","xpyriment","Ich habe die obigen Informationen gelesen und verstanden.","legacy","legacy","0","uniform","1","0","0","undefined","undefined","1","f","2","1","NA","0","1","0","0","0","0","0","0","0","0","65","65","65","0","0","0","NA","0","0","2","0","0","0","2","65","65","65","65","65","Fri Nov  3 13:48:28 2017","Forced-choice identification task with a practice and an experimental phase","yes","NAP_GER_AA_4blocks_noglides.osexp","/Users/aviadalbert/Documents/Academisch/UoC/Dissertation/Experiment/OpenSesame/NAP-FC/NAP_GER_AA_4blocks_noglides","yes","no","sans","no","20","no","black","no","Weiter","yes","768","legacy","55","9","0","/Users/aviadalbert/Documents/Academisch/UoC/Dissertation/Experiment/OpenSesame/NAP-FC/NAP_GER_AA_4blocks_noglides/subject-43.csv","xpyriment","Jazzy James","3.1.9","yes","yes","59a800d99ad5a1025d81bb03","59a801616c613b0251691de0","no","no","0","f","f","space","NA","space","space","f","2643","2180","31349","NA","38800","8134","2643","2","legacy","1024","1","44100","-16","experiment","mzal","2","0","1","0","1","Niederaendsch, english","43","","odd","396407","364517","NA","NA","398588","396404","NA","1673","395921","227606","1674","278221","317025","566416","564911","569061","328549","325440","364517","NA","231254","268785","362855","325223","396407","325444","NA","566416","566416","NA","NA","564907","NAP perception","39","70595","56","yes","1024"
