"acc","accept_status","accuracy","average_response_time","avg_rt","background","bidi","canvas_backend","checkbox_status","clock_backend","color_backend","compensation","coordinates","correct","correct_block_activation","correct_block_exit","correct_instructions_1","correct_instructions_2","correct_keyboard_response","correct_response","count_block_activation","count_block_exit","count_block_info_QA","count_cont_e_block_message","count_e_block_loop","count_e_block_sequence","count_end_of_experiment","count_experiment","count_experimental_loop","count_form_consent","count_info_forms","count_instructions_1","count_instructions_2","count_keyboard_response","count_listen_message","count_logger","count_p_block_loop","count_p_block_sequence","count_p_feedback","count_pause_feedback","count_personal_details_form_1","count_personal_details_form_2","count_post_loop_blank","count_practice_loop","count_pre_e_block_message","count_pre_p_block_message","count_reset_feedback","count_stimulus_image","count_stimulus_sound","count_timeout_message","count_timeout_sound","count_trial_sequence","datetime","description","disable_garbage_collection","experiment_file","experiment_path","expyriment_opengl","font_bold","font_family","font_italic","font_size","font_underline","foreground","form_clicks","form_response","fullscreen","height","keyboard_backend","live_row","live_row_p_block_loop","live_row_practice_loop","logfile","mouse_backend","opensesame_codename","opensesame_version","osf_always_upload_data","osf_always_upload_experiment","osf_datanode_id","osf_id","practice","pygame_doublebuf","repeat_cycle","response","response_block_activation","response_block_exit","response_block_info_QA","response_instructions_1","response_instructions_2","response_keyboard_response","response_time","response_time_block_activation","response_time_block_exit","response_time_block_info_QA","response_time_instructions_1","response_time_instructions_2","response_time_keyboard_response","round_decimals","sampler_backend","sound_buf_size","sound_channels","sound_freq","sound_sample_size","start","stimulus","subject_age","subject_education","subject_gender","subject_german_native","subject_handedness","subject_language_other","subject_nr","subject_other_native_lang","subject_parity","time_block_activation","time_block_exit","time_block_info_QA","time_cont_e_block_message","time_e_block_loop","time_e_block_sequence","time_end_of_experiment","time_experiment","time_experimental_loop","time_form_consent","time_info_forms","time_instructions_1","time_instructions_2","time_keyboard_response","time_listen_message","time_logger","time_p_block_loop","time_p_block_sequence","time_p_feedback","time_pause_feedback","time_personal_details_form_1","time_personal_details_form_2","time_post_loop_blank","time_practice_loop","time_pre_e_block_message","time_pre_p_block_message","time_reset_feedback","time_stimulus_image","time_stimulus_sound","time_timeout_message","time_timeout_sound","time_trial_sequence","title","total_correct","total_response_time","total_responses","uniform_coordinates","width"
"100","yes","100","1344","1344","white","no","xpyriment","Ich habe die obigen Informationen gelesen und verstanden.","legacy","legacy","0","uniform","1","0","NA","undefined","undefined","1","f","0","0","NA","NA","NA","NA","NA","0","0","0","0","0","0","0","0","0","0","0","NA","NA","0","0","0","0","NA","0","0","0","0","0","0","0","Fri Nov  3 12:34:08 2017","Forced-choice identification task with a practice and an experimental phase","yes","NAP_GER_AA_4blocks_noglides.osexp","/Users/aviadalbert/Documents/Academisch/UoC/Dissertation/Experiment/OpenSesame/NAP-FC/NAP_GER_AA_4blocks_noglides","yes","no","sans","no","20","no","black","no","Weiter","yes","768","legacy","0","0","0","/Users/aviadalbert/Documents/Academisch/UoC/Dissertation/Experiment/OpenSesame/NAP-FC/NAP_GER_AA_4blocks_noglides/subject-42.csv","xpyriment","Jazzy James","3.1.9","yes","yes","59a800d99ad5a1025d81bb03","59a801616c613b0251691de0","yes","no","0","f","f","NA","NA","return","return","f","1344","18038","NA","NA","29465","13831","1344","2","legacy","1024","1","44100","-16","experiment","flal","2","1","0","0","1","Englisch, Franzoesich, russish","42","","even","8704352","NA","NA","NA","NA","NA","NA","7895418","NA","7895419","7895419","8660738","8690208","8724097","8722591","8725442","8722391","8704348","NA","NA","8555790","8648090","NA","8704109","NA","8704352","NA","8724097","8724097","NA","NA","8722587","NAP perception","1","1344","1","yes","1024"
"100","yes","100","1222.5","1222.5","white","no","xpyriment","Ich habe die obigen Informationen gelesen und verstanden.","legacy","legacy","0","uniform","1","0","NA","undefined","undefined","1","j","0","0","NA","NA","NA","NA","NA","0","0","0","0","0","0","1","1","1","0","0","NA","NA","0","0","0","0","NA","0","0","1","1","1","1","1","Fri Nov  3 12:34:08 2017","Forced-choice identification task with a practice and an experimental phase","yes","NAP_GER_AA_4blocks_noglides.osexp","/Users/aviadalbert/Documents/Academisch/UoC/Dissertation/Experiment/OpenSesame/NAP-FC/NAP_GER_AA_4blocks_noglides","yes","no","sans","no","20","no","black","no","Weiter","yes","768","legacy","1","1","0","/Users/aviadalbert/Documents/Academisch/UoC/Dissertation/Experiment/OpenSesame/NAP-FC/NAP_GER_AA_4blocks_noglides/subject-42.csv","xpyriment","Jazzy James","3.1.9","yes","yes","59a800d99ad5a1025d81bb03","59a801616c613b0251691de0","yes","no","0","j","f","NA","NA","return","return","j","1101","18038","NA","NA","29465","13831","1101","2","legacy","1024","1","44100","-16","experiment","lepal","2","1","0","0","1","Englisch, Franzoesich, russish","42","","even","8704352","NA","NA","NA","NA","NA","NA","7895418","NA","7895419","7895419","8660738","8690208","8727216","8725711","8728318","8722391","8704348","NA","NA","8555790","8648090","NA","8704109","NA","8704352","NA","8727216","8727216","NA","NA","8725707","NAP perception","2","2445","2","yes","1024"
"100","yes","100","1117.33333333","1117.33333333","white","no","xpyriment","Ich habe die obigen Informationen gelesen und verstanden.","legacy","legacy","0","uniform","1","0","NA","undefined","undefined","1","j","0","0","NA","NA","NA","NA","NA","0","0","0","0","0","0","2","2","2","0","0","NA","NA","0","0","0","0","NA","0","0","2","2","2","2","2","Fri Nov  3 12:34:08 2017","Forced-choice identification task with a practice and an experimental phase","yes","NAP_GER_AA_4blocks_noglides.osexp","/Users/aviadalbert/Documents/Academisch/UoC/Dissertation/Experiment/OpenSesame/NAP-FC/NAP_GER_AA_4blocks_noglides","yes","no","sans","no","20","no","black","no","Weiter","yes","768","legacy","2","2","0","/Users/aviadalbert/Documents/Academisch/UoC/Dissertation/Experiment/OpenSesame/NAP-FC/NAP_GER_AA_4blocks_noglides/subject-42.csv","xpyriment","Jazzy James","3.1.9","yes","yes","59a800d99ad5a1025d81bb03","59a801616c613b0251691de0","yes","no","0","j","f","NA","NA","return","return","j","907","18038","NA","NA","29465","13831","907","2","legacy","1024","1","44100","-16","experiment","emtal","2","1","0","0","1","Englisch, Franzoesich, russish","42","","even","8704352","NA","NA","NA","NA","NA","NA","7895418","NA","7895419","7895419","8660738","8690208","8730083","8728578","8730991","8722391","8704348","NA","NA","8555790","8648090","NA","8704109","NA","8704352","NA","8730083","8730083","NA","NA","8728574","NAP perception","3","3352","3","yes","1024"
"100","yes","100","1082.25","1082.25","white","no","xpyriment","Ich habe die obigen Informationen gelesen und verstanden.","legacy","legacy","0","uniform","1","0","NA","undefined","undefined","1","f","0","0","NA","NA","NA","NA","NA","0","0","0","0","0","0","3","3","3","0","0","NA","NA","0","0","0","0","NA","0","0","3","3","3","3","3","Fri Nov  3 12:34:08 2017","Forced-choice identification task with a practice and an experimental phase","yes","NAP_GER_AA_4blocks_noglides.osexp","/Users/aviadalbert/Documents/Academisch/UoC/Dissertation/Experiment/OpenSesame/NAP-FC/NAP_GER_AA_4blocks_noglides","yes","no","sans","no","20","no","black","no","Weiter","yes","768","legacy","3","3","0","/Users/aviadalbert/Documents/Academisch/UoC/Dissertation/Experiment/OpenSesame/NAP-FC/NAP_GER_AA_4blocks_noglides/subject-42.csv","xpyriment","Jazzy James","3.1.9","yes","yes","59a800d99ad5a1025d81bb03","59a801616c613b0251691de0","yes","no","0","f","f","NA","NA","return","return","f","977","18038","NA","NA","29465","13831","977","2","legacy","1024","1","44100","-16","experiment","ʃpal","2","1","0","0","1","Englisch, Franzoesich, russish","42","","even","8704352","NA","NA","NA","NA","NA","NA","7895418","NA","7895419","7895419","8660738","8690208","8732772","8731267","8733750","8722391","8704348","NA","NA","8555790","8648090","NA","8704109","NA","8704352","NA","8732772","8732772","NA","NA","8731263","NAP perception","4","4329","4","yes","1024"
"100","yes","100","1044.8","1044.8","white","no","xpyriment","Ich habe die obigen Informationen gelesen und verstanden.","legacy","legacy","0","uniform","1","0","NA","undefined","undefined","1","j","0","0","NA","NA","NA","NA","NA","0","0","0","0","0","0","4","4","4","0","0","NA","NA","0","0","0","0","NA","0","0","4","4","4","4","4","Fri Nov  3 12:34:08 2017","Forced-choice identification task with a practice and an experimental phase","yes","NAP_GER_AA_4blocks_noglides.osexp","/Users/aviadalbert/Documents/Academisch/UoC/Dissertation/Experiment/OpenSesame/NAP-FC/NAP_GER_AA_4blocks_noglides","yes","no","sans","no","20","no","black","no","Weiter","yes","768","legacy","4","4","0","/Users/aviadalbert/Documents/Academisch/UoC/Dissertation/Experiment/OpenSesame/NAP-FC/NAP_GER_AA_4blocks_noglides/subject-42.csv","xpyriment","Jazzy James","3.1.9","yes","yes","59a800d99ad5a1025d81bb03","59a801616c613b0251691de0","yes","no","0","j","f","NA","NA","return","return","j","895","18038","NA","NA","29465","13831","895","2","legacy","1024","1","44100","-16","experiment","nefal","2","1","0","0","1","Englisch, Franzoesich, russish","42","","even","8704352","NA","NA","NA","NA","NA","NA","7895418","NA","7895419","7895419","8660738","8690208","8735529","8734024","8736425","8722391","8704348","NA","NA","8555790","8648090","NA","8704109","NA","8704352","NA","8735528","8735528","NA","NA","8734020","NAP perception","5","5224","5","yes","1024"
"100","yes","100","1077","1077","white","no","xpyriment","Ich habe die obigen Informationen gelesen und verstanden.","legacy","legacy","0","uniform","1","0","NA","undefined","undefined","1","f","0","0","NA","NA","NA","NA","NA","0","0","0","0","0","0","5","5","5","0","0","NA","NA","0","0","0","0","NA","0","0","5","5","5","5","5","Fri Nov  3 12:34:08 2017","Forced-choice identification task with a practice and an experimental phase","yes","NAP_GER_AA_4blocks_noglides.osexp","/Users/aviadalbert/Documents/Academisch/UoC/Dissertation/Experiment/OpenSesame/NAP-FC/NAP_GER_AA_4blocks_noglides","yes","no","sans","no","20","no","black","no","Weiter","yes","768","legacy","5","5","0","/Users/aviadalbert/Documents/Academisch/UoC/Dissertation/Experiment/OpenSesame/NAP-FC/NAP_GER_AA_4blocks_noglides/subject-42.csv","xpyriment","Jazzy James","3.1.9","yes","yes","59a800d99ad5a1025d81bb03","59a801616c613b0251691de0","yes","no","0","f","f","NA","NA","return","return","f","1238","18038","NA","NA","29465","13831","1238","2","legacy","1024","1","44100","-16","experiment","sfal","2","1","0","0","1","Englisch, Franzoesich, russish","42","","even","8704352","NA","NA","NA","NA","NA","NA","7895418","NA","7895419","7895419","8660738","8690208","8738201","8736697","8739440","8722391","8704348","NA","NA","8555790","8648090","NA","8704109","NA","8704352","NA","8738201","8738201","NA","NA","8736693","NAP perception","6","6462","6","yes","1024"
"100","yes","100","1071.71428571","1071.71428571","white","no","xpyriment","Ich habe die obigen Informationen gelesen und verstanden.","legacy","legacy","0","uniform","1","0","NA","undefined","undefined","1","f","0","0","NA","NA","NA","NA","NA","0","0","0","0","0","0","6","6","6","0","0","NA","NA","0","0","0","0","NA","0","0","6","6","6","6","6","Fri Nov  3 12:34:08 2017","Forced-choice identification task with a practice and an experimental phase","yes","NAP_GER_AA_4blocks_noglides.osexp","/Users/aviadalbert/Documents/Academisch/UoC/Dissertation/Experiment/OpenSesame/NAP-FC/NAP_GER_AA_4blocks_noglides","yes","no","sans","no","20","no","black","no","Weiter","yes","768","legacy","6","6","0","/Users/aviadalbert/Documents/Academisch/UoC/Dissertation/Experiment/OpenSesame/NAP-FC/NAP_GER_AA_4blocks_noglides/subject-42.csv","xpyriment","Jazzy James","3.1.9","yes","yes","59a800d99ad5a1025d81bb03","59a801616c613b0251691de0","yes","no","0","f","f","NA","NA","return","return","f","1040","18038","NA","NA","29465","13831","1040","2","legacy","1024","1","44100","-16","experiment","zmal","2","1","0","0","1","Englisch, Franzoesich, russish","42","","even","8704352","NA","NA","NA","NA","NA","NA","7895418","NA","7895419","7895419","8660738","8690208","8741239","8739734","8742280","8722391","8704348","NA","NA","8555790","8648090","NA","8704109","NA","8704352","NA","8741239","8741239","NA","NA","8739730","NAP perception","7","7502","7","yes","1024"
"100","yes","100","1042.5","1042.5","white","no","xpyriment","Ich habe die obigen Informationen gelesen und verstanden.","legacy","legacy","0","uniform","1","0","NA","undefined","undefined","1","j","0","0","NA","NA","NA","NA","NA","0","0","0","0","0","0","7","7","7","0","0","NA","NA","0","0","0","0","NA","0","0","7","7","7","7","7","Fri Nov  3 12:34:08 2017","Forced-choice identification task with a practice and an experimental phase","yes","NAP_GER_AA_4blocks_noglides.osexp","/Users/aviadalbert/Documents/Academisch/UoC/Dissertation/Experiment/OpenSesame/NAP-FC/NAP_GER_AA_4blocks_noglides","yes","no","sans","no","20","no","black","no","Weiter","yes","768","legacy","7","7","0","/Users/aviadalbert/Documents/Academisch/UoC/Dissertation/Experiment/OpenSesame/NAP-FC/NAP_GER_AA_4blocks_noglides/subject-42.csv","xpyriment","Jazzy James","3.1.9","yes","yes","59a800d99ad5a1025d81bb03","59a801616c613b0251691de0","yes","no","0","j","f","NA","NA","return","return","j","838","18038","NA","NA","29465","13831","838","2","legacy","1024","1","44100","-16","experiment","mesal","2","1","0","0","1","Englisch, Franzoesich, russish","42","","even","8704352","NA","NA","NA","NA","NA","NA","7895418","NA","7895419","7895419","8660738","8690208","8744058","8742555","8744897","8722391","8704348","NA","NA","8555790","8648090","NA","8704109","NA","8704352","NA","8744058","8744058","NA","NA","8742551","NAP perception","8","8340","8","yes","1024"
"100","yes","100","1029","1029","white","no","xpyriment","Ich habe die obigen Informationen gelesen und verstanden.","legacy","legacy","0","uniform","1","0","NA","undefined","undefined","1","j","0","0","NA","NA","NA","NA","NA","0","0","0","0","0","0","8","8","8","0","0","NA","NA","0","0","0","0","NA","0","0","8","8","8","8","8","Fri Nov  3 12:34:08 2017","Forced-choice identification task with a practice and an experimental phase","yes","NAP_GER_AA_4blocks_noglides.osexp","/Users/aviadalbert/Documents/Academisch/UoC/Dissertation/Experiment/OpenSesame/NAP-FC/NAP_GER_AA_4blocks_noglides","yes","no","sans","no","20","no","black","no","Weiter","yes","768","legacy","8","8","0","/Users/aviadalbert/Documents/Academisch/UoC/Dissertation/Experiment/OpenSesame/NAP-FC/NAP_GER_AA_4blocks_noglides/subject-42.csv","xpyriment","Jazzy James","3.1.9","yes","yes","59a800d99ad5a1025d81bb03","59a801616c613b0251691de0","yes","no","0","j","f","NA","NA","return","return","j","921","18038","NA","NA","29465","13831","921","2","legacy","1024","1","44100","-16","experiment","enval","2","1","0","0","1","Englisch, Franzoesich, russish","42","","even","8704352","NA","NA","NA","NA","NA","NA","7895418","NA","7895419","7895419","8660738","8690208","8746670","8745166","8747592","8722391","8704348","NA","NA","8555790","8648090","NA","8704109","NA","8704352","NA","8746670","8746670","NA","NA","8745162","NAP perception","9","9261","9","yes","1024"
"100","yes","100","1018","1018","white","no","xpyriment","Ich habe die obigen Informationen gelesen und verstanden.","legacy","legacy","0","uniform","1","0","NA","undefined","undefined","1","f","0","0","NA","NA","NA","NA","NA","0","0","0","0","0","0","9","9","9","0","0","NA","NA","0","0","0","0","NA","0","0","9","9","9","9","9","Fri Nov  3 12:34:08 2017","Forced-choice identification task with a practice and an experimental phase","yes","NAP_GER_AA_4blocks_noglides.osexp","/Users/aviadalbert/Documents/Academisch/UoC/Dissertation/Experiment/OpenSesame/NAP-FC/NAP_GER_AA_4blocks_noglides","yes","no","sans","no","20","no","black","no","Weiter","yes","768","legacy","9","9","0","/Users/aviadalbert/Documents/Academisch/UoC/Dissertation/Experiment/OpenSesame/NAP-FC/NAP_GER_AA_4blocks_noglides/subject-42.csv","xpyriment","Jazzy James","3.1.9","yes","yes","59a800d99ad5a1025d81bb03","59a801616c613b0251691de0","yes","no","0","f","f","NA","NA","return","return","f","919","18038","NA","NA","29465","13831","919","2","legacy","1024","1","44100","-16","experiment","vlal","2","1","0","0","1","Englisch, Franzoesich, russish","42","","even","8704352","NA","NA","NA","NA","NA","NA","7895418","NA","7895419","7895419","8660738","8690208","8749383","8747880","8750304","8722391","8704348","NA","NA","8555790","8648090","NA","8704109","NA","8704352","NA","8749383","8749383","NA","NA","8747876","NAP perception","10","10180","10","yes","1024"
"100","yes","100","1383","1383","white","no","xpyriment","Ich habe die obigen Informationen gelesen und verstanden.","legacy","legacy","0","uniform","1","0","0","undefined","undefined","1","j","2","1","NA","0","1","0","0","0","0","0","0","0","0","10","10","10","0","0","0","NA","0","0","2","0","0","0","2","10","10","10","10","10","Fri Nov  3 12:34:08 2017","Forced-choice identification task with a practice and an experimental phase","yes","NAP_GER_AA_4blocks_noglides.osexp","/Users/aviadalbert/Documents/Academisch/UoC/Dissertation/Experiment/OpenSesame/NAP-FC/NAP_GER_AA_4blocks_noglides","yes","no","sans","no","20","no","black","no","Weiter","yes","768","legacy","0","9","0","/Users/aviadalbert/Documents/Academisch/UoC/Dissertation/Experiment/OpenSesame/NAP-FC/NAP_GER_AA_4blocks_noglides/subject-42.csv","xpyriment","Jazzy James","3.1.9","yes","yes","59a800d99ad5a1025d81bb03","59a801616c613b0251691de0","no","no","0","j","f","space","NA","return","return","j","1383","1571","28036","NA","29465","13831","1383","2","legacy","1024","1","44100","-16","experiment","evzal","2","1","0","0","1","Englisch, Franzoesich, russish","42","","even","8780596","8752017","NA","NA","8782168","8780592","NA","7895418","8780109","7895419","7895419","8660738","8690208","8783895","8782392","8785280","8722391","8704348","8752016","NA","8555790","8648090","8750365","8704109","8780596","8704352","NA","8783895","8783895","NA","NA","8782388","NAP perception","1","1383","1","yes","1024"
"50","yes","50","1304","1304","white","no","xpyriment","Ich habe die obigen Informationen gelesen und verstanden.","legacy","legacy","0","uniform","0","0","0","undefined","undefined","0","f","2","1","NA","0","1","0","0","0","0","0","0","0","0","11","11","11","0","0","0","NA","0","0","2","0","0","0","2","11","11","11","11","11","Fri Nov  3 12:34:08 2017","Forced-choice identification task with a practice and an experimental phase","yes","NAP_GER_AA_4blocks_noglides.osexp","/Users/aviadalbert/Documents/Academisch/UoC/Dissertation/Experiment/OpenSesame/NAP-FC/NAP_GER_AA_4blocks_noglides","yes","no","sans","no","20","no","black","no","Weiter","yes","768","legacy","1","9","0","/Users/aviadalbert/Documents/Academisch/UoC/Dissertation/Experiment/OpenSesame/NAP-FC/NAP_GER_AA_4blocks_noglides/subject-42.csv","xpyriment","Jazzy James","3.1.9","yes","yes","59a800d99ad5a1025d81bb03","59a801616c613b0251691de0","no","no","0","j","f","space","NA","return","return","j","1225","1571","28036","NA","29465","13831","1225","2","legacy","1024","1","44100","-16","experiment","mzal","2","1","0","0","1","Englisch, Franzoesich, russish","42","","even","8780596","8752017","NA","NA","8782168","8780592","NA","7895418","8780109","7895419","7895419","8660738","8690208","8787066","8785561","8788292","8722391","8704348","8752016","NA","8555790","8648090","8750365","8704109","8780596","8704352","NA","8787065","8787065","NA","NA","8785557","NAP perception","1","2608","2","yes","1024"
"66.6666666667","yes","66.6666666667","1195.33333333","1195.33333333","white","no","xpyriment","Ich habe die obigen Informationen gelesen und verstanden.","legacy","legacy","0","uniform","1","0","0","undefined","undefined","1","j","2","1","NA","0","1","0","0","0","0","0","0","0","0","12","12","12","0","0","0","NA","0","0","2","0","0","0","2","12","12","12","12","12","Fri Nov  3 12:34:08 2017","Forced-choice identification task with a practice and an experimental phase","yes","NAP_GER_AA_4blocks_noglides.osexp","/Users/aviadalbert/Documents/Academisch/UoC/Dissertation/Experiment/OpenSesame/NAP-FC/NAP_GER_AA_4blocks_noglides","yes","no","sans","no","20","no","black","no","Weiter","yes","768","legacy","2","9","0","/Users/aviadalbert/Documents/Academisch/UoC/Dissertation/Experiment/OpenSesame/NAP-FC/NAP_GER_AA_4blocks_noglides/subject-42.csv","xpyriment","Jazzy James","3.1.9","yes","yes","59a800d99ad5a1025d81bb03","59a801616c613b0251691de0","no","no","0","j","f","space","NA","return","return","j","978","1571","28036","NA","29465","13831","978","2","legacy","1024","1","44100","-16","experiment","nepal","2","1","0","0","1","Englisch, Franzoesich, russish","42","","even","8780596","8752017","NA","NA","8782168","8780592","NA","7895418","8780109","7895419","7895419","8660738","8690208","8790079","8788576","8791058","8722391","8704348","8752016","NA","8555790","8648090","8750365","8704109","8780596","8704352","NA","8790079","8790079","NA","NA","8788572","NAP perception","2","3586","3","yes","1024"
"75","yes","75","1243.25","1243.25","white","no","xpyriment","Ich habe die obigen Informationen gelesen und verstanden.","legacy","legacy","0","uniform","1","0","0","undefined","undefined","1","f","2","1","NA","0","1","0","0","0","0","0","0","0","0","13","13","13","0","0","0","NA","0","0","2","0","0","0","2","13","13","13","13","13","Fri Nov  3 12:34:08 2017","Forced-choice identification task with a practice and an experimental phase","yes","NAP_GER_AA_4blocks_noglides.osexp","/Users/aviadalbert/Documents/Academisch/UoC/Dissertation/Experiment/OpenSesame/NAP-FC/NAP_GER_AA_4blocks_noglides","yes","no","sans","no","20","no","black","no","Weiter","yes","768","legacy","3","9","0","/Users/aviadalbert/Documents/Academisch/UoC/Dissertation/Experiment/OpenSesame/NAP-FC/NAP_GER_AA_4blocks_noglides/subject-42.csv","xpyriment","Jazzy James","3.1.9","yes","yes","59a800d99ad5a1025d81bb03","59a801616c613b0251691de0","no","no","0","f","f","space","NA","return","return","f","1387","1571","28036","NA","29465","13831","1387","2","legacy","1024","1","44100","-16","experiment","mlal","2","1","0","0","1","Englisch, Franzoesich, russish","42","","even","8780596","8752017","NA","NA","8782168","8780592","NA","7895418","8780109","7895419","7895419","8660738","8690208","8792840","8791334","8794228","8722391","8704348","8752016","NA","8555790","8648090","8750365","8704109","8780596","8704352","NA","8792840","8792840","NA","NA","8791331","NAP perception","3","4973","4","yes","1024"
"60","yes","60","1347.6","1347.6","white","no","xpyriment","Ich habe die obigen Informationen gelesen und verstanden.","legacy","legacy","0","uniform","0","0","0","undefined","undefined","0","f","2","1","NA","0","1","0","0","0","0","0","0","0","0","14","14","14","0","0","0","NA","0","0","2","0","0","0","2","14","14","14","14","14","Fri Nov  3 12:34:08 2017","Forced-choice identification task with a practice and an experimental phase","yes","NAP_GER_AA_4blocks_noglides.osexp","/Users/aviadalbert/Documents/Academisch/UoC/Dissertation/Experiment/OpenSesame/NAP-FC/NAP_GER_AA_4blocks_noglides","yes","no","sans","no","20","no","black","no","Weiter","yes","768","legacy","4","9","0","/Users/aviadalbert/Documents/Academisch/UoC/Dissertation/Experiment/OpenSesame/NAP-FC/NAP_GER_AA_4blocks_noglides/subject-42.csv","xpyriment","Jazzy James","3.1.9","yes","yes","59a800d99ad5a1025d81bb03","59a801616c613b0251691de0","no","no","0","j","f","space","NA","return","return","j","1765","1571","28036","NA","29465","13831","1765","2","legacy","1024","1","44100","-16","experiment","npal","2","1","0","0","1","Englisch, Franzoesich, russish","42","","even","8780596","8752017","NA","NA","8782168","8780592","NA","7895418","8780109","7895419","7895419","8660738","8690208","8796009","8794505","8797775","8722391","8704348","8752016","NA","8555790","8648090","8750365","8704109","8780596","8704352","NA","8796009","8796009","NA","NA","8794501","NAP perception","3","6738","5","yes","1024"
"66.6666666667","yes","66.6666666667","1325","1325","white","no","xpyriment","Ich habe die obigen Informationen gelesen und verstanden.","legacy","legacy","0","uniform","1","0","0","undefined","undefined","1","f","2","1","NA","0","1","0","0","0","0","0","0","0","0","15","15","15","0","0","0","NA","0","0","2","0","0","0","2","15","15","15","15","15","Fri Nov  3 12:34:08 2017","Forced-choice identification task with a practice and an experimental phase","yes","NAP_GER_AA_4blocks_noglides.osexp","/Users/aviadalbert/Documents/Academisch/UoC/Dissertation/Experiment/OpenSesame/NAP-FC/NAP_GER_AA_4blocks_noglides","yes","no","sans","no","20","no","black","no","Weiter","yes","768","legacy","5","9","0","/Users/aviadalbert/Documents/Academisch/UoC/Dissertation/Experiment/OpenSesame/NAP-FC/NAP_GER_AA_4blocks_noglides/subject-42.csv","xpyriment","Jazzy James","3.1.9","yes","yes","59a800d99ad5a1025d81bb03","59a801616c613b0251691de0","no","no","0","f","f","space","NA","return","return","f","1212","1571","28036","NA","29465","13831","1212","2","legacy","1024","1","44100","-16","experiment","ʃmal","2","1","0","0","1","Englisch, Franzoesich, russish","42","","even","8780596","8752017","NA","NA","8782168","8780592","NA","7895418","8780109","7895419","7895419","8660738","8690208","8799551","8798044","8800764","8722391","8704348","8752016","NA","8555790","8648090","8750365","8704109","8780596","8704352","NA","8799551","8799551","NA","NA","8798040","NAP perception","4","7950","6","yes","1024"
"71.4285714286","yes","71.4285714286","1249.42857143","1249.42857143","white","no","xpyriment","Ich habe die obigen Informationen gelesen und verstanden.","legacy","legacy","0","uniform","1","0","0","undefined","undefined","1","j","2","1","NA","0","1","0","0","0","0","0","0","0","0","16","16","16","0","0","0","NA","0","0","2","0","0","0","2","16","16","16","16","16","Fri Nov  3 12:34:08 2017","Forced-choice identification task with a practice and an experimental phase","yes","NAP_GER_AA_4blocks_noglides.osexp","/Users/aviadalbert/Documents/Academisch/UoC/Dissertation/Experiment/OpenSesame/NAP-FC/NAP_GER_AA_4blocks_noglides","yes","no","sans","no","20","no","black","no","Weiter","yes","768","legacy","6","9","0","/Users/aviadalbert/Documents/Academisch/UoC/Dissertation/Experiment/OpenSesame/NAP-FC/NAP_GER_AA_4blocks_noglides/subject-42.csv","xpyriment","Jazzy James","3.1.9","yes","yes","59a800d99ad5a1025d81bb03","59a801616c613b0251691de0","no","no","0","j","f","space","NA","return","return","j","796","1571","28036","NA","29465","13831","796","2","legacy","1024","1","44100","-16","experiment","enmal","2","1","0","0","1","Englisch, Franzoesich, russish","42","","even","8780596","8752017","NA","NA","8782168","8780592","NA","7895418","8780109","7895419","7895419","8660738","8690208","8802529","8801026","8803326","8722391","8704348","8752016","NA","8555790","8648090","8750365","8704109","8780596","8704352","NA","8802529","8802529","NA","NA","8801022","NAP perception","5","8746","7","yes","1024"
"75","yes","75","1208.875","1208.875","white","no","xpyriment","Ich habe die obigen Informationen gelesen und verstanden.","legacy","legacy","0","uniform","1","0","0","undefined","undefined","1","j","2","1","NA","0","1","0","0","0","0","0","0","0","0","17","17","17","0","0","0","NA","0","0","2","0","0","0","2","17","17","17","17","17","Fri Nov  3 12:34:08 2017","Forced-choice identification task with a practice and an experimental phase","yes","NAP_GER_AA_4blocks_noglides.osexp","/Users/aviadalbert/Documents/Academisch/UoC/Dissertation/Experiment/OpenSesame/NAP-FC/NAP_GER_AA_4blocks_noglides","yes","no","sans","no","20","no","black","no","Weiter","yes","768","legacy","7","9","0","/Users/aviadalbert/Documents/Academisch/UoC/Dissertation/Experiment/OpenSesame/NAP-FC/NAP_GER_AA_4blocks_noglides/subject-42.csv","xpyriment","Jazzy James","3.1.9","yes","yes","59a800d99ad5a1025d81bb03","59a801616c613b0251691de0","no","no","0","j","f","space","NA","return","return","j","925","1571","28036","NA","29465","13831","925","2","legacy","1024","1","44100","-16","experiment","metal","2","1","0","0","1","Englisch, Franzoesich, russish","42","","even","8780596","8752017","NA","NA","8782168","8780592","NA","7895418","8780109","7895419","7895419","8660738","8690208","8805103","8803600","8806029","8722391","8704348","8752016","NA","8555790","8648090","8750365","8704109","8780596","8704352","NA","8805103","8805103","NA","NA","8803596","NAP perception","6","9671","8","yes","1024"
"77.7777777778","yes","77.7777777778","1182.77777778","1182.77777778","white","no","xpyriment","Ich habe die obigen Informationen gelesen und verstanden.","legacy","legacy","0","uniform","1","0","0","undefined","undefined","1","j","2","1","NA","0","1","0","0","0","0","0","0","0","0","18","18","18","0","0","0","NA","0","0","2","0","0","0","2","18","18","18","18","18","Fri Nov  3 12:34:08 2017","Forced-choice identification task with a practice and an experimental phase","yes","NAP_GER_AA_4blocks_noglides.osexp","/Users/aviadalbert/Documents/Academisch/UoC/Dissertation/Experiment/OpenSesame/NAP-FC/NAP_GER_AA_4blocks_noglides","yes","no","sans","no","20","no","black","no","Weiter","yes","768","legacy","8","9","0","/Users/aviadalbert/Documents/Academisch/UoC/Dissertation/Experiment/OpenSesame/NAP-FC/NAP_GER_AA_4blocks_noglides/subject-42.csv","xpyriment","Jazzy James","3.1.9","yes","yes","59a800d99ad5a1025d81bb03","59a801616c613b0251691de0","no","no","0","j","f","space","NA","return","return","j","974","1571","28036","NA","29465","13831","974","2","legacy","1024","1","44100","-16","experiment","zeval","2","1","0","0","1","Englisch, Franzoesich, russish","42","","even","8780596","8752017","NA","NA","8782168","8780592","NA","7895418","8780109","7895419","7895419","8660738","8690208","8807808","8806303","8808783","8722391","8704348","8752016","NA","8555790","8648090","8750365","8704109","8780596","8704352","NA","8807807","8807808","NA","NA","8806298","NAP perception","7","10645","9","yes","1024"
"80","yes","80","1157","1157","white","no","xpyriment","Ich habe die obigen Informationen gelesen und verstanden.","legacy","legacy","0","uniform","1","0","0","undefined","undefined","1","j","2","1","NA","0","1","0","0","0","0","0","0","0","0","19","19","19","0","0","0","NA","0","0","2","0","0","0","2","19","19","19","19","19","Fri Nov  3 12:34:08 2017","Forced-choice identification task with a practice and an experimental phase","yes","NAP_GER_AA_4blocks_noglides.osexp","/Users/aviadalbert/Documents/Academisch/UoC/Dissertation/Experiment/OpenSesame/NAP-FC/NAP_GER_AA_4blocks_noglides","yes","no","sans","no","20","no","black","no","Weiter","yes","768","legacy","9","9","0","/Users/aviadalbert/Documents/Academisch/UoC/Dissertation/Experiment/OpenSesame/NAP-FC/NAP_GER_AA_4blocks_noglides/subject-42.csv","xpyriment","Jazzy James","3.1.9","yes","yes","59a800d99ad5a1025d81bb03","59a801616c613b0251691de0","no","no","0","j","f","space","NA","return","return","j","925","1571","28036","NA","29465","13831","925","2","legacy","1024","1","44100","-16","experiment","emlal","2","1","0","0","1","Englisch, Franzoesich, russish","42","","even","8780596","8752017","NA","NA","8782168","8780592","NA","7895418","8780109","7895419","7895419","8660738","8690208","8810557","8809052","8811483","8722391","8704348","8752016","NA","8555790","8648090","8750365","8704109","8780596","8704352","NA","8810557","8810557","NA","NA","8809048","NAP perception","8","11570","10","yes","1024"
"81.8181818182","yes","81.8181818182","1145.90909091","1145.90909091","white","no","xpyriment","Ich habe die obigen Informationen gelesen und verstanden.","legacy","legacy","0","uniform","1","0","0","undefined","undefined","1","f","2","1","NA","0","1","0","0","0","0","0","0","0","0","20","20","20","0","0","0","NA","0","0","2","0","0","0","2","20","20","20","20","20","Fri Nov  3 12:34:08 2017","Forced-choice identification task with a practice and an experimental phase","yes","NAP_GER_AA_4blocks_noglides.osexp","/Users/aviadalbert/Documents/Academisch/UoC/Dissertation/Experiment/OpenSesame/NAP-FC/NAP_GER_AA_4blocks_noglides","yes","no","sans","no","20","no","black","no","Weiter","yes","768","legacy","10","9","0","/Users/aviadalbert/Documents/Academisch/UoC/Dissertation/Experiment/OpenSesame/NAP-FC/NAP_GER_AA_4blocks_noglides/subject-42.csv","xpyriment","Jazzy James","3.1.9","yes","yes","59a800d99ad5a1025d81bb03","59a801616c613b0251691de0","no","no","0","f","f","space","NA","return","return","f","1035","1571","28036","NA","29465","13831","1035","2","legacy","1024","1","44100","-16","experiment","ʃfal","2","1","0","0","1","Englisch, Franzoesich, russish","42","","even","8780596","8752017","NA","NA","8782168","8780592","NA","7895418","8780109","7895419","7895419","8660738","8690208","8813256","8811752","8814292","8722391","8704348","8752016","NA","8555790","8648090","8750365","8704109","8780596","8704352","NA","8813256","8813256","NA","NA","8811749","NAP perception","9","12605","11","yes","1024"
"83.3333333333","yes","83.3333333333","1158","1158","white","no","xpyriment","Ich habe die obigen Informationen gelesen und verstanden.","legacy","legacy","0","uniform","1","0","0","undefined","undefined","1","f","2","1","NA","0","1","0","0","0","0","0","0","0","0","21","21","21","0","0","0","NA","0","0","2","0","0","0","2","21","21","21","21","21","Fri Nov  3 12:34:08 2017","Forced-choice identification task with a practice and an experimental phase","yes","NAP_GER_AA_4blocks_noglides.osexp","/Users/aviadalbert/Documents/Academisch/UoC/Dissertation/Experiment/OpenSesame/NAP-FC/NAP_GER_AA_4blocks_noglides","yes","no","sans","no","20","no","black","no","Weiter","yes","768","legacy","11","9","0","/Users/aviadalbert/Documents/Academisch/UoC/Dissertation/Experiment/OpenSesame/NAP-FC/NAP_GER_AA_4blocks_noglides/subject-42.csv","xpyriment","Jazzy James","3.1.9","yes","yes","59a800d99ad5a1025d81bb03","59a801616c613b0251691de0","no","no","0","f","f","space","NA","return","return","f","1291","1571","28036","NA","29465","13831","1291","2","legacy","1024","1","44100","-16","experiment","lkal","2","1","0","0","1","Englisch, Franzoesich, russish","42","","even","8780596","8752017","NA","NA","8782168","8780592","NA","7895418","8780109","7895419","7895419","8660738","8690208","8816068","8814564","8817360","8722391","8704348","8752016","NA","8555790","8648090","8750365","8704109","8780596","8704352","NA","8816068","8816068","NA","NA","8814560","NAP perception","10","13896","12","yes","1024"
"84.6153846154","yes","84.6153846154","1158.84615385","1158.84615385","white","no","xpyriment","Ich habe die obigen Informationen gelesen und verstanden.","legacy","legacy","0","uniform","1","0","0","undefined","undefined","1","j","2","1","NA","0","1","0","0","0","0","0","0","0","0","22","22","22","0","0","0","NA","0","0","2","0","0","0","2","22","22","22","22","22","Fri Nov  3 12:34:08 2017","Forced-choice identification task with a practice and an experimental phase","yes","NAP_GER_AA_4blocks_noglides.osexp","/Users/aviadalbert/Documents/Academisch/UoC/Dissertation/Experiment/OpenSesame/NAP-FC/NAP_GER_AA_4blocks_noglides","yes","no","sans","no","20","no","black","no","Weiter","yes","768","legacy","12","9","0","/Users/aviadalbert/Documents/Academisch/UoC/Dissertation/Experiment/OpenSesame/NAP-FC/NAP_GER_AA_4blocks_noglides/subject-42.csv","xpyriment","Jazzy James","3.1.9","yes","yes","59a800d99ad5a1025d81bb03","59a801616c613b0251691de0","no","no","0","j","f","space","NA","return","return","j","1169","1571","28036","NA","29465","13831","1169","2","legacy","1024","1","44100","-16","experiment","fenal","2","1","0","0","1","Englisch, Franzoesich, russish","42","","even","8780596","8752017","NA","NA","8782168","8780592","NA","7895418","8780109","7895419","7895419","8660738","8690208","8819140","8817637","8820311","8722391","8704348","8752016","NA","8555790","8648090","8750365","8704109","8780596","8704352","NA","8819140","8819140","NA","NA","8817633","NAP perception","11","15065","13","yes","1024"
"85.7142857143","yes","85.7142857143","1145.42857143","1145.42857143","white","no","xpyriment","Ich habe die obigen Informationen gelesen und verstanden.","legacy","legacy","0","uniform","1","0","0","undefined","undefined","1","j","2","1","NA","0","1","0","0","0","0","0","0","0","0","23","23","23","0","0","0","NA","0","0","2","0","0","0","2","23","23","23","23","23","Fri Nov  3 12:34:08 2017","Forced-choice identification task with a practice and an experimental phase","yes","NAP_GER_AA_4blocks_noglides.osexp","/Users/aviadalbert/Documents/Academisch/UoC/Dissertation/Experiment/OpenSesame/NAP-FC/NAP_GER_AA_4blocks_noglides","yes","no","sans","no","20","no","black","no","Weiter","yes","768","legacy","13","9","0","/Users/aviadalbert/Documents/Academisch/UoC/Dissertation/Experiment/OpenSesame/NAP-FC/NAP_GER_AA_4blocks_noglides/subject-42.csv","xpyriment","Jazzy James","3.1.9","yes","yes","59a800d99ad5a1025d81bb03","59a801616c613b0251691de0","no","no","0","j","f","space","NA","return","return","j","971","1571","28036","NA","29465","13831","971","2","legacy","1024","1","44100","-16","experiment","emtal","2","1","0","0","1","Englisch, Franzoesich, russish","42","","even","8780596","8752017","NA","NA","8782168","8780592","NA","7895418","8780109","7895419","7895419","8660738","8690208","8822099","8820596","8823072","8722391","8704348","8752016","NA","8555790","8648090","8750365","8704109","8780596","8704352","NA","8822099","8822099","NA","NA","8820592","NAP perception","12","16036","14","yes","1024"
"80","yes","80","1175.8","1175.8","white","no","xpyriment","Ich habe die obigen Informationen gelesen und verstanden.","legacy","legacy","0","uniform","0","0","0","undefined","undefined","0","f","2","1","NA","0","1","0","0","0","0","0","0","0","0","24","24","24","0","0","0","NA","0","0","2","0","0","0","2","24","24","24","24","24","Fri Nov  3 12:34:08 2017","Forced-choice identification task with a practice and an experimental phase","yes","NAP_GER_AA_4blocks_noglides.osexp","/Users/aviadalbert/Documents/Academisch/UoC/Dissertation/Experiment/OpenSesame/NAP-FC/NAP_GER_AA_4blocks_noglides","yes","no","sans","no","20","no","black","no","Weiter","yes","768","legacy","14","9","0","/Users/aviadalbert/Documents/Academisch/UoC/Dissertation/Experiment/OpenSesame/NAP-FC/NAP_GER_AA_4blocks_noglides/subject-42.csv","xpyriment","Jazzy James","3.1.9","yes","yes","59a800d99ad5a1025d81bb03","59a801616c613b0251691de0","no","no","0","j","f","space","NA","return","return","j","1601","1571","28036","NA","29465","13831","1601","2","legacy","1024","1","44100","-16","experiment","lval","2","1","0","0","1","Englisch, Franzoesich, russish","42","","even","8780596","8752017","NA","NA","8782168","8780592","NA","7895418","8780109","7895419","7895419","8660738","8690208","8824847","8823342","8826449","8722391","8704348","8752016","NA","8555790","8648090","8750365","8704109","8780596","8704352","NA","8824847","8824847","NA","NA","8823338","NAP perception","12","17637","15","yes","1024"
"81.25","yes","81.25","1187.625","1187.625","white","no","xpyriment","Ich habe die obigen Informationen gelesen und verstanden.","legacy","legacy","0","uniform","1","0","0","undefined","undefined","1","j","2","1","NA","0","1","0","0","0","0","0","0","0","0","25","25","25","0","0","0","NA","0","0","2","0","0","0","2","25","25","25","25","25","Fri Nov  3 12:34:08 2017","Forced-choice identification task with a practice and an experimental phase","yes","NAP_GER_AA_4blocks_noglides.osexp","/Users/aviadalbert/Documents/Academisch/UoC/Dissertation/Experiment/OpenSesame/NAP-FC/NAP_GER_AA_4blocks_noglides","yes","no","sans","no","20","no","black","no","Weiter","yes","768","legacy","15","9","0","/Users/aviadalbert/Documents/Academisch/UoC/Dissertation/Experiment/OpenSesame/NAP-FC/NAP_GER_AA_4blocks_noglides/subject-42.csv","xpyriment","Jazzy James","3.1.9","yes","yes","59a800d99ad5a1025d81bb03","59a801616c613b0251691de0","no","no","0","j","f","space","NA","return","return","j","1365","1571","28036","NA","29465","13831","1365","2","legacy","1024","1","44100","-16","experiment","lekal","2","1","0","0","1","Englisch, Franzoesich, russish","42","","even","8780596","8752017","NA","NA","8782168","8780592","NA","7895418","8780109","7895419","7895419","8660738","8690208","8828228","8826725","8829594","8722391","8704348","8752016","NA","8555790","8648090","8750365","8704109","8780596","8704352","NA","8828228","8828228","NA","NA","8826721","NAP perception","13","19002","16","yes","1024"
"76.4705882353","yes","76.4705882353","1228.05882353","1228.05882353","white","no","xpyriment","Ich habe die obigen Informationen gelesen und verstanden.","legacy","legacy","0","uniform","0","0","0","undefined","undefined","0","f","2","1","NA","0","1","0","0","0","0","0","0","0","0","26","26","26","0","0","0","NA","0","0","2","0","0","0","2","26","26","26","26","26","Fri Nov  3 12:34:08 2017","Forced-choice identification task with a practice and an experimental phase","yes","NAP_GER_AA_4blocks_noglides.osexp","/Users/aviadalbert/Documents/Academisch/UoC/Dissertation/Experiment/OpenSesame/NAP-FC/NAP_GER_AA_4blocks_noglides","yes","no","sans","no","20","no","black","no","Weiter","yes","768","legacy","16","9","0","/Users/aviadalbert/Documents/Academisch/UoC/Dissertation/Experiment/OpenSesame/NAP-FC/NAP_GER_AA_4blocks_noglides/subject-42.csv","xpyriment","Jazzy James","3.1.9","yes","yes","59a800d99ad5a1025d81bb03","59a801616c613b0251691de0","no","no","0","j","f","space","NA","return","return","j","1875","1571","28036","NA","29465","13831","1875","2","legacy","1024","1","44100","-16","experiment","mnal","2","1","0","0","1","Englisch, Franzoesich, russish","42","","even","8780596","8752017","NA","NA","8782168","8780592","NA","7895418","8780109","7895419","7895419","8660738","8690208","8831374","8829868","8833251","8722391","8704348","8752016","NA","8555790","8648090","8750365","8704109","8780596","8704352","NA","8831374","8831374","NA","NA","8829864","NAP perception","13","20877","17","yes","1024"
"77.7777777778","yes","77.7777777778","1207.88888889","1207.88888889","white","no","xpyriment","Ich habe die obigen Informationen gelesen und verstanden.","legacy","legacy","0","uniform","1","0","0","undefined","undefined","1","j","2","1","NA","0","1","0","0","0","0","0","0","0","0","27","27","27","0","0","0","NA","0","0","2","0","0","0","2","27","27","27","27","27","Fri Nov  3 12:34:08 2017","Forced-choice identification task with a practice and an experimental phase","yes","NAP_GER_AA_4blocks_noglides.osexp","/Users/aviadalbert/Documents/Academisch/UoC/Dissertation/Experiment/OpenSesame/NAP-FC/NAP_GER_AA_4blocks_noglides","yes","no","sans","no","20","no","black","no","Weiter","yes","768","legacy","17","9","0","/Users/aviadalbert/Documents/Academisch/UoC/Dissertation/Experiment/OpenSesame/NAP-FC/NAP_GER_AA_4blocks_noglides/subject-42.csv","xpyriment","Jazzy James","3.1.9","yes","yes","59a800d99ad5a1025d81bb03","59a801616c613b0251691de0","no","no","0","j","f","space","NA","return","return","j","865","1571","28036","NA","29465","13831","865","2","legacy","1024","1","44100","-16","experiment","mesal","2","1","0","0","1","Englisch, Franzoesich, russish","42","","even","8780596","8752017","NA","NA","8782168","8780592","NA","7895418","8780109","7895419","7895419","8660738","8690208","8835020","8833516","8835886","8722391","8704348","8752016","NA","8555790","8648090","8750365","8704109","8780596","8704352","NA","8835019","8835020","NA","NA","8833512","NAP perception","14","21742","18","yes","1024"
"78.9473684211","yes","78.9473684211","1211.89473684","1211.89473684","white","no","xpyriment","Ich habe die obigen Informationen gelesen und verstanden.","legacy","legacy","0","uniform","1","0","0","undefined","undefined","1","f","2","1","NA","0","1","0","0","0","0","0","0","0","0","28","28","28","0","0","0","NA","0","0","2","0","0","0","2","28","28","28","28","28","Fri Nov  3 12:34:08 2017","Forced-choice identification task with a practice and an experimental phase","yes","NAP_GER_AA_4blocks_noglides.osexp","/Users/aviadalbert/Documents/Academisch/UoC/Dissertation/Experiment/OpenSesame/NAP-FC/NAP_GER_AA_4blocks_noglides","yes","no","sans","no","20","no","black","no","Weiter","yes","768","legacy","18","9","0","/Users/aviadalbert/Documents/Academisch/UoC/Dissertation/Experiment/OpenSesame/NAP-FC/NAP_GER_AA_4blocks_noglides/subject-42.csv","xpyriment","Jazzy James","3.1.9","yes","yes","59a800d99ad5a1025d81bb03","59a801616c613b0251691de0","no","no","0","f","f","space","NA","return","return","f","1284","1571","28036","NA","29465","13831","1284","2","legacy","1024","1","44100","-16","experiment","zmal","2","1","0","0","1","Englisch, Franzoesich, russish","42","","even","8780596","8752017","NA","NA","8782168","8780592","NA","7895418","8780109","7895419","7895419","8660738","8690208","8837669","8836162","8838955","8722391","8704348","8752016","NA","8555790","8648090","8750365","8704109","8780596","8704352","NA","8837669","8837669","NA","NA","8836158","NAP perception","15","23026","19","yes","1024"
"80","yes","80","1193.75","1193.75","white","no","xpyriment","Ich habe die obigen Informationen gelesen und verstanden.","legacy","legacy","0","uniform","1","0","0","undefined","undefined","1","j","2","1","NA","0","1","0","0","0","0","0","0","0","0","29","29","29","0","0","0","NA","0","0","2","0","0","0","2","29","29","29","29","29","Fri Nov  3 12:34:08 2017","Forced-choice identification task with a practice and an experimental phase","yes","NAP_GER_AA_4blocks_noglides.osexp","/Users/aviadalbert/Documents/Academisch/UoC/Dissertation/Experiment/OpenSesame/NAP-FC/NAP_GER_AA_4blocks_noglides","yes","no","sans","no","20","no","black","no","Weiter","yes","768","legacy","19","9","0","/Users/aviadalbert/Documents/Academisch/UoC/Dissertation/Experiment/OpenSesame/NAP-FC/NAP_GER_AA_4blocks_noglides/subject-42.csv","xpyriment","Jazzy James","3.1.9","yes","yes","59a800d99ad5a1025d81bb03","59a801616c613b0251691de0","no","no","0","j","f","space","NA","return","return","j","849","1571","28036","NA","29465","13831","849","2","legacy","1024","1","44100","-16","experiment","nemal","2","1","0","0","1","Englisch, Franzoesich, russish","42","","even","8780596","8752017","NA","NA","8782168","8780592","NA","7895418","8780109","7895419","7895419","8660738","8690208","8840736","8839232","8841586","8722391","8704348","8752016","NA","8555790","8648090","8750365","8704109","8780596","8704352","NA","8840735","8840736","NA","NA","8839228","NAP perception","16","23875","20","yes","1024"
"76.1904761905","yes","76.1904761905","1207.19047619","1207.19047619","white","no","xpyriment","Ich habe die obigen Informationen gelesen und verstanden.","legacy","legacy","0","uniform","0","0","0","undefined","undefined","0","f","2","1","NA","0","1","0","0","0","0","0","0","0","0","30","30","30","0","0","0","NA","0","0","2","0","0","0","2","30","30","30","30","30","Fri Nov  3 12:34:08 2017","Forced-choice identification task with a practice and an experimental phase","yes","NAP_GER_AA_4blocks_noglides.osexp","/Users/aviadalbert/Documents/Academisch/UoC/Dissertation/Experiment/OpenSesame/NAP-FC/NAP_GER_AA_4blocks_noglides","yes","no","sans","no","20","no","black","no","Weiter","yes","768","legacy","20","9","0","/Users/aviadalbert/Documents/Academisch/UoC/Dissertation/Experiment/OpenSesame/NAP-FC/NAP_GER_AA_4blocks_noglides/subject-42.csv","xpyriment","Jazzy James","3.1.9","yes","yes","59a800d99ad5a1025d81bb03","59a801616c613b0251691de0","no","no","0","j","f","space","NA","return","return","j","1476","1571","28036","NA","29465","13831","1476","2","legacy","1024","1","44100","-16","experiment","mzal","2","1","0","0","1","Englisch, Franzoesich, russish","42","","even","8780596","8752017","NA","NA","8782168","8780592","NA","7895418","8780109","7895419","7895419","8660738","8690208","8843379","8841872","8844856","8722391","8704348","8752016","NA","8555790","8648090","8750365","8704109","8780596","8704352","NA","8843379","8843379","NA","NA","8841868","NAP perception","16","25351","21","yes","1024"
"72.7272727273","yes","72.7272727273","1230.18181818","1230.18181818","white","no","xpyriment","Ich habe die obigen Informationen gelesen und verstanden.","legacy","legacy","0","uniform","0","0","0","undefined","undefined","0","f","2","1","NA","0","1","0","0","0","0","0","0","0","0","31","31","31","0","0","0","NA","0","0","2","0","0","0","2","31","31","31","31","31","Fri Nov  3 12:34:08 2017","Forced-choice identification task with a practice and an experimental phase","yes","NAP_GER_AA_4blocks_noglides.osexp","/Users/aviadalbert/Documents/Academisch/UoC/Dissertation/Experiment/OpenSesame/NAP-FC/NAP_GER_AA_4blocks_noglides","yes","no","sans","no","20","no","black","no","Weiter","yes","768","legacy","21","9","0","/Users/aviadalbert/Documents/Academisch/UoC/Dissertation/Experiment/OpenSesame/NAP-FC/NAP_GER_AA_4blocks_noglides/subject-42.csv","xpyriment","Jazzy James","3.1.9","yes","yes","59a800d99ad5a1025d81bb03","59a801616c613b0251691de0","no","no","0","j","f","space","NA","return","return","j","1713","1571","28036","NA","29465","13831","1713","2","legacy","1024","1","44100","-16","experiment","lpal","2","1","0","0","1","Englisch, Franzoesich, russish","42","","even","8780596","8752017","NA","NA","8782168","8780592","NA","7895418","8780109","7895419","7895419","8660738","8690208","8846624","8845119","8848338","8722391","8704348","8752016","NA","8555790","8648090","8750365","8704109","8780596","8704352","NA","8846624","8846624","NA","NA","8845115","NAP perception","16","27064","22","yes","1024"
"73.9130434783","yes","73.9130434783","1242.7826087","1242.7826087","white","no","xpyriment","Ich habe die obigen Informationen gelesen und verstanden.","legacy","legacy","0","uniform","1","0","0","undefined","undefined","1","f","2","1","NA","0","1","0","0","0","0","0","0","0","0","32","32","32","0","0","0","NA","0","0","2","0","0","0","2","32","32","32","32","32","Fri Nov  3 12:34:08 2017","Forced-choice identification task with a practice and an experimental phase","yes","NAP_GER_AA_4blocks_noglides.osexp","/Users/aviadalbert/Documents/Academisch/UoC/Dissertation/Experiment/OpenSesame/NAP-FC/NAP_GER_AA_4blocks_noglides","yes","no","sans","no","20","no","black","no","Weiter","yes","768","legacy","22","9","0","/Users/aviadalbert/Documents/Academisch/UoC/Dissertation/Experiment/OpenSesame/NAP-FC/NAP_GER_AA_4blocks_noglides/subject-42.csv","xpyriment","Jazzy James","3.1.9","yes","yes","59a800d99ad5a1025d81bb03","59a801616c613b0251691de0","no","no","0","f","f","space","NA","return","return","f","1520","1571","28036","NA","29465","13831","1520","2","legacy","1024","1","44100","-16","experiment","vnal","2","1","0","0","1","Englisch, Franzoesich, russish","42","","even","8780596","8752017","NA","NA","8782168","8780592","NA","7895418","8780109","7895419","7895419","8660738","8690208","8850117","8848611","8851638","8722391","8704348","8752016","NA","8555790","8648090","8750365","8704109","8780596","8704352","NA","8850117","8850117","NA","NA","8848607","NAP perception","17","28584","23","yes","1024"
"75","yes","75","1255.33333333","1255.33333333","white","no","xpyriment","Ich habe die obigen Informationen gelesen und verstanden.","legacy","legacy","0","uniform","1","0","0","undefined","undefined","1","f","2","1","NA","0","1","0","0","0","0","0","0","0","0","33","33","33","0","0","0","NA","0","0","2","0","0","0","2","33","33","33","33","33","Fri Nov  3 12:34:08 2017","Forced-choice identification task with a practice and an experimental phase","yes","NAP_GER_AA_4blocks_noglides.osexp","/Users/aviadalbert/Documents/Academisch/UoC/Dissertation/Experiment/OpenSesame/NAP-FC/NAP_GER_AA_4blocks_noglides","yes","no","sans","no","20","no","black","no","Weiter","yes","768","legacy","23","9","0","/Users/aviadalbert/Documents/Academisch/UoC/Dissertation/Experiment/OpenSesame/NAP-FC/NAP_GER_AA_4blocks_noglides/subject-42.csv","xpyriment","Jazzy James","3.1.9","yes","yes","59a800d99ad5a1025d81bb03","59a801616c613b0251691de0","no","no","0","f","f","space","NA","return","return","f","1544","1571","28036","NA","29465","13831","1544","2","legacy","1024","1","44100","-16","experiment","ftal","2","1","0","0","1","Englisch, Franzoesich, russish","42","","even","8780596","8752017","NA","NA","8782168","8780592","NA","7895418","8780109","7895419","7895419","8660738","8690208","8853412","8851907","8854958","8722391","8704348","8752016","NA","8555790","8648090","8750365","8704109","8780596","8704352","NA","8853411","8853412","NA","NA","8851903","NAP perception","18","30128","24","yes","1024"
"76","yes","76","1254.48","1254.48","white","no","xpyriment","Ich habe die obigen Informationen gelesen und verstanden.","legacy","legacy","0","uniform","1","0","0","undefined","undefined","1","j","2","1","NA","0","1","0","0","0","0","0","0","0","0","34","34","34","0","0","0","NA","0","0","2","0","0","0","2","34","34","34","34","34","Fri Nov  3 12:34:08 2017","Forced-choice identification task with a practice and an experimental phase","yes","NAP_GER_AA_4blocks_noglides.osexp","/Users/aviadalbert/Documents/Academisch/UoC/Dissertation/Experiment/OpenSesame/NAP-FC/NAP_GER_AA_4blocks_noglides","yes","no","sans","no","20","no","black","no","Weiter","yes","768","legacy","24","9","0","/Users/aviadalbert/Documents/Academisch/UoC/Dissertation/Experiment/OpenSesame/NAP-FC/NAP_GER_AA_4blocks_noglides/subject-42.csv","xpyriment","Jazzy James","3.1.9","yes","yes","59a800d99ad5a1025d81bb03","59a801616c613b0251691de0","no","no","0","j","f","space","NA","return","return","j","1234","1571","28036","NA","29465","13831","1234","2","legacy","1024","1","44100","-16","experiment","elval","2","1","0","0","1","Englisch, Franzoesich, russish","42","","even","8780596","8752017","NA","NA","8782168","8780592","NA","7895418","8780109","7895419","7895419","8660738","8690208","8856726","8855221","8857961","8722391","8704348","8752016","NA","8555790","8648090","8750365","8704109","8780596","8704352","NA","8856726","8856726","NA","NA","8855217","NAP perception","19","31362","25","yes","1024"
"76.9230769231","yes","76.9230769231","1240.5","1240.5","white","no","xpyriment","Ich habe die obigen Informationen gelesen und verstanden.","legacy","legacy","0","uniform","1","0","0","undefined","undefined","1","f","2","1","NA","0","1","0","0","0","0","0","0","0","0","35","35","35","0","0","0","NA","0","0","2","0","0","0","2","35","35","35","35","35","Fri Nov  3 12:34:08 2017","Forced-choice identification task with a practice and an experimental phase","yes","NAP_GER_AA_4blocks_noglides.osexp","/Users/aviadalbert/Documents/Academisch/UoC/Dissertation/Experiment/OpenSesame/NAP-FC/NAP_GER_AA_4blocks_noglides","yes","no","sans","no","20","no","black","no","Weiter","yes","768","legacy","25","9","0","/Users/aviadalbert/Documents/Academisch/UoC/Dissertation/Experiment/OpenSesame/NAP-FC/NAP_GER_AA_4blocks_noglides/subject-42.csv","xpyriment","Jazzy James","3.1.9","yes","yes","59a800d99ad5a1025d81bb03","59a801616c613b0251691de0","no","no","0","f","f","space","NA","return","return","f","891","1571","28036","NA","29465","13831","891","2","legacy","1024","1","44100","-16","experiment","sfal","2","1","0","0","1","Englisch, Franzoesich, russish","42","","even","8780596","8752017","NA","NA","8782168","8780592","NA","7895418","8780109","7895419","7895419","8660738","8690208","8859750","8858246","8860643","8722391","8704348","8752016","NA","8555790","8648090","8750365","8704109","8780596","8704352","NA","8859750","8859750","NA","NA","8858242","NAP perception","20","32253","26","yes","1024"
"74.0740740741","yes","74.0740740741","1247.40740741","1247.40740741","white","no","xpyriment","Ich habe die obigen Informationen gelesen und verstanden.","legacy","legacy","0","uniform","0","0","0","undefined","undefined","0","f","2","1","NA","0","1","0","0","0","0","0","0","0","0","36","36","36","0","0","0","NA","0","0","2","0","0","0","2","36","36","36","36","36","Fri Nov  3 12:34:08 2017","Forced-choice identification task with a practice and an experimental phase","yes","NAP_GER_AA_4blocks_noglides.osexp","/Users/aviadalbert/Documents/Academisch/UoC/Dissertation/Experiment/OpenSesame/NAP-FC/NAP_GER_AA_4blocks_noglides","yes","no","sans","no","20","no","black","no","Weiter","yes","768","legacy","26","9","0","/Users/aviadalbert/Documents/Academisch/UoC/Dissertation/Experiment/OpenSesame/NAP-FC/NAP_GER_AA_4blocks_noglides/subject-42.csv","xpyriment","Jazzy James","3.1.9","yes","yes","59a800d99ad5a1025d81bb03","59a801616c613b0251691de0","no","no","0","j","f","space","NA","return","return","j","1427","1571","28036","NA","29465","13831","1427","2","legacy","1024","1","44100","-16","experiment","nval","2","1","0","0","1","Englisch, Franzoesich, russish","42","","even","8780596","8752017","NA","NA","8782168","8780592","NA","7895418","8780109","7895419","7895419","8660738","8690208","8862428","8860924","8863857","8722391","8704348","8752016","NA","8555790","8648090","8750365","8704109","8780596","8704352","NA","8862427","8862427","NA","NA","8860920","NAP perception","20","33680","27","yes","1024"
"71.4285714286","yes","71.4285714286","1239.67857143","1239.67857143","white","no","xpyriment","Ich habe die obigen Informationen gelesen und verstanden.","legacy","legacy","0","uniform","0","0","0","undefined","undefined","0","f","2","1","NA","0","1","0","0","0","0","0","0","0","0","37","37","37","0","0","0","NA","0","0","2","0","0","0","2","37","37","37","37","37","Fri Nov  3 12:34:08 2017","Forced-choice identification task with a practice and an experimental phase","yes","NAP_GER_AA_4blocks_noglides.osexp","/Users/aviadalbert/Documents/Academisch/UoC/Dissertation/Experiment/OpenSesame/NAP-FC/NAP_GER_AA_4blocks_noglides","yes","no","sans","no","20","no","black","no","Weiter","yes","768","legacy","27","9","0","/Users/aviadalbert/Documents/Academisch/UoC/Dissertation/Experiment/OpenSesame/NAP-FC/NAP_GER_AA_4blocks_noglides/subject-42.csv","xpyriment","Jazzy James","3.1.9","yes","yes","59a800d99ad5a1025d81bb03","59a801616c613b0251691de0","no","no","0","j","f","space","NA","return","return","j","1031","1571","28036","NA","29465","13831","1031","2","legacy","1024","1","44100","-16","experiment","mtal","2","1","0","0","1","Englisch, Franzoesich, russish","42","","even","8780596","8752017","NA","NA","8782168","8780592","NA","7895418","8780109","7895419","7895419","8660738","8690208","8865634","8864126","8866667","8722391","8704348","8752016","NA","8555790","8648090","8750365","8704109","8780596","8704352","NA","8865633","8865634","NA","NA","8864122","NAP perception","20","34711","28","yes","1024"
"72.4137931034","yes","72.4137931034","1230.06896552","1230.06896552","white","no","xpyriment","Ich habe die obigen Informationen gelesen und verstanden.","legacy","legacy","0","uniform","1","0","0","undefined","undefined","1","j","2","1","NA","0","1","0","0","0","0","0","0","0","0","38","38","38","0","0","0","NA","0","0","2","0","0","0","2","38","38","38","38","38","Fri Nov  3 12:34:08 2017","Forced-choice identification task with a practice and an experimental phase","yes","NAP_GER_AA_4blocks_noglides.osexp","/Users/aviadalbert/Documents/Academisch/UoC/Dissertation/Experiment/OpenSesame/NAP-FC/NAP_GER_AA_4blocks_noglides","yes","no","sans","no","20","no","black","no","Weiter","yes","768","legacy","28","9","0","/Users/aviadalbert/Documents/Academisch/UoC/Dissertation/Experiment/OpenSesame/NAP-FC/NAP_GER_AA_4blocks_noglides/subject-42.csv","xpyriment","Jazzy James","3.1.9","yes","yes","59a800d99ad5a1025d81bb03","59a801616c613b0251691de0","no","no","0","j","f","space","NA","return","return","j","961","1571","28036","NA","29465","13831","961","2","legacy","1024","1","44100","-16","experiment","felal","2","1","0","0","1","Englisch, Franzoesich, russish","42","","even","8780596","8752017","NA","NA","8782168","8780592","NA","7895418","8780109","7895419","7895419","8660738","8690208","8868458","8866954","8869420","8722391","8704348","8752016","NA","8555790","8648090","8750365","8704109","8780596","8704352","NA","8868458","8868458","NA","NA","8866950","NAP perception","21","35672","29","yes","1024"
"70","yes","70","1226.6","1226.6","white","no","xpyriment","Ich habe die obigen Informationen gelesen und verstanden.","legacy","legacy","0","uniform","0","0","0","undefined","undefined","0","f","2","1","NA","0","1","0","0","0","0","0","0","0","0","39","39","39","0","0","0","NA","0","0","2","0","0","0","2","39","39","39","39","39","Fri Nov  3 12:34:08 2017","Forced-choice identification task with a practice and an experimental phase","yes","NAP_GER_AA_4blocks_noglides.osexp","/Users/aviadalbert/Documents/Academisch/UoC/Dissertation/Experiment/OpenSesame/NAP-FC/NAP_GER_AA_4blocks_noglides","yes","no","sans","no","20","no","black","no","Weiter","yes","768","legacy","29","9","0","/Users/aviadalbert/Documents/Academisch/UoC/Dissertation/Experiment/OpenSesame/NAP-FC/NAP_GER_AA_4blocks_noglides/subject-42.csv","xpyriment","Jazzy James","3.1.9","yes","yes","59a800d99ad5a1025d81bb03","59a801616c613b0251691de0","no","no","0","j","f","space","NA","return","return","j","1126","1571","28036","NA","29465","13831","1126","2","legacy","1024","1","44100","-16","experiment","nval","2","1","0","0","1","Englisch, Franzoesich, russish","42","","even","8780596","8752017","NA","NA","8782168","8780592","NA","7895418","8780109","7895419","7895419","8660738","8690208","8871197","8869694","8872324","8722391","8704348","8752016","NA","8555790","8648090","8750365","8704109","8780596","8704352","NA","8871197","8871197","NA","NA","8869690","NAP perception","21","36798","30","yes","1024"
"70.9677419355","yes","70.9677419355","1212.87096774","1212.87096774","white","no","xpyriment","Ich habe die obigen Informationen gelesen und verstanden.","legacy","legacy","0","uniform","1","0","0","undefined","undefined","1","j","2","1","NA","0","1","0","0","0","0","0","0","0","0","40","40","40","0","0","0","NA","0","0","2","0","0","0","2","40","40","40","40","40","Fri Nov  3 12:34:08 2017","Forced-choice identification task with a practice and an experimental phase","yes","NAP_GER_AA_4blocks_noglides.osexp","/Users/aviadalbert/Documents/Academisch/UoC/Dissertation/Experiment/OpenSesame/NAP-FC/NAP_GER_AA_4blocks_noglides","yes","no","sans","no","20","no","black","no","Weiter","yes","768","legacy","30","9","0","/Users/aviadalbert/Documents/Academisch/UoC/Dissertation/Experiment/OpenSesame/NAP-FC/NAP_GER_AA_4blocks_noglides/subject-42.csv","xpyriment","Jazzy James","3.1.9","yes","yes","59a800d99ad5a1025d81bb03","59a801616c613b0251691de0","no","no","0","j","f","space","NA","return","return","j","801","1571","28036","NA","29465","13831","801","2","legacy","1024","1","44100","-16","experiment","eʃmal","2","1","0","0","1","Englisch, Franzoesich, russish","42","","even","8780596","8752017","NA","NA","8782168","8780592","NA","7895418","8780109","7895419","7895419","8660738","8690208","8874099","8872594","8874902","8722391","8704348","8752016","NA","8555790","8648090","8750365","8704109","8780596","8704352","NA","8874098","8874099","NA","NA","8872591","NAP perception","22","37599","31","yes","1024"
"71.875","yes","71.875","1216.71875","1216.71875","white","no","xpyriment","Ich habe die obigen Informationen gelesen und verstanden.","legacy","legacy","0","uniform","1","0","0","undefined","undefined","1","f","2","1","NA","0","1","0","0","0","0","0","0","0","0","41","41","41","0","0","0","NA","0","0","2","0","0","0","2","41","41","41","41","41","Fri Nov  3 12:34:08 2017","Forced-choice identification task with a practice and an experimental phase","yes","NAP_GER_AA_4blocks_noglides.osexp","/Users/aviadalbert/Documents/Academisch/UoC/Dissertation/Experiment/OpenSesame/NAP-FC/NAP_GER_AA_4blocks_noglides","yes","no","sans","no","20","no","black","no","Weiter","yes","768","legacy","31","9","0","/Users/aviadalbert/Documents/Academisch/UoC/Dissertation/Experiment/OpenSesame/NAP-FC/NAP_GER_AA_4blocks_noglides/subject-42.csv","xpyriment","Jazzy James","3.1.9","yes","yes","59a800d99ad5a1025d81bb03","59a801616c613b0251691de0","no","no","0","f","f","space","NA","return","return","f","1336","1571","28036","NA","29465","13831","1336","2","legacy","1024","1","44100","-16","experiment","ʃmal","2","1","0","0","1","Englisch, Franzoesich, russish","42","","even","8780596","8752017","NA","NA","8782168","8780592","NA","7895418","8780109","7895419","7895419","8660738","8690208","8876689","8875183","8878027","8722391","8704348","8752016","NA","8555790","8648090","8750365","8704109","8780596","8704352","NA","8876689","8876689","NA","NA","8875179","NAP perception","23","38935","32","yes","1024"
"69.696969697","yes","69.696969697","1222.45454545","1222.45454545","white","no","xpyriment","Ich habe die obigen Informationen gelesen und verstanden.","legacy","legacy","0","uniform","0","0","0","undefined","undefined","0","f","2","1","NA","0","1","0","0","0","0","0","0","0","0","42","42","42","0","0","0","NA","0","0","2","0","0","0","2","42","42","42","42","42","Fri Nov  3 12:34:08 2017","Forced-choice identification task with a practice and an experimental phase","yes","NAP_GER_AA_4blocks_noglides.osexp","/Users/aviadalbert/Documents/Academisch/UoC/Dissertation/Experiment/OpenSesame/NAP-FC/NAP_GER_AA_4blocks_noglides","yes","no","sans","no","20","no","black","no","Weiter","yes","768","legacy","32","9","0","/Users/aviadalbert/Documents/Academisch/UoC/Dissertation/Experiment/OpenSesame/NAP-FC/NAP_GER_AA_4blocks_noglides/subject-42.csv","xpyriment","Jazzy James","3.1.9","yes","yes","59a800d99ad5a1025d81bb03","59a801616c613b0251691de0","no","no","0","j","f","space","NA","return","return","j","1406","1571","28036","NA","29465","13831","1406","2","legacy","1024","1","44100","-16","experiment","fnal","2","1","0","0","1","Englisch, Franzoesich, russish","42","","even","8780596","8752017","NA","NA","8782168","8780592","NA","7895418","8780109","7895419","7895419","8660738","8690208","8879820","8878316","8881227","8722391","8704348","8752016","NA","8555790","8648090","8750365","8704109","8780596","8704352","NA","8879819","8879820","NA","NA","8878312","NAP perception","23","40341","33","yes","1024"
"67.6470588235","yes","67.6470588235","1237.88235294","1237.88235294","white","no","xpyriment","Ich habe die obigen Informationen gelesen und verstanden.","legacy","legacy","0","uniform","0","0","0","undefined","undefined","0","f","2","1","NA","0","1","0","0","0","0","0","0","0","0","43","43","43","0","0","0","NA","0","0","2","0","0","0","2","43","43","43","43","43","Fri Nov  3 12:34:08 2017","Forced-choice identification task with a practice and an experimental phase","yes","NAP_GER_AA_4blocks_noglides.osexp","/Users/aviadalbert/Documents/Academisch/UoC/Dissertation/Experiment/OpenSesame/NAP-FC/NAP_GER_AA_4blocks_noglides","yes","no","sans","no","20","no","black","no","Weiter","yes","768","legacy","33","9","0","/Users/aviadalbert/Documents/Academisch/UoC/Dissertation/Experiment/OpenSesame/NAP-FC/NAP_GER_AA_4blocks_noglides/subject-42.csv","xpyriment","Jazzy James","3.1.9","yes","yes","59a800d99ad5a1025d81bb03","59a801616c613b0251691de0","no","no","0","j","f","space","NA","return","return","j","1747","1571","28036","NA","29465","13831","1747","2","legacy","1024","1","44100","-16","experiment","sfal","2","1","0","0","1","Englisch, Franzoesich, russish","42","","even","8780596","8752017","NA","NA","8782168","8780592","NA","7895418","8780109","7895419","7895419","8660738","8690208","8883015","8881511","8884763","8722391","8704348","8752016","NA","8555790","8648090","8750365","8704109","8780596","8704352","NA","8883015","8883015","NA","NA","8881507","NAP perception","23","42088","34","yes","1024"
"68.5714285714","yes","68.5714285714","1230.85714286","1230.85714286","white","no","xpyriment","Ich habe die obigen Informationen gelesen und verstanden.","legacy","legacy","0","uniform","1","0","0","undefined","undefined","1","j","2","1","NA","0","1","0","0","0","0","0","0","0","0","44","44","44","0","0","0","NA","0","0","2","0","0","0","2","44","44","44","44","44","Fri Nov  3 12:34:08 2017","Forced-choice identification task with a practice and an experimental phase","yes","NAP_GER_AA_4blocks_noglides.osexp","/Users/aviadalbert/Documents/Academisch/UoC/Dissertation/Experiment/OpenSesame/NAP-FC/NAP_GER_AA_4blocks_noglides","yes","no","sans","no","20","no","black","no","Weiter","yes","768","legacy","34","9","0","/Users/aviadalbert/Documents/Academisch/UoC/Dissertation/Experiment/OpenSesame/NAP-FC/NAP_GER_AA_4blocks_noglides/subject-42.csv","xpyriment","Jazzy James","3.1.9","yes","yes","59a800d99ad5a1025d81bb03","59a801616c613b0251691de0","no","no","0","j","f","space","NA","return","return","j","992","1571","28036","NA","29465","13831","992","2","legacy","1024","1","44100","-16","experiment","elpal","2","1","0","0","1","Englisch, Franzoesich, russish","42","","even","8780596","8752017","NA","NA","8782168","8780592","NA","7895418","8780109","7895419","7895419","8660738","8690208","8886546","8885042","8887540","8722391","8704348","8752016","NA","8555790","8648090","8750365","8704109","8780596","8704352","NA","8886546","8886546","NA","NA","8885038","NAP perception","24","43080","35","yes","1024"
"66.6666666667","yes","66.6666666667","1235.72222222","1235.72222222","white","no","xpyriment","Ich habe die obigen Informationen gelesen und verstanden.","legacy","legacy","0","uniform","0","0","0","undefined","undefined","0","f","2","1","NA","0","1","0","0","0","0","0","0","0","0","45","45","45","0","0","0","NA","0","0","2","0","0","0","2","45","45","45","45","45","Fri Nov  3 12:34:08 2017","Forced-choice identification task with a practice and an experimental phase","yes","NAP_GER_AA_4blocks_noglides.osexp","/Users/aviadalbert/Documents/Academisch/UoC/Dissertation/Experiment/OpenSesame/NAP-FC/NAP_GER_AA_4blocks_noglides","yes","no","sans","no","20","no","black","no","Weiter","yes","768","legacy","35","9","0","/Users/aviadalbert/Documents/Academisch/UoC/Dissertation/Experiment/OpenSesame/NAP-FC/NAP_GER_AA_4blocks_noglides/subject-42.csv","xpyriment","Jazzy James","3.1.9","yes","yes","59a800d99ad5a1025d81bb03","59a801616c613b0251691de0","no","no","0","j","f","space","NA","return","return","j","1406","1571","28036","NA","29465","13831","1406","2","legacy","1024","1","44100","-16","experiment","vnal","2","1","0","0","1","Englisch, Franzoesich, russish","42","","even","8780596","8752017","NA","NA","8782168","8780592","NA","7895418","8780109","7895419","7895419","8660738","8690208","8889323","8887816","8890731","8722391","8704348","8752016","NA","8555790","8648090","8750365","8704109","8780596","8704352","NA","8889323","8889323","NA","NA","8887813","NAP perception","24","44486","36","yes","1024"
"67.5675675676","yes","67.5675675676","1232.08108108","1232.08108108","white","no","xpyriment","Ich habe die obigen Informationen gelesen und verstanden.","legacy","legacy","0","uniform","1","0","0","undefined","undefined","1","f","2","1","NA","0","1","0","0","0","0","0","0","0","0","46","46","46","0","0","0","NA","0","0","2","0","0","0","2","46","46","46","46","46","Fri Nov  3 12:34:08 2017","Forced-choice identification task with a practice and an experimental phase","yes","NAP_GER_AA_4blocks_noglides.osexp","/Users/aviadalbert/Documents/Academisch/UoC/Dissertation/Experiment/OpenSesame/NAP-FC/NAP_GER_AA_4blocks_noglides","yes","no","sans","no","20","no","black","no","Weiter","yes","768","legacy","36","9","0","/Users/aviadalbert/Documents/Academisch/UoC/Dissertation/Experiment/OpenSesame/NAP-FC/NAP_GER_AA_4blocks_noglides/subject-42.csv","xpyriment","Jazzy James","3.1.9","yes","yes","59a800d99ad5a1025d81bb03","59a801616c613b0251691de0","no","no","0","f","f","space","NA","return","return","f","1101","1571","28036","NA","29465","13831","1101","2","legacy","1024","1","44100","-16","experiment","spal","2","1","0","0","1","Englisch, Franzoesich, russish","42","","even","8780596","8752017","NA","NA","8782168","8780592","NA","7895418","8780109","7895419","7895419","8660738","8690208","8892491","8890987","8893594","8722391","8704348","8752016","NA","8555790","8648090","8750365","8704109","8780596","8704352","NA","8892491","8892491","NA","NA","8890984","NAP perception","25","45587","37","yes","1024"
"68.4210526316","yes","68.4210526316","1225.21052632","1225.21052632","white","no","xpyriment","Ich habe die obigen Informationen gelesen und verstanden.","legacy","legacy","0","uniform","1","0","0","undefined","undefined","1","j","2","1","NA","0","1","0","0","0","0","0","0","0","0","47","47","47","0","0","0","NA","0","0","2","0","0","0","2","47","47","47","47","47","Fri Nov  3 12:34:08 2017","Forced-choice identification task with a practice and an experimental phase","yes","NAP_GER_AA_4blocks_noglides.osexp","/Users/aviadalbert/Documents/Academisch/UoC/Dissertation/Experiment/OpenSesame/NAP-FC/NAP_GER_AA_4blocks_noglides","yes","no","sans","no","20","no","black","no","Weiter","yes","768","legacy","37","9","0","/Users/aviadalbert/Documents/Academisch/UoC/Dissertation/Experiment/OpenSesame/NAP-FC/NAP_GER_AA_4blocks_noglides/subject-42.csv","xpyriment","Jazzy James","3.1.9","yes","yes","59a800d99ad5a1025d81bb03","59a801616c613b0251691de0","no","no","0","j","f","space","NA","return","return","j","971","1571","28036","NA","29465","13831","971","2","legacy","1024","1","44100","-16","experiment","venal","2","1","0","0","1","Englisch, Franzoesich, russish","42","","even","8780596","8752017","NA","NA","8782168","8780592","NA","7895418","8780109","7895419","7895419","8660738","8690208","8895364","8893860","8896337","8722391","8704348","8752016","NA","8555790","8648090","8750365","8704109","8780596","8704352","NA","8895364","8895364","NA","NA","8893857","NAP perception","26","46558","38","yes","1024"
"69.2307692308","yes","69.2307692308","1218.43589744","1218.43589744","white","no","xpyriment","Ich habe die obigen Informationen gelesen und verstanden.","legacy","legacy","0","uniform","1","0","0","undefined","undefined","1","j","2","1","NA","0","1","0","0","0","0","0","0","0","0","48","48","48","0","0","0","NA","0","0","2","0","0","0","2","48","48","48","48","48","Fri Nov  3 12:34:08 2017","Forced-choice identification task with a practice and an experimental phase","yes","NAP_GER_AA_4blocks_noglides.osexp","/Users/aviadalbert/Documents/Academisch/UoC/Dissertation/Experiment/OpenSesame/NAP-FC/NAP_GER_AA_4blocks_noglides","yes","no","sans","no","20","no","black","no","Weiter","yes","768","legacy","38","9","0","/Users/aviadalbert/Documents/Academisch/UoC/Dissertation/Experiment/OpenSesame/NAP-FC/NAP_GER_AA_4blocks_noglides/subject-42.csv","xpyriment","Jazzy James","3.1.9","yes","yes","59a800d99ad5a1025d81bb03","59a801616c613b0251691de0","no","no","0","j","f","space","NA","return","return","j","961","1571","28036","NA","29465","13831","961","2","legacy","1024","1","44100","-16","experiment","ʃepal","2","1","0","0","1","Englisch, Franzoesich, russish","42","","even","8780596","8752017","NA","NA","8782168","8780592","NA","7895418","8780109","7895419","7895419","8660738","8690208","8898109","8896605","8899072","8722391","8704348","8752016","NA","8555790","8648090","8750365","8704109","8780596","8704352","NA","8898108","8898108","NA","NA","8896601","NAP perception","27","47519","39","yes","1024"
"70","yes","70","1208.475","1208.475","white","no","xpyriment","Ich habe die obigen Informationen gelesen und verstanden.","legacy","legacy","0","uniform","1","0","0","undefined","undefined","1","f","2","1","NA","0","1","0","0","0","0","0","0","0","0","49","49","49","0","0","0","NA","0","0","2","0","0","0","2","49","49","49","49","49","Fri Nov  3 12:34:08 2017","Forced-choice identification task with a practice and an experimental phase","yes","NAP_GER_AA_4blocks_noglides.osexp","/Users/aviadalbert/Documents/Academisch/UoC/Dissertation/Experiment/OpenSesame/NAP-FC/NAP_GER_AA_4blocks_noglides","yes","no","sans","no","20","no","black","no","Weiter","yes","768","legacy","39","9","0","/Users/aviadalbert/Documents/Academisch/UoC/Dissertation/Experiment/OpenSesame/NAP-FC/NAP_GER_AA_4blocks_noglides/subject-42.csv","xpyriment","Jazzy James","3.1.9","yes","yes","59a800d99ad5a1025d81bb03","59a801616c613b0251691de0","no","no","0","f","f","space","NA","return","return","f","820","1571","28036","NA","29465","13831","820","2","legacy","1024","1","44100","-16","experiment","spal","2","1","0","0","1","Englisch, Franzoesich, russish","42","","even","8780596","8752017","NA","NA","8782168","8780592","NA","7895418","8780109","7895419","7895419","8660738","8690208","8900856","8899352","8901678","8722391","8704348","8752016","NA","8555790","8648090","8750365","8704109","8780596","8704352","NA","8900856","8900856","NA","NA","8899348","NAP perception","28","48339","40","yes","1024"
"68.2926829268","yes","68.2926829268","1206.26829268","1206.26829268","white","no","xpyriment","Ich habe die obigen Informationen gelesen und verstanden.","legacy","legacy","0","uniform","0","0","0","undefined","undefined","0","f","2","1","NA","0","1","0","0","0","0","0","0","0","0","50","50","50","0","0","0","NA","0","0","2","0","0","0","2","50","50","50","50","50","Fri Nov  3 12:34:08 2017","Forced-choice identification task with a practice and an experimental phase","yes","NAP_GER_AA_4blocks_noglides.osexp","/Users/aviadalbert/Documents/Academisch/UoC/Dissertation/Experiment/OpenSesame/NAP-FC/NAP_GER_AA_4blocks_noglides","yes","no","sans","no","20","no","black","no","Weiter","yes","768","legacy","40","9","0","/Users/aviadalbert/Documents/Academisch/UoC/Dissertation/Experiment/OpenSesame/NAP-FC/NAP_GER_AA_4blocks_noglides/subject-42.csv","xpyriment","Jazzy James","3.1.9","yes","yes","59a800d99ad5a1025d81bb03","59a801616c613b0251691de0","no","no","0","j","f","space","NA","return","return","j","1118","1571","28036","NA","29465","13831","1118","2","legacy","1024","1","44100","-16","experiment","nmal","2","1","0","0","1","Englisch, Franzoesich, russish","42","","even","8780596","8752017","NA","NA","8782168","8780592","NA","7895418","8780109","7895419","7895419","8660738","8690208","8903453","8901950","8904572","8722391","8704348","8752016","NA","8555790","8648090","8750365","8704109","8780596","8704352","NA","8903453","8903453","NA","NA","8901947","NAP perception","28","49457","41","yes","1024"
"66.6666666667","yes","66.6666666667","1204.78571429","1204.78571429","white","no","xpyriment","Ich habe die obigen Informationen gelesen und verstanden.","legacy","legacy","0","uniform","0","0","0","undefined","undefined","0","f","2","1","NA","0","1","0","0","0","0","0","0","0","0","51","51","51","0","0","0","NA","0","0","2","0","0","0","2","51","51","51","51","51","Fri Nov  3 12:34:08 2017","Forced-choice identification task with a practice and an experimental phase","yes","NAP_GER_AA_4blocks_noglides.osexp","/Users/aviadalbert/Documents/Academisch/UoC/Dissertation/Experiment/OpenSesame/NAP-FC/NAP_GER_AA_4blocks_noglides","yes","no","sans","no","20","no","black","no","Weiter","yes","768","legacy","41","9","0","/Users/aviadalbert/Documents/Academisch/UoC/Dissertation/Experiment/OpenSesame/NAP-FC/NAP_GER_AA_4blocks_noglides/subject-42.csv","xpyriment","Jazzy James","3.1.9","yes","yes","59a800d99ad5a1025d81bb03","59a801616c613b0251691de0","no","no","0","j","f","space","NA","return","return","j","1144","1571","28036","NA","29465","13831","1144","2","legacy","1024","1","44100","-16","experiment","nfal","2","1","0","0","1","Englisch, Franzoesich, russish","42","","even","8780596","8752017","NA","NA","8782168","8780592","NA","7895418","8780109","7895419","7895419","8660738","8690208","8906353","8904850","8907498","8722391","8704348","8752016","NA","8555790","8648090","8750365","8704109","8780596","8704352","NA","8906353","8906353","NA","NA","8904846","NAP perception","28","50601","42","yes","1024"
"67.4418604651","yes","67.4418604651","1205.34883721","1205.34883721","white","no","xpyriment","Ich habe die obigen Informationen gelesen und verstanden.","legacy","legacy","0","uniform","1","0","0","undefined","undefined","1","j","2","1","NA","0","1","0","0","0","0","0","0","0","0","52","52","52","0","0","0","NA","0","0","2","0","0","0","2","52","52","52","52","52","Fri Nov  3 12:34:08 2017","Forced-choice identification task with a practice and an experimental phase","yes","NAP_GER_AA_4blocks_noglides.osexp","/Users/aviadalbert/Documents/Academisch/UoC/Dissertation/Experiment/OpenSesame/NAP-FC/NAP_GER_AA_4blocks_noglides","yes","no","sans","no","20","no","black","no","Weiter","yes","768","legacy","42","9","0","/Users/aviadalbert/Documents/Academisch/UoC/Dissertation/Experiment/OpenSesame/NAP-FC/NAP_GER_AA_4blocks_noglides/subject-42.csv","xpyriment","Jazzy James","3.1.9","yes","yes","59a800d99ad5a1025d81bb03","59a801616c613b0251691de0","no","no","0","j","f","space","NA","return","return","j","1229","1571","28036","NA","29465","13831","1229","2","legacy","1024","1","44100","-16","experiment","emnal","2","1","0","0","1","Englisch, Franzoesich, russish","42","","even","8780596","8752017","NA","NA","8782168","8780592","NA","7895418","8780109","7895419","7895419","8660738","8690208","8909267","8907764","8910498","8722391","8704348","8752016","NA","8555790","8648090","8750365","8704109","8780596","8704352","NA","8909267","8909267","NA","NA","8907760","NAP perception","29","51830","43","yes","1024"
"65.9090909091","yes","65.9090909091","1212.52272727","1212.52272727","white","no","xpyriment","Ich habe die obigen Informationen gelesen und verstanden.","legacy","legacy","0","uniform","0","0","0","undefined","undefined","0","f","2","1","NA","0","1","0","0","0","0","0","0","0","0","53","53","53","0","0","0","NA","0","0","2","0","0","0","2","53","53","53","53","53","Fri Nov  3 12:34:08 2017","Forced-choice identification task with a practice and an experimental phase","yes","NAP_GER_AA_4blocks_noglides.osexp","/Users/aviadalbert/Documents/Academisch/UoC/Dissertation/Experiment/OpenSesame/NAP-FC/NAP_GER_AA_4blocks_noglides","yes","no","sans","no","20","no","black","no","Weiter","yes","768","legacy","43","9","0","/Users/aviadalbert/Documents/Academisch/UoC/Dissertation/Experiment/OpenSesame/NAP-FC/NAP_GER_AA_4blocks_noglides/subject-42.csv","xpyriment","Jazzy James","3.1.9","yes","yes","59a800d99ad5a1025d81bb03","59a801616c613b0251691de0","no","no","0","j","f","space","NA","return","return","j","1521","1571","28036","NA","29465","13831","1521","2","legacy","1024","1","44100","-16","experiment","lfal","2","1","0","0","1","Englisch, Franzoesich, russish","42","","even","8780596","8752017","NA","NA","8782168","8780592","NA","7895418","8780109","7895419","7895419","8660738","8690208","8912281","8910777","8913803","8722391","8704348","8752016","NA","8555790","8648090","8750365","8704109","8780596","8704352","NA","8912280","8912281","NA","NA","8910773","NAP perception","29","53351","44","yes","1024"
"66.6666666667","yes","66.6666666667","1205.91111111","1205.91111111","white","no","xpyriment","Ich habe die obigen Informationen gelesen und verstanden.","legacy","legacy","0","uniform","1","0","0","undefined","undefined","1","j","2","1","NA","0","1","0","0","0","0","0","0","0","0","54","54","54","0","0","0","NA","0","0","2","0","0","0","2","54","54","54","54","54","Fri Nov  3 12:34:08 2017","Forced-choice identification task with a practice and an experimental phase","yes","NAP_GER_AA_4blocks_noglides.osexp","/Users/aviadalbert/Documents/Academisch/UoC/Dissertation/Experiment/OpenSesame/NAP-FC/NAP_GER_AA_4blocks_noglides","yes","no","sans","no","20","no","black","no","Weiter","yes","768","legacy","44","9","0","/Users/aviadalbert/Documents/Academisch/UoC/Dissertation/Experiment/OpenSesame/NAP-FC/NAP_GER_AA_4blocks_noglides/subject-42.csv","xpyriment","Jazzy James","3.1.9","yes","yes","59a800d99ad5a1025d81bb03","59a801616c613b0251691de0","no","no","0","j","f","space","NA","return","return","j","915","1571","28036","NA","29465","13831","915","2","legacy","1024","1","44100","-16","experiment","melal","2","1","0","0","1","Englisch, Franzoesich, russish","42","","even","8780596","8752017","NA","NA","8782168","8780592","NA","7895418","8780109","7895419","7895419","8660738","8690208","8915572","8914066","8916489","8722391","8704348","8752016","NA","8555790","8648090","8750365","8704109","8780596","8704352","NA","8915571","8915571","NA","NA","8914062","NAP perception","30","54266","45","yes","1024"
"67.3913043478","yes","67.3913043478","1200.45652174","1200.45652174","white","no","xpyriment","Ich habe die obigen Informationen gelesen und verstanden.","legacy","legacy","0","uniform","1","0","0","undefined","undefined","1","j","2","1","NA","0","1","0","0","0","0","0","0","0","0","55","55","55","0","0","0","NA","0","0","2","0","0","0","2","55","55","55","55","55","Fri Nov  3 12:34:08 2017","Forced-choice identification task with a practice and an experimental phase","yes","NAP_GER_AA_4blocks_noglides.osexp","/Users/aviadalbert/Documents/Academisch/UoC/Dissertation/Experiment/OpenSesame/NAP-FC/NAP_GER_AA_4blocks_noglides","yes","no","sans","no","20","no","black","no","Weiter","yes","768","legacy","45","9","0","/Users/aviadalbert/Documents/Academisch/UoC/Dissertation/Experiment/OpenSesame/NAP-FC/NAP_GER_AA_4blocks_noglides/subject-42.csv","xpyriment","Jazzy James","3.1.9","yes","yes","59a800d99ad5a1025d81bb03","59a801616c613b0251691de0","no","no","0","j","f","space","NA","return","return","j","955","1571","28036","NA","29465","13831","955","2","legacy","1024","1","44100","-16","experiment","elmal","2","1","0","0","1","Englisch, Franzoesich, russish","42","","even","8780596","8752017","NA","NA","8782168","8780592","NA","7895418","8780109","7895419","7895419","8660738","8690208","8918248","8916744","8919205","8722391","8704348","8752016","NA","8555790","8648090","8750365","8704109","8780596","8704352","NA","8918248","8918248","NA","NA","8916741","NAP perception","31","55221","46","yes","1024"
"68.085106383","yes","68.085106383","1197.23404255","1197.23404255","white","no","xpyriment","Ich habe die obigen Informationen gelesen und verstanden.","legacy","legacy","0","uniform","1","0","0","undefined","undefined","1","j","2","1","NA","0","1","0","0","0","0","0","0","0","0","56","56","56","0","0","0","NA","0","0","2","0","0","0","2","56","56","56","56","56","Fri Nov  3 12:34:08 2017","Forced-choice identification task with a practice and an experimental phase","yes","NAP_GER_AA_4blocks_noglides.osexp","/Users/aviadalbert/Documents/Academisch/UoC/Dissertation/Experiment/OpenSesame/NAP-FC/NAP_GER_AA_4blocks_noglides","yes","no","sans","no","20","no","black","no","Weiter","yes","768","legacy","46","9","0","/Users/aviadalbert/Documents/Academisch/UoC/Dissertation/Experiment/OpenSesame/NAP-FC/NAP_GER_AA_4blocks_noglides/subject-42.csv","xpyriment","Jazzy James","3.1.9","yes","yes","59a800d99ad5a1025d81bb03","59a801616c613b0251691de0","no","no","0","j","f","space","NA","return","return","j","1049","1571","28036","NA","29465","13831","1049","2","legacy","1024","1","44100","-16","experiment","ʃefal","2","1","0","0","1","Englisch, Franzoesich, russish","42","","even","8780596","8752017","NA","NA","8782168","8780592","NA","7895418","8780109","7895419","7895419","8660738","8690208","8920972","8919468","8922023","8722391","8704348","8752016","NA","8555790","8648090","8750365","8704109","8780596","8704352","NA","8920972","8920972","NA","NA","8919465","NAP perception","32","56270","47","yes","1024"
"68.75","yes","68.75","1199.52083333","1199.52083333","white","no","xpyriment","Ich habe die obigen Informationen gelesen und verstanden.","legacy","legacy","0","uniform","1","0","0","undefined","undefined","1","f","2","1","NA","0","1","0","0","0","0","0","0","0","0","57","57","57","0","0","0","NA","0","0","2","0","0","0","2","57","57","57","57","57","Fri Nov  3 12:34:08 2017","Forced-choice identification task with a practice and an experimental phase","yes","NAP_GER_AA_4blocks_noglides.osexp","/Users/aviadalbert/Documents/Academisch/UoC/Dissertation/Experiment/OpenSesame/NAP-FC/NAP_GER_AA_4blocks_noglides","yes","no","sans","no","20","no","black","no","Weiter","yes","768","legacy","47","9","0","/Users/aviadalbert/Documents/Academisch/UoC/Dissertation/Experiment/OpenSesame/NAP-FC/NAP_GER_AA_4blocks_noglides/subject-42.csv","xpyriment","Jazzy James","3.1.9","yes","yes","59a800d99ad5a1025d81bb03","59a801616c613b0251691de0","no","no","0","f","f","space","NA","return","return","f","1307","1571","28036","NA","29465","13831","1307","2","legacy","1024","1","44100","-16","experiment","flal","2","1","0","0","1","Englisch, Franzoesich, russish","42","","even","8780596","8752017","NA","NA","8782168","8780592","NA","7895418","8780109","7895419","7895419","8660738","8690208","8923795","8922291","8925104","8722391","8704348","8752016","NA","8555790","8648090","8750365","8704109","8780596","8704352","NA","8923795","8923795","NA","NA","8922287","NAP perception","33","57577","48","yes","1024"
"69.387755102","yes","69.387755102","1194.34693878","1194.34693878","white","no","xpyriment","Ich habe die obigen Informationen gelesen und verstanden.","legacy","legacy","0","uniform","1","0","0","undefined","undefined","1","j","2","1","NA","0","1","0","0","0","0","0","0","0","0","58","58","58","0","0","0","NA","0","0","2","0","0","0","2","58","58","58","58","58","Fri Nov  3 12:34:08 2017","Forced-choice identification task with a practice and an experimental phase","yes","NAP_GER_AA_4blocks_noglides.osexp","/Users/aviadalbert/Documents/Academisch/UoC/Dissertation/Experiment/OpenSesame/NAP-FC/NAP_GER_AA_4blocks_noglides","yes","no","sans","no","20","no","black","no","Weiter","yes","768","legacy","48","9","0","/Users/aviadalbert/Documents/Academisch/UoC/Dissertation/Experiment/OpenSesame/NAP-FC/NAP_GER_AA_4blocks_noglides/subject-42.csv","xpyriment","Jazzy James","3.1.9","yes","yes","59a800d99ad5a1025d81bb03","59a801616c613b0251691de0","no","no","0","j","f","space","NA","return","return","j","946","1571","28036","NA","29465","13831","946","2","legacy","1024","1","44100","-16","experiment","esfal","2","1","0","0","1","Englisch, Franzoesich, russish","42","","even","8780596","8752017","NA","NA","8782168","8780592","NA","7895418","8780109","7895419","7895419","8660738","8690208","8926908","8925404","8927857","8722391","8704348","8752016","NA","8555790","8648090","8750365","8704109","8780596","8704352","NA","8926908","8926908","NA","NA","8925400","NAP perception","34","58523","49","yes","1024"
"70","yes","70","1200.58","1200.58","white","no","xpyriment","Ich habe die obigen Informationen gelesen und verstanden.","legacy","legacy","0","uniform","1","0","0","undefined","undefined","1","f","2","1","NA","0","1","0","0","0","0","0","0","0","0","59","59","59","0","0","0","NA","0","0","2","0","0","0","2","59","59","59","59","59","Fri Nov  3 12:34:08 2017","Forced-choice identification task with a practice and an experimental phase","yes","NAP_GER_AA_4blocks_noglides.osexp","/Users/aviadalbert/Documents/Academisch/UoC/Dissertation/Experiment/OpenSesame/NAP-FC/NAP_GER_AA_4blocks_noglides","yes","no","sans","no","20","no","black","no","Weiter","yes","768","legacy","49","9","0","/Users/aviadalbert/Documents/Academisch/UoC/Dissertation/Experiment/OpenSesame/NAP-FC/NAP_GER_AA_4blocks_noglides/subject-42.csv","xpyriment","Jazzy James","3.1.9","yes","yes","59a800d99ad5a1025d81bb03","59a801616c613b0251691de0","no","no","0","f","f","space","NA","return","return","f","1506","1571","28036","NA","29465","13831","1506","2","legacy","1024","1","44100","-16","experiment","zval","2","1","0","0","1","Englisch, Franzoesich, russish","42","","even","8780596","8752017","NA","NA","8782168","8780592","NA","7895418","8780109","7895419","7895419","8660738","8690208","8929635","8928130","8931143","8722391","8704348","8752016","NA","8555790","8648090","8750365","8704109","8780596","8704352","NA","8929635","8929635","NA","NA","8928126","NAP perception","35","60029","50","yes","1024"
"70.5882352941","yes","70.5882352941","1197.62745098","1197.62745098","white","no","xpyriment","Ich habe die obigen Informationen gelesen und verstanden.","legacy","legacy","0","uniform","1","0","0","undefined","undefined","1","j","2","1","NA","0","1","0","0","0","0","0","0","0","0","60","60","60","0","0","0","NA","0","0","2","0","0","0","2","60","60","60","60","60","Fri Nov  3 12:34:08 2017","Forced-choice identification task with a practice and an experimental phase","yes","NAP_GER_AA_4blocks_noglides.osexp","/Users/aviadalbert/Documents/Academisch/UoC/Dissertation/Experiment/OpenSesame/NAP-FC/NAP_GER_AA_4blocks_noglides","yes","no","sans","no","20","no","black","no","Weiter","yes","768","legacy","50","9","0","/Users/aviadalbert/Documents/Academisch/UoC/Dissertation/Experiment/OpenSesame/NAP-FC/NAP_GER_AA_4blocks_noglides/subject-42.csv","xpyriment","Jazzy James","3.1.9","yes","yes","59a800d99ad5a1025d81bb03","59a801616c613b0251691de0","no","no","0","j","f","space","NA","return","return","j","1050","1571","28036","NA","29465","13831","1050","2","legacy","1024","1","44100","-16","experiment","efnal","2","1","0","0","1","Englisch, Franzoesich, russish","42","","even","8780596","8752017","NA","NA","8782168","8780592","NA","7895418","8780109","7895419","7895419","8660738","8690208","8932941","8931437","8933993","8722391","8704348","8752016","NA","8555790","8648090","8750365","8704109","8780596","8704352","NA","8932940","8932940","NA","NA","8931433","NAP perception","36","61079","51","yes","1024"
"71.1538461538","yes","71.1538461538","1203.01923077","1203.01923077","white","no","xpyriment","Ich habe die obigen Informationen gelesen und verstanden.","legacy","legacy","0","uniform","1","0","0","undefined","undefined","1","f","2","1","NA","0","1","0","0","0","0","0","0","0","0","61","61","61","0","0","0","NA","0","0","2","0","0","0","2","61","61","61","61","61","Fri Nov  3 12:34:08 2017","Forced-choice identification task with a practice and an experimental phase","yes","NAP_GER_AA_4blocks_noglides.osexp","/Users/aviadalbert/Documents/Academisch/UoC/Dissertation/Experiment/OpenSesame/NAP-FC/NAP_GER_AA_4blocks_noglides","yes","no","sans","no","20","no","black","no","Weiter","yes","768","legacy","51","9","0","/Users/aviadalbert/Documents/Academisch/UoC/Dissertation/Experiment/OpenSesame/NAP-FC/NAP_GER_AA_4blocks_noglides/subject-42.csv","xpyriment","Jazzy James","3.1.9","yes","yes","59a800d99ad5a1025d81bb03","59a801616c613b0251691de0","no","no","0","f","f","space","NA","return","return","f","1478","1571","28036","NA","29465","13831","1478","2","legacy","1024","1","44100","-16","experiment","vzal","2","1","0","0","1","Englisch, Franzoesich, russish","42","","even","8780596","8752017","NA","NA","8782168","8780592","NA","7895418","8780109","7895419","7895419","8660738","8690208","8935781","8934275","8937261","8722391","8704348","8752016","NA","8555790","8648090","8750365","8704109","8780596","8704352","NA","8935780","8935781","NA","NA","8934271","NAP perception","37","62557","52","yes","1024"
"71.6981132075","yes","71.6981132075","1198.86792453","1198.86792453","white","no","xpyriment","Ich habe die obigen Informationen gelesen und verstanden.","legacy","legacy","0","uniform","1","0","0","undefined","undefined","1","f","2","1","NA","0","1","0","0","0","0","0","0","0","0","62","62","62","0","0","0","NA","0","0","2","0","0","0","2","62","62","62","62","62","Fri Nov  3 12:34:08 2017","Forced-choice identification task with a practice and an experimental phase","yes","NAP_GER_AA_4blocks_noglides.osexp","/Users/aviadalbert/Documents/Academisch/UoC/Dissertation/Experiment/OpenSesame/NAP-FC/NAP_GER_AA_4blocks_noglides","yes","no","sans","no","20","no","black","no","Weiter","yes","768","legacy","52","9","0","/Users/aviadalbert/Documents/Academisch/UoC/Dissertation/Experiment/OpenSesame/NAP-FC/NAP_GER_AA_4blocks_noglides/subject-42.csv","xpyriment","Jazzy James","3.1.9","yes","yes","59a800d99ad5a1025d81bb03","59a801616c613b0251691de0","no","no","0","f","f","space","NA","return","return","f","983","1571","28036","NA","29465","13831","983","2","legacy","1024","1","44100","-16","experiment","smal","2","1","0","0","1","Englisch, Franzoesich, russish","42","","even","8780596","8752017","NA","NA","8782168","8780592","NA","7895418","8780109","7895419","7895419","8660738","8690208","8939027","8937524","8940012","8722391","8704348","8752016","NA","8555790","8648090","8750365","8704109","8780596","8704352","NA","8939027","8939027","NA","NA","8937520","NAP perception","38","63540","53","yes","1024"
"72.2222222222","yes","72.2222222222","1192.24074074","1192.24074074","white","no","xpyriment","Ich habe die obigen Informationen gelesen und verstanden.","legacy","legacy","0","uniform","1","0","0","undefined","undefined","1","j","2","1","NA","0","1","0","0","0","0","0","0","0","0","63","63","63","0","0","0","NA","0","0","2","0","0","0","2","63","63","63","63","63","Fri Nov  3 12:34:08 2017","Forced-choice identification task with a practice and an experimental phase","yes","NAP_GER_AA_4blocks_noglides.osexp","/Users/aviadalbert/Documents/Academisch/UoC/Dissertation/Experiment/OpenSesame/NAP-FC/NAP_GER_AA_4blocks_noglides","yes","no","sans","no","20","no","black","no","Weiter","yes","768","legacy","53","9","0","/Users/aviadalbert/Documents/Academisch/UoC/Dissertation/Experiment/OpenSesame/NAP-FC/NAP_GER_AA_4blocks_noglides/subject-42.csv","xpyriment","Jazzy James","3.1.9","yes","yes","59a800d99ad5a1025d81bb03","59a801616c613b0251691de0","no","no","0","j","f","space","NA","return","return","j","841","1571","28036","NA","29465","13831","841","2","legacy","1024","1","44100","-16","experiment","eʃfal","2","1","0","0","1","Englisch, Franzoesich, russish","42","","even","8780596","8752017","NA","NA","8782168","8780592","NA","7895418","8780109","7895419","7895419","8660738","8690208","8941793","8940288","8942635","8722391","8704348","8752016","NA","8555790","8648090","8750365","8704109","8780596","8704352","NA","8941792","8941792","NA","NA","8940284","NAP perception","39","64381","54","yes","1024"
