"acc","accept_status","accuracy","average_response_time","avg_rt","background","bidi","canvas_backend","checkbox_status","clock_backend","color_backend","compensation","coordinates","correct","correct_block_activation","correct_block_exit","correct_instructions_1","correct_instructions_2","correct_keyboard_response","correct_response","count_block_activation","count_block_exit","count_block_info_QA","count_cont_e_block_message","count_e_block_loop","count_e_block_sequence","count_end_of_experiment","count_experiment","count_experimental_loop","count_form_consent","count_info_forms","count_instructions_1","count_instructions_2","count_keyboard_response","count_listen_message","count_logger","count_p_block_loop","count_p_block_sequence","count_p_feedback","count_pause_feedback","count_personal_details_form_1","count_personal_details_form_2","count_post_loop_blank","count_practice_loop","count_pre_e_block_message","count_pre_p_block_message","count_reset_feedback","count_stimulus_image","count_stimulus_sound","count_timeout_message","count_timeout_sound","count_trial_sequence","datetime","description","disable_garbage_collection","experiment_file","experiment_path","expyriment_opengl","font_bold","font_family","font_italic","font_size","font_underline","foreground","form_clicks","form_response","fullscreen","height","keyboard_backend","live_row","live_row_p_block_loop","live_row_practice_loop","logfile","mouse_backend","opensesame_codename","opensesame_version","osf_always_upload_data","osf_always_upload_experiment","osf_datanode_id","osf_id","practice","pygame_doublebuf","repeat_cycle","response","response_block_activation","response_block_exit","response_block_info_QA","response_instructions_1","response_instructions_2","response_keyboard_response","response_time","response_time_block_activation","response_time_block_exit","response_time_block_info_QA","response_time_instructions_1","response_time_instructions_2","response_time_keyboard_response","round_decimals","sampler_backend","sound_buf_size","sound_channels","sound_freq","sound_sample_size","start","stimulus","subject_age","subject_education","subject_gender","subject_german_native","subject_handedness","subject_language_other","subject_nr","subject_other_native_lang","subject_parity","time_block_activation","time_block_exit","time_block_info_QA","time_cont_e_block_message","time_e_block_loop","time_e_block_sequence","time_end_of_experiment","time_experiment","time_experimental_loop","time_form_consent","time_info_forms","time_instructions_1","time_instructions_2","time_keyboard_response","time_listen_message","time_logger","time_p_block_loop","time_p_block_sequence","time_p_feedback","time_pause_feedback","time_personal_details_form_1","time_personal_details_form_2","time_post_loop_blank","time_practice_loop","time_pre_e_block_message","time_pre_p_block_message","time_reset_feedback","time_stimulus_image","time_stimulus_sound","time_timeout_message","time_timeout_sound","time_trial_sequence","title","total_correct","total_response_time","total_responses","uniform_coordinates","width"
"100","yes","100","1156","1156","white","no","xpyriment","Ich habe die obigen Informationen gelesen und verstanden.","legacy","legacy","0","uniform","1","0","NA","undefined","undefined","1","f","0","0","NA","NA","NA","NA","NA","0","0","0","0","0","0","0","0","0","0","0","NA","NA","0","0","0","0","NA","0","0","0","0","0","0","0","Wed Oct 25 11:20:05 2017","Forced-choice identification task with a practice and an experimental phase","yes","NAP_GER_AA_4blocks_noglides.osexp","/Users/aviadalbert/Documents/Academisch/UoC/Dissertation/Experiment/OpenSesame/NAP-FC/NAP_GER_AA_4blocks_noglides","yes","no","sans","no","20","no","black","no","Weiter","yes","768","legacy","0","0","0","/Users/aviadalbert/Documents/Academisch/UoC/Dissertation/Experiment/OpenSesame/NAP-FC/NAP_GER_AA_4blocks_noglides/subject-15.csv","xpyriment","Jazzy James","3.1.9","yes","yes","59a800d99ad5a1025d81bb03","59a801616c613b0251691de0","yes","no","0","f","f","NA","NA","space","space","f","1156","10737","NA","NA","17367","6297","1156","2","legacy","1024","1","44100","-16","experiment","flal","2","0","1","0","1","Englisch, Franzoesisch, Spanisch","15","","odd","6165744","NA","NA","NA","NA","NA","NA","5339517","NA","5339517","5339517","6141785","6159157","6178195","6176691","6179352","6176482","6165740","NA","NA","6082834","6132837","NA","6165524","NA","6165744","NA","6178194","6178194","NA","NA","6176687","NAP perception","1","1156","1","yes","1024"
"100","yes","100","1036.5","1036.5","white","no","xpyriment","Ich habe die obigen Informationen gelesen und verstanden.","legacy","legacy","0","uniform","1","0","NA","undefined","undefined","1","j","0","0","NA","NA","NA","NA","NA","0","0","0","0","0","0","1","1","1","0","0","NA","NA","0","0","0","0","NA","0","0","1","1","1","1","1","Wed Oct 25 11:20:05 2017","Forced-choice identification task with a practice and an experimental phase","yes","NAP_GER_AA_4blocks_noglides.osexp","/Users/aviadalbert/Documents/Academisch/UoC/Dissertation/Experiment/OpenSesame/NAP-FC/NAP_GER_AA_4blocks_noglides","yes","no","sans","no","20","no","black","no","Weiter","yes","768","legacy","1","1","0","/Users/aviadalbert/Documents/Academisch/UoC/Dissertation/Experiment/OpenSesame/NAP-FC/NAP_GER_AA_4blocks_noglides/subject-15.csv","xpyriment","Jazzy James","3.1.9","yes","yes","59a800d99ad5a1025d81bb03","59a801616c613b0251691de0","yes","no","0","j","f","NA","NA","space","space","j","917","10737","NA","NA","17367","6297","917","2","legacy","1024","1","44100","-16","experiment","lepal","2","0","1","0","1","Englisch, Franzoesisch, Spanisch","15","","odd","6165744","NA","NA","NA","NA","NA","NA","5339517","NA","5339517","5339517","6141785","6159157","6181127","6179623","6182045","6176482","6165740","NA","NA","6082834","6132837","NA","6165524","NA","6165744","NA","6181126","6181127","NA","NA","6179618","NAP perception","2","2073","2","yes","1024"
"100","yes","100","971","971","white","no","xpyriment","Ich habe die obigen Informationen gelesen und verstanden.","legacy","legacy","0","uniform","1","0","NA","undefined","undefined","1","j","0","0","NA","NA","NA","NA","NA","0","0","0","0","0","0","2","2","2","0","0","NA","NA","0","0","0","0","NA","0","0","2","2","2","2","2","Wed Oct 25 11:20:05 2017","Forced-choice identification task with a practice and an experimental phase","yes","NAP_GER_AA_4blocks_noglides.osexp","/Users/aviadalbert/Documents/Academisch/UoC/Dissertation/Experiment/OpenSesame/NAP-FC/NAP_GER_AA_4blocks_noglides","yes","no","sans","no","20","no","black","no","Weiter","yes","768","legacy","2","2","0","/Users/aviadalbert/Documents/Academisch/UoC/Dissertation/Experiment/OpenSesame/NAP-FC/NAP_GER_AA_4blocks_noglides/subject-15.csv","xpyriment","Jazzy James","3.1.9","yes","yes","59a800d99ad5a1025d81bb03","59a801616c613b0251691de0","yes","no","0","j","f","NA","NA","space","space","j","840","10737","NA","NA","17367","6297","840","2","legacy","1024","1","44100","-16","experiment","emtal","2","0","1","0","1","Englisch, Franzoesisch, Spanisch","15","","odd","6165744","NA","NA","NA","NA","NA","NA","5339517","NA","5339517","5339517","6141785","6159157","6183827","6182323","6184668","6176482","6165740","NA","NA","6082834","6132837","NA","6165524","NA","6165744","NA","6183826","6183826","NA","NA","6182319","NAP perception","3","2913","3","yes","1024"
"100","yes","100","974.5","974.5","white","no","xpyriment","Ich habe die obigen Informationen gelesen und verstanden.","legacy","legacy","0","uniform","1","0","NA","undefined","undefined","1","f","0","0","NA","NA","NA","NA","NA","0","0","0","0","0","0","3","3","3","0","0","NA","NA","0","0","0","0","NA","0","0","3","3","3","3","3","Wed Oct 25 11:20:05 2017","Forced-choice identification task with a practice and an experimental phase","yes","NAP_GER_AA_4blocks_noglides.osexp","/Users/aviadalbert/Documents/Academisch/UoC/Dissertation/Experiment/OpenSesame/NAP-FC/NAP_GER_AA_4blocks_noglides","yes","no","sans","no","20","no","black","no","Weiter","yes","768","legacy","3","3","0","/Users/aviadalbert/Documents/Academisch/UoC/Dissertation/Experiment/OpenSesame/NAP-FC/NAP_GER_AA_4blocks_noglides/subject-15.csv","xpyriment","Jazzy James","3.1.9","yes","yes","59a800d99ad5a1025d81bb03","59a801616c613b0251691de0","yes","no","0","f","f","NA","NA","space","space","f","985","10737","NA","NA","17367","6297","985","2","legacy","1024","1","44100","-16","experiment","ʃpal","2","0","1","0","1","Englisch, Franzoesisch, Spanisch","15","","odd","6165744","NA","NA","NA","NA","NA","NA","5339517","NA","5339517","5339517","6141785","6159157","6186472","6184966","6187458","6176482","6165740","NA","NA","6082834","6132837","NA","6165524","NA","6165744","NA","6186471","6186471","NA","NA","6184962","NAP perception","4","3898","4","yes","1024"
"100","yes","100","957.8","957.8","white","no","xpyriment","Ich habe die obigen Informationen gelesen und verstanden.","legacy","legacy","0","uniform","1","0","NA","undefined","undefined","1","j","0","0","NA","NA","NA","NA","NA","0","0","0","0","0","0","4","4","4","0","0","NA","NA","0","0","0","0","NA","0","0","4","4","4","4","4","Wed Oct 25 11:20:05 2017","Forced-choice identification task with a practice and an experimental phase","yes","NAP_GER_AA_4blocks_noglides.osexp","/Users/aviadalbert/Documents/Academisch/UoC/Dissertation/Experiment/OpenSesame/NAP-FC/NAP_GER_AA_4blocks_noglides","yes","no","sans","no","20","no","black","no","Weiter","yes","768","legacy","4","4","0","/Users/aviadalbert/Documents/Academisch/UoC/Dissertation/Experiment/OpenSesame/NAP-FC/NAP_GER_AA_4blocks_noglides/subject-15.csv","xpyriment","Jazzy James","3.1.9","yes","yes","59a800d99ad5a1025d81bb03","59a801616c613b0251691de0","yes","no","0","j","f","NA","NA","space","space","j","891","10737","NA","NA","17367","6297","891","2","legacy","1024","1","44100","-16","experiment","nefal","2","0","1","0","1","Englisch, Franzoesisch, Spanisch","15","","odd","6165744","NA","NA","NA","NA","NA","NA","5339517","NA","5339517","5339517","6141785","6159157","6189237","6187733","6190129","6176482","6165740","NA","NA","6082834","6132837","NA","6165524","NA","6165744","NA","6189236","6189236","NA","NA","6187729","NAP perception","5","4789","5","yes","1024"
"100","yes","100","993.166666667","993.166666667","white","no","xpyriment","Ich habe die obigen Informationen gelesen und verstanden.","legacy","legacy","0","uniform","1","0","NA","undefined","undefined","1","f","0","0","NA","NA","NA","NA","NA","0","0","0","0","0","0","5","5","5","0","0","NA","NA","0","0","0","0","NA","0","0","5","5","5","5","5","Wed Oct 25 11:20:05 2017","Forced-choice identification task with a practice and an experimental phase","yes","NAP_GER_AA_4blocks_noglides.osexp","/Users/aviadalbert/Documents/Academisch/UoC/Dissertation/Experiment/OpenSesame/NAP-FC/NAP_GER_AA_4blocks_noglides","yes","no","sans","no","20","no","black","no","Weiter","yes","768","legacy","5","5","0","/Users/aviadalbert/Documents/Academisch/UoC/Dissertation/Experiment/OpenSesame/NAP-FC/NAP_GER_AA_4blocks_noglides/subject-15.csv","xpyriment","Jazzy James","3.1.9","yes","yes","59a800d99ad5a1025d81bb03","59a801616c613b0251691de0","yes","no","0","f","f","NA","NA","space","space","f","1170","10737","NA","NA","17367","6297","1170","2","legacy","1024","1","44100","-16","experiment","sfal","2","0","1","0","1","Englisch, Franzoesisch, Spanisch","15","","odd","6165744","NA","NA","NA","NA","NA","NA","5339517","NA","5339517","5339517","6141785","6159157","6191903","6190398","6193075","6176482","6165740","NA","NA","6082834","6132837","NA","6165524","NA","6165744","NA","6191903","6191903","NA","NA","6190394","NAP perception","6","5959","6","yes","1024"
"100","yes","100","998.285714286","998.285714286","white","no","xpyriment","Ich habe die obigen Informationen gelesen und verstanden.","legacy","legacy","0","uniform","1","0","NA","undefined","undefined","1","f","0","0","NA","NA","NA","NA","NA","0","0","0","0","0","0","6","6","6","0","0","NA","NA","0","0","0","0","NA","0","0","6","6","6","6","6","Wed Oct 25 11:20:05 2017","Forced-choice identification task with a practice and an experimental phase","yes","NAP_GER_AA_4blocks_noglides.osexp","/Users/aviadalbert/Documents/Academisch/UoC/Dissertation/Experiment/OpenSesame/NAP-FC/NAP_GER_AA_4blocks_noglides","yes","no","sans","no","20","no","black","no","Weiter","yes","768","legacy","6","6","0","/Users/aviadalbert/Documents/Academisch/UoC/Dissertation/Experiment/OpenSesame/NAP-FC/NAP_GER_AA_4blocks_noglides/subject-15.csv","xpyriment","Jazzy James","3.1.9","yes","yes","59a800d99ad5a1025d81bb03","59a801616c613b0251691de0","yes","no","0","f","f","NA","NA","space","space","f","1029","10737","NA","NA","17367","6297","1029","2","legacy","1024","1","44100","-16","experiment","zmal","2","0","1","0","1","Englisch, Franzoesisch, Spanisch","15","","odd","6165744","NA","NA","NA","NA","NA","NA","5339517","NA","5339517","5339517","6141785","6159157","6194857","6193351","6195887","6176482","6165740","NA","NA","6082834","6132837","NA","6165524","NA","6165744","NA","6194856","6194856","NA","NA","6193347","NAP perception","7","6988","7","yes","1024"
"100","yes","100","967.875","967.875","white","no","xpyriment","Ich habe die obigen Informationen gelesen und verstanden.","legacy","legacy","0","uniform","1","0","NA","undefined","undefined","1","j","0","0","NA","NA","NA","NA","NA","0","0","0","0","0","0","7","7","7","0","0","NA","NA","0","0","0","0","NA","0","0","7","7","7","7","7","Wed Oct 25 11:20:05 2017","Forced-choice identification task with a practice and an experimental phase","yes","NAP_GER_AA_4blocks_noglides.osexp","/Users/aviadalbert/Documents/Academisch/UoC/Dissertation/Experiment/OpenSesame/NAP-FC/NAP_GER_AA_4blocks_noglides","yes","no","sans","no","20","no","black","no","Weiter","yes","768","legacy","7","7","0","/Users/aviadalbert/Documents/Academisch/UoC/Dissertation/Experiment/OpenSesame/NAP-FC/NAP_GER_AA_4blocks_noglides/subject-15.csv","xpyriment","Jazzy James","3.1.9","yes","yes","59a800d99ad5a1025d81bb03","59a801616c613b0251691de0","yes","no","0","j","f","NA","NA","space","space","j","755","10737","NA","NA","17367","6297","755","2","legacy","1024","1","44100","-16","experiment","mesal","2","0","1","0","1","Englisch, Franzoesisch, Spanisch","15","","odd","6165744","NA","NA","NA","NA","NA","NA","5339517","NA","5339517","5339517","6141785","6159157","6197662","6196154","6198419","6176482","6165740","NA","NA","6082834","6132837","NA","6165524","NA","6165744","NA","6197661","6197661","NA","NA","6196150","NAP perception","8","7743","8","yes","1024"
"100","yes","100","944.888888889","944.888888889","white","no","xpyriment","Ich habe die obigen Informationen gelesen und verstanden.","legacy","legacy","0","uniform","1","0","NA","undefined","undefined","1","j","0","0","NA","NA","NA","NA","NA","0","0","0","0","0","0","8","8","8","0","0","NA","NA","0","0","0","0","NA","0","0","8","8","8","8","8","Wed Oct 25 11:20:05 2017","Forced-choice identification task with a practice and an experimental phase","yes","NAP_GER_AA_4blocks_noglides.osexp","/Users/aviadalbert/Documents/Academisch/UoC/Dissertation/Experiment/OpenSesame/NAP-FC/NAP_GER_AA_4blocks_noglides","yes","no","sans","no","20","no","black","no","Weiter","yes","768","legacy","8","8","0","/Users/aviadalbert/Documents/Academisch/UoC/Dissertation/Experiment/OpenSesame/NAP-FC/NAP_GER_AA_4blocks_noglides/subject-15.csv","xpyriment","Jazzy James","3.1.9","yes","yes","59a800d99ad5a1025d81bb03","59a801616c613b0251691de0","yes","no","0","j","f","NA","NA","space","space","j","761","10737","NA","NA","17367","6297","761","2","legacy","1024","1","44100","-16","experiment","enval","2","0","1","0","1","Englisch, Franzoesisch, Spanisch","15","","odd","6165744","NA","NA","NA","NA","NA","NA","5339517","NA","5339517","5339517","6141785","6159157","6200210","6198706","6200972","6176482","6165740","NA","NA","6082834","6132837","NA","6165524","NA","6165744","NA","6200209","6200209","NA","NA","6198702","NAP perception","9","8504","9","yes","1024"
"100","yes","100","946.8","946.8","white","no","xpyriment","Ich habe die obigen Informationen gelesen und verstanden.","legacy","legacy","0","uniform","1","0","NA","undefined","undefined","1","f","0","0","NA","NA","NA","NA","NA","0","0","0","0","0","0","9","9","9","0","0","NA","NA","0","0","0","0","NA","0","0","9","9","9","9","9","Wed Oct 25 11:20:05 2017","Forced-choice identification task with a practice and an experimental phase","yes","NAP_GER_AA_4blocks_noglides.osexp","/Users/aviadalbert/Documents/Academisch/UoC/Dissertation/Experiment/OpenSesame/NAP-FC/NAP_GER_AA_4blocks_noglides","yes","no","sans","no","20","no","black","no","Weiter","yes","768","legacy","9","9","0","/Users/aviadalbert/Documents/Academisch/UoC/Dissertation/Experiment/OpenSesame/NAP-FC/NAP_GER_AA_4blocks_noglides/subject-15.csv","xpyriment","Jazzy James","3.1.9","yes","yes","59a800d99ad5a1025d81bb03","59a801616c613b0251691de0","yes","no","0","f","f","NA","NA","space","space","f","964","10737","NA","NA","17367","6297","964","2","legacy","1024","1","44100","-16","experiment","vlal","2","0","1","0","1","Englisch, Franzoesisch, Spanisch","15","","odd","6165744","NA","NA","NA","NA","NA","NA","5339517","NA","5339517","5339517","6141785","6159157","6202763","6201255","6203728","6176482","6165740","NA","NA","6082834","6132837","NA","6165524","NA","6165744","NA","6202762","6202763","NA","NA","6201250","NAP perception","10","9468","10","yes","1024"
"100","yes","100","908","908","white","no","xpyriment","Ich habe die obigen Informationen gelesen und verstanden.","legacy","legacy","0","uniform","1","0","0","undefined","undefined","1","j","2","1","NA","0","1","0","0","0","0","0","0","0","0","10","10","10","0","0","0","NA","0","0","2","0","0","0","2","10","10","10","10","10","Wed Oct 25 11:20:05 2017","Forced-choice identification task with a practice and an experimental phase","yes","NAP_GER_AA_4blocks_noglides.osexp","/Users/aviadalbert/Documents/Academisch/UoC/Dissertation/Experiment/OpenSesame/NAP-FC/NAP_GER_AA_4blocks_noglides","yes","no","sans","no","20","no","black","no","Weiter","yes","768","legacy","0","9","0","/Users/aviadalbert/Documents/Academisch/UoC/Dissertation/Experiment/OpenSesame/NAP-FC/NAP_GER_AA_4blocks_noglides/subject-15.csv","xpyriment","Jazzy James","3.1.9","yes","yes","59a800d99ad5a1025d81bb03","59a801616c613b0251691de0","no","no","0","j","f","space","NA","space","space","j","908","4020","17755","NA","17367","6297","908","2","legacy","1024","1","44100","-16","experiment","elpal","2","0","1","0","1","Englisch, Franzoesisch, Spanisch","15","","odd","6223734","6205449","NA","NA","6227755","6223730","NA","5339517","6223259","5339517","5339517","6141785","6159157","6229474","6227968","6230383","6176482","6165740","6205448","NA","6082834","6132837","6203793","6165524","6223734","6165744","NA","6229473","6229473","NA","NA","6227964","NAP perception","1","908","1","yes","1024"
"100","yes","100","872.5","872.5","white","no","xpyriment","Ich habe die obigen Informationen gelesen und verstanden.","legacy","legacy","0","uniform","1","0","0","undefined","undefined","1","j","2","1","NA","0","1","0","0","0","0","0","0","0","0","11","11","11","0","0","0","NA","0","0","2","0","0","0","2","11","11","11","11","11","Wed Oct 25 11:20:05 2017","Forced-choice identification task with a practice and an experimental phase","yes","NAP_GER_AA_4blocks_noglides.osexp","/Users/aviadalbert/Documents/Academisch/UoC/Dissertation/Experiment/OpenSesame/NAP-FC/NAP_GER_AA_4blocks_noglides","yes","no","sans","no","20","no","black","no","Weiter","yes","768","legacy","1","9","0","/Users/aviadalbert/Documents/Academisch/UoC/Dissertation/Experiment/OpenSesame/NAP-FC/NAP_GER_AA_4blocks_noglides/subject-15.csv","xpyriment","Jazzy James","3.1.9","yes","yes","59a800d99ad5a1025d81bb03","59a801616c613b0251691de0","no","no","0","j","f","space","NA","space","space","j","837","4020","17755","NA","17367","6297","837","2","legacy","1024","1","44100","-16","experiment","emtal","2","0","1","0","1","Englisch, Franzoesisch, Spanisch","15","","odd","6223734","6205449","NA","NA","6227755","6223730","NA","5339517","6223259","5339517","5339517","6141785","6159157","6232163","6230660","6233000","6176482","6165740","6205448","NA","6082834","6132837","6203793","6165524","6223734","6165744","NA","6232163","6232163","NA","NA","6230655","NAP perception","2","1745","2","yes","1024"
"100","yes","100","902","902","white","no","xpyriment","Ich habe die obigen Informationen gelesen und verstanden.","legacy","legacy","0","uniform","1","0","0","undefined","undefined","1","j","2","1","NA","0","1","0","0","0","0","0","0","0","0","12","12","12","0","0","0","NA","0","0","2","0","0","0","2","12","12","12","12","12","Wed Oct 25 11:20:05 2017","Forced-choice identification task with a practice and an experimental phase","yes","NAP_GER_AA_4blocks_noglides.osexp","/Users/aviadalbert/Documents/Academisch/UoC/Dissertation/Experiment/OpenSesame/NAP-FC/NAP_GER_AA_4blocks_noglides","yes","no","sans","no","20","no","black","no","Weiter","yes","768","legacy","2","9","0","/Users/aviadalbert/Documents/Academisch/UoC/Dissertation/Experiment/OpenSesame/NAP-FC/NAP_GER_AA_4blocks_noglides/subject-15.csv","xpyriment","Jazzy James","3.1.9","yes","yes","59a800d99ad5a1025d81bb03","59a801616c613b0251691de0","no","no","0","j","f","space","NA","space","space","j","961","4020","17755","NA","17367","6297","961","2","legacy","1024","1","44100","-16","experiment","fesal","2","0","1","0","1","Englisch, Franzoesisch, Spanisch","15","","odd","6223734","6205449","NA","NA","6227755","6223730","NA","5339517","6223259","5339517","5339517","6141785","6159157","6234779","6233275","6235742","6176482","6165740","6205448","NA","6082834","6132837","6203793","6165524","6223734","6165744","NA","6234779","6234779","NA","NA","6233271","NAP perception","3","2706","3","yes","1024"
"100","yes","100","858.5","858.5","white","no","xpyriment","Ich habe die obigen Informationen gelesen und verstanden.","legacy","legacy","0","uniform","1","0","0","undefined","undefined","1","j","2","1","NA","0","1","0","0","0","0","0","0","0","0","13","13","13","0","0","0","NA","0","0","2","0","0","0","2","13","13","13","13","13","Wed Oct 25 11:20:05 2017","Forced-choice identification task with a practice and an experimental phase","yes","NAP_GER_AA_4blocks_noglides.osexp","/Users/aviadalbert/Documents/Academisch/UoC/Dissertation/Experiment/OpenSesame/NAP-FC/NAP_GER_AA_4blocks_noglides","yes","no","sans","no","20","no","black","no","Weiter","yes","768","legacy","3","9","0","/Users/aviadalbert/Documents/Academisch/UoC/Dissertation/Experiment/OpenSesame/NAP-FC/NAP_GER_AA_4blocks_noglides/subject-15.csv","xpyriment","Jazzy James","3.1.9","yes","yes","59a800d99ad5a1025d81bb03","59a801616c613b0251691de0","no","no","0","j","f","space","NA","space","space","j","728","4020","17755","NA","17367","6297","728","2","legacy","1024","1","44100","-16","experiment","elval","2","0","1","0","1","Englisch, Franzoesisch, Spanisch","15","","odd","6223734","6205449","NA","NA","6227755","6223730","NA","5339517","6223259","5339517","5339517","6141785","6159157","6237528","6236021","6238257","6176482","6165740","6205448","NA","6082834","6132837","6203793","6165524","6223734","6165744","NA","6237527","6237527","NA","NA","6236017","NAP perception","4","3434","4","yes","1024"
"100","yes","100","835.4","835.4","white","no","xpyriment","Ich habe die obigen Informationen gelesen und verstanden.","legacy","legacy","0","uniform","1","0","0","undefined","undefined","1","f","2","1","NA","0","1","0","0","0","0","0","0","0","0","14","14","14","0","0","0","NA","0","0","2","0","0","0","2","14","14","14","14","14","Wed Oct 25 11:20:05 2017","Forced-choice identification task with a practice and an experimental phase","yes","NAP_GER_AA_4blocks_noglides.osexp","/Users/aviadalbert/Documents/Academisch/UoC/Dissertation/Experiment/OpenSesame/NAP-FC/NAP_GER_AA_4blocks_noglides","yes","no","sans","no","20","no","black","no","Weiter","yes","768","legacy","4","9","0","/Users/aviadalbert/Documents/Academisch/UoC/Dissertation/Experiment/OpenSesame/NAP-FC/NAP_GER_AA_4blocks_noglides/subject-15.csv","xpyriment","Jazzy James","3.1.9","yes","yes","59a800d99ad5a1025d81bb03","59a801616c613b0251691de0","no","no","0","f","f","space","NA","space","space","f","743","4020","17755","NA","17367","6297","743","2","legacy","1024","1","44100","-16","experiment","ʃpal","2","0","1","0","1","Englisch, Franzoesisch, Spanisch","15","","odd","6223734","6205449","NA","NA","6227755","6223730","NA","5339517","6223259","5339517","5339517","6141785","6159157","6240046","6238542","6240791","6176482","6165740","6205448","NA","6082834","6132837","6203793","6165524","6223734","6165744","NA","6240045","6240045","NA","NA","6238538","NAP perception","5","4177","5","yes","1024"
"100","yes","100","828.666666667","828.666666667","white","no","xpyriment","Ich habe die obigen Informationen gelesen und verstanden.","legacy","legacy","0","uniform","1","0","0","undefined","undefined","1","j","2","1","NA","0","1","0","0","0","0","0","0","0","0","15","15","15","0","0","0","NA","0","0","2","0","0","0","2","15","15","15","15","15","Wed Oct 25 11:20:05 2017","Forced-choice identification task with a practice and an experimental phase","yes","NAP_GER_AA_4blocks_noglides.osexp","/Users/aviadalbert/Documents/Academisch/UoC/Dissertation/Experiment/OpenSesame/NAP-FC/NAP_GER_AA_4blocks_noglides","yes","no","sans","no","20","no","black","no","Weiter","yes","768","legacy","5","9","0","/Users/aviadalbert/Documents/Academisch/UoC/Dissertation/Experiment/OpenSesame/NAP-FC/NAP_GER_AA_4blocks_noglides/subject-15.csv","xpyriment","Jazzy James","3.1.9","yes","yes","59a800d99ad5a1025d81bb03","59a801616c613b0251691de0","no","no","0","j","f","space","NA","space","space","j","795","4020","17755","NA","17367","6297","795","2","legacy","1024","1","44100","-16","experiment","lepal","2","0","1","0","1","Englisch, Franzoesisch, Spanisch","15","","odd","6223734","6205449","NA","NA","6227755","6223730","NA","5339517","6223259","5339517","5339517","6141785","6159157","6242571","6241064","6243368","6176482","6165740","6205448","NA","6082834","6132837","6203793","6165524","6223734","6165744","NA","6242570","6242571","NA","NA","6241059","NAP perception","6","4972","6","yes","1024"
"100","yes","100","835","835","white","no","xpyriment","Ich habe die obigen Informationen gelesen und verstanden.","legacy","legacy","0","uniform","1","0","0","undefined","undefined","1","f","2","1","NA","0","1","0","0","0","0","0","0","0","0","16","16","16","0","0","0","NA","0","0","2","0","0","0","2","16","16","16","16","16","Wed Oct 25 11:20:05 2017","Forced-choice identification task with a practice and an experimental phase","yes","NAP_GER_AA_4blocks_noglides.osexp","/Users/aviadalbert/Documents/Academisch/UoC/Dissertation/Experiment/OpenSesame/NAP-FC/NAP_GER_AA_4blocks_noglides","yes","no","sans","no","20","no","black","no","Weiter","yes","768","legacy","6","9","0","/Users/aviadalbert/Documents/Academisch/UoC/Dissertation/Experiment/OpenSesame/NAP-FC/NAP_GER_AA_4blocks_noglides/subject-15.csv","xpyriment","Jazzy James","3.1.9","yes","yes","59a800d99ad5a1025d81bb03","59a801616c613b0251691de0","no","no","0","f","f","space","NA","space","space","f","873","4020","17755","NA","17367","6297","873","2","legacy","1024","1","44100","-16","experiment","spal","2","0","1","0","1","Englisch, Franzoesisch, Spanisch","15","","odd","6223734","6205449","NA","NA","6227755","6223730","NA","5339517","6223259","5339517","5339517","6141785","6159157","6245158","6243653","6246033","6176482","6165740","6205448","NA","6082834","6132837","6203793","6165524","6223734","6165744","NA","6245158","6245158","NA","NA","6243648","NAP perception","7","5845","7","yes","1024"
"100","yes","100","818.375","818.375","white","no","xpyriment","Ich habe die obigen Informationen gelesen und verstanden.","legacy","legacy","0","uniform","1","0","0","undefined","undefined","1","j","2","1","NA","0","1","0","0","0","0","0","0","0","0","17","17","17","0","0","0","NA","0","0","2","0","0","0","2","17","17","17","17","17","Wed Oct 25 11:20:05 2017","Forced-choice identification task with a practice and an experimental phase","yes","NAP_GER_AA_4blocks_noglides.osexp","/Users/aviadalbert/Documents/Academisch/UoC/Dissertation/Experiment/OpenSesame/NAP-FC/NAP_GER_AA_4blocks_noglides","yes","no","sans","no","20","no","black","no","Weiter","yes","768","legacy","7","9","0","/Users/aviadalbert/Documents/Academisch/UoC/Dissertation/Experiment/OpenSesame/NAP-FC/NAP_GER_AA_4blocks_noglides/subject-15.csv","xpyriment","Jazzy James","3.1.9","yes","yes","59a800d99ad5a1025d81bb03","59a801616c613b0251691de0","no","no","0","j","f","space","NA","space","space","j","702","4020","17755","NA","17367","6297","702","2","legacy","1024","1","44100","-16","experiment","nepal","2","0","1","0","1","Englisch, Franzoesisch, Spanisch","15","","odd","6223734","6205449","NA","NA","6227755","6223730","NA","5339517","6223259","5339517","5339517","6141785","6159157","6247819","6246314","6248523","6176482","6165740","6205448","NA","6082834","6132837","6203793","6165524","6223734","6165744","NA","6247818","6247818","NA","NA","6246310","NAP perception","8","6547","8","yes","1024"
"100","yes","100","828","828","white","no","xpyriment","Ich habe die obigen Informationen gelesen und verstanden.","legacy","legacy","0","uniform","1","0","0","undefined","undefined","1","f","2","1","NA","0","1","0","0","0","0","0","0","0","0","18","18","18","0","0","0","NA","0","0","2","0","0","0","2","18","18","18","18","18","Wed Oct 25 11:20:05 2017","Forced-choice identification task with a practice and an experimental phase","yes","NAP_GER_AA_4blocks_noglides.osexp","/Users/aviadalbert/Documents/Academisch/UoC/Dissertation/Experiment/OpenSesame/NAP-FC/NAP_GER_AA_4blocks_noglides","yes","no","sans","no","20","no","black","no","Weiter","yes","768","legacy","8","9","0","/Users/aviadalbert/Documents/Academisch/UoC/Dissertation/Experiment/OpenSesame/NAP-FC/NAP_GER_AA_4blocks_noglides/subject-15.csv","xpyriment","Jazzy James","3.1.9","yes","yes","59a800d99ad5a1025d81bb03","59a801616c613b0251691de0","no","no","0","f","f","space","NA","space","space","f","905","4020","17755","NA","17367","6297","905","2","legacy","1024","1","44100","-16","experiment","zval","2","0","1","0","1","Englisch, Franzoesisch, Spanisch","15","","odd","6223734","6205449","NA","NA","6227755","6223730","NA","5339517","6223259","5339517","5339517","6141785","6159157","6250303","6248799","6251209","6176482","6165740","6205448","NA","6082834","6132837","6203793","6165524","6223734","6165744","NA","6250302","6250302","NA","NA","6248795","NAP perception","9","7452","9","yes","1024"
"100","yes","100","819.6","819.6","white","no","xpyriment","Ich habe die obigen Informationen gelesen und verstanden.","legacy","legacy","0","uniform","1","0","0","undefined","undefined","1","f","2","1","NA","0","1","0","0","0","0","0","0","0","0","19","19","19","0","0","0","NA","0","0","2","0","0","0","2","19","19","19","19","19","Wed Oct 25 11:20:05 2017","Forced-choice identification task with a practice and an experimental phase","yes","NAP_GER_AA_4blocks_noglides.osexp","/Users/aviadalbert/Documents/Academisch/UoC/Dissertation/Experiment/OpenSesame/NAP-FC/NAP_GER_AA_4blocks_noglides","yes","no","sans","no","20","no","black","no","Weiter","yes","768","legacy","9","9","0","/Users/aviadalbert/Documents/Academisch/UoC/Dissertation/Experiment/OpenSesame/NAP-FC/NAP_GER_AA_4blocks_noglides/subject-15.csv","xpyriment","Jazzy James","3.1.9","yes","yes","59a800d99ad5a1025d81bb03","59a801616c613b0251691de0","no","no","0","f","f","space","NA","space","space","f","744","4020","17755","NA","17367","6297","744","2","legacy","1024","1","44100","-16","experiment","zval","2","0","1","0","1","Englisch, Franzoesisch, Spanisch","15","","odd","6223734","6205449","NA","NA","6227755","6223730","NA","5339517","6223259","5339517","5339517","6141785","6159157","6252985","6251478","6253731","6176482","6165740","6205448","NA","6082834","6132837","6203793","6165524","6223734","6165744","NA","6252984","6252984","NA","NA","6251474","NAP perception","10","8196","10","yes","1024"
"100","yes","100","805.545454545","805.545454545","white","no","xpyriment","Ich habe die obigen Informationen gelesen und verstanden.","legacy","legacy","0","uniform","1","0","0","undefined","undefined","1","j","2","1","NA","0","1","0","0","0","0","0","0","0","0","20","20","20","0","0","0","NA","0","0","2","0","0","0","2","20","20","20","20","20","Wed Oct 25 11:20:05 2017","Forced-choice identification task with a practice and an experimental phase","yes","NAP_GER_AA_4blocks_noglides.osexp","/Users/aviadalbert/Documents/Academisch/UoC/Dissertation/Experiment/OpenSesame/NAP-FC/NAP_GER_AA_4blocks_noglides","yes","no","sans","no","20","no","black","no","Weiter","yes","768","legacy","10","9","0","/Users/aviadalbert/Documents/Academisch/UoC/Dissertation/Experiment/OpenSesame/NAP-FC/NAP_GER_AA_4blocks_noglides/subject-15.csv","xpyriment","Jazzy James","3.1.9","yes","yes","59a800d99ad5a1025d81bb03","59a801616c613b0251691de0","no","no","0","j","f","space","NA","space","space","j","665","4020","17755","NA","17367","6297","665","2","legacy","1024","1","44100","-16","experiment","enfal","2","0","1","0","1","Englisch, Franzoesisch, Spanisch","15","","odd","6223734","6205449","NA","NA","6227755","6223730","NA","5339517","6223259","5339517","5339517","6141785","6159157","6255507","6254003","6256174","6176482","6165740","6205448","NA","6082834","6132837","6203793","6165524","6223734","6165744","NA","6255506","6255506","NA","NA","6254000","NAP perception","11","8861","11","yes","1024"
"100","yes","100","841.333333333","841.333333333","white","no","xpyriment","Ich habe die obigen Informationen gelesen und verstanden.","legacy","legacy","0","uniform","1","0","0","undefined","undefined","1","j","2","1","NA","0","1","0","0","0","0","0","0","0","0","21","21","21","0","0","0","NA","0","0","2","0","0","0","2","21","21","21","21","21","Wed Oct 25 11:20:05 2017","Forced-choice identification task with a practice and an experimental phase","yes","NAP_GER_AA_4blocks_noglides.osexp","/Users/aviadalbert/Documents/Academisch/UoC/Dissertation/Experiment/OpenSesame/NAP-FC/NAP_GER_AA_4blocks_noglides","yes","no","sans","no","20","no","black","no","Weiter","yes","768","legacy","11","9","0","/Users/aviadalbert/Documents/Academisch/UoC/Dissertation/Experiment/OpenSesame/NAP-FC/NAP_GER_AA_4blocks_noglides/subject-15.csv","xpyriment","Jazzy James","3.1.9","yes","yes","59a800d99ad5a1025d81bb03","59a801616c613b0251691de0","no","no","0","j","f","space","NA","space","space","j","1235","4020","17755","NA","17367","6297","1235","2","legacy","1024","1","44100","-16","experiment","elmal","2","0","1","0","1","Englisch, Franzoesisch, Spanisch","15","","odd","6223734","6205449","NA","NA","6227755","6223730","NA","5339517","6223259","5339517","5339517","6141785","6159157","6257954","6256449","6259190","6176482","6165740","6205448","NA","6082834","6132837","6203793","6165524","6223734","6165744","NA","6257954","6257954","NA","NA","6256445","NAP perception","12","10096","12","yes","1024"
"100","yes","100","845.769230769","845.769230769","white","no","xpyriment","Ich habe die obigen Informationen gelesen und verstanden.","legacy","legacy","0","uniform","1","0","0","undefined","undefined","1","j","2","1","NA","0","1","0","0","0","0","0","0","0","0","22","22","22","0","0","0","NA","0","0","2","0","0","0","2","22","22","22","22","22","Wed Oct 25 11:20:05 2017","Forced-choice identification task with a practice and an experimental phase","yes","NAP_GER_AA_4blocks_noglides.osexp","/Users/aviadalbert/Documents/Academisch/UoC/Dissertation/Experiment/OpenSesame/NAP-FC/NAP_GER_AA_4blocks_noglides","yes","no","sans","no","20","no","black","no","Weiter","yes","768","legacy","12","9","0","/Users/aviadalbert/Documents/Academisch/UoC/Dissertation/Experiment/OpenSesame/NAP-FC/NAP_GER_AA_4blocks_noglides/subject-15.csv","xpyriment","Jazzy James","3.1.9","yes","yes","59a800d99ad5a1025d81bb03","59a801616c613b0251691de0","no","no","0","j","f","space","NA","space","space","j","899","4020","17755","NA","17367","6297","899","2","legacy","1024","1","44100","-16","experiment","lemal","2","0","1","0","1","Englisch, Franzoesisch, Spanisch","15","","odd","6223734","6205449","NA","NA","6227755","6223730","NA","5339517","6223259","5339517","5339517","6141785","6159157","6260997","6259490","6261898","6176482","6165740","6205448","NA","6082834","6132837","6203793","6165524","6223734","6165744","NA","6260996","6260997","NA","NA","6259485","NAP perception","13","10995","13","yes","1024"
"100","yes","100","863.071428571","863.071428571","white","no","xpyriment","Ich habe die obigen Informationen gelesen und verstanden.","legacy","legacy","0","uniform","1","0","0","undefined","undefined","1","j","2","1","NA","0","1","0","0","0","0","0","0","0","0","23","23","23","0","0","0","NA","0","0","2","0","0","0","2","23","23","23","23","23","Wed Oct 25 11:20:05 2017","Forced-choice identification task with a practice and an experimental phase","yes","NAP_GER_AA_4blocks_noglides.osexp","/Users/aviadalbert/Documents/Academisch/UoC/Dissertation/Experiment/OpenSesame/NAP-FC/NAP_GER_AA_4blocks_noglides","yes","no","sans","no","20","no","black","no","Weiter","yes","768","legacy","13","9","0","/Users/aviadalbert/Documents/Academisch/UoC/Dissertation/Experiment/OpenSesame/NAP-FC/NAP_GER_AA_4blocks_noglides/subject-15.csv","xpyriment","Jazzy James","3.1.9","yes","yes","59a800d99ad5a1025d81bb03","59a801616c613b0251691de0","no","no","0","j","f","space","NA","space","space","j","1088","4020","17755","NA","17367","6297","1088","2","legacy","1024","1","44100","-16","experiment","evnal","2","0","1","0","1","Englisch, Franzoesisch, Spanisch","15","","odd","6223734","6205449","NA","NA","6227755","6223730","NA","5339517","6223259","5339517","5339517","6141785","6159157","6263679","6262172","6264768","6176482","6165740","6205448","NA","6082834","6132837","6203793","6165524","6223734","6165744","NA","6263678","6263678","NA","NA","6262168","NAP perception","14","12083","14","yes","1024"
"100","yes","100","902.4","902.4","white","no","xpyriment","Ich habe die obigen Informationen gelesen und verstanden.","legacy","legacy","0","uniform","1","0","0","undefined","undefined","1","j","2","1","NA","0","1","0","0","0","0","0","0","0","0","24","24","24","0","0","0","NA","0","0","2","0","0","0","2","24","24","24","24","24","Wed Oct 25 11:20:05 2017","Forced-choice identification task with a practice and an experimental phase","yes","NAP_GER_AA_4blocks_noglides.osexp","/Users/aviadalbert/Documents/Academisch/UoC/Dissertation/Experiment/OpenSesame/NAP-FC/NAP_GER_AA_4blocks_noglides","yes","no","sans","no","20","no","black","no","Weiter","yes","768","legacy","14","9","0","/Users/aviadalbert/Documents/Academisch/UoC/Dissertation/Experiment/OpenSesame/NAP-FC/NAP_GER_AA_4blocks_noglides/subject-15.csv","xpyriment","Jazzy James","3.1.9","yes","yes","59a800d99ad5a1025d81bb03","59a801616c613b0251691de0","no","no","0","j","f","space","NA","space","space","j","1453","4020","17755","NA","17367","6297","1453","2","legacy","1024","1","44100","-16","experiment","elfal","2","0","1","0","1","Englisch, Franzoesisch, Spanisch","15","","odd","6223734","6205449","NA","NA","6227755","6223730","NA","5339517","6223259","5339517","5339517","6141785","6159157","6266549","6265044","6268004","6176482","6165740","6205448","NA","6082834","6132837","6203793","6165524","6223734","6165744","NA","6266549","6266549","NA","NA","6265040","NAP perception","15","13536","15","yes","1024"
"100","yes","100","891","891","white","no","xpyriment","Ich habe die obigen Informationen gelesen und verstanden.","legacy","legacy","0","uniform","1","0","0","undefined","undefined","1","j","2","1","NA","0","1","0","0","0","0","0","0","0","0","25","25","25","0","0","0","NA","0","0","2","0","0","0","2","25","25","25","25","25","Wed Oct 25 11:20:05 2017","Forced-choice identification task with a practice and an experimental phase","yes","NAP_GER_AA_4blocks_noglides.osexp","/Users/aviadalbert/Documents/Academisch/UoC/Dissertation/Experiment/OpenSesame/NAP-FC/NAP_GER_AA_4blocks_noglides","yes","no","sans","no","20","no","black","no","Weiter","yes","768","legacy","15","9","0","/Users/aviadalbert/Documents/Academisch/UoC/Dissertation/Experiment/OpenSesame/NAP-FC/NAP_GER_AA_4blocks_noglides/subject-15.csv","xpyriment","Jazzy James","3.1.9","yes","yes","59a800d99ad5a1025d81bb03","59a801616c613b0251691de0","no","no","0","j","f","space","NA","space","space","j","720","4020","17755","NA","17367","6297","720","2","legacy","1024","1","44100","-16","experiment","enval","2","0","1","0","1","Englisch, Franzoesisch, Spanisch","15","","odd","6223734","6205449","NA","NA","6227755","6223730","NA","5339517","6223259","5339517","5339517","6141785","6159157","6269789","6268284","6270510","6176482","6165740","6205448","NA","6082834","6132837","6203793","6165524","6223734","6165744","NA","6269789","6269789","NA","NA","6268280","NAP perception","16","14256","16","yes","1024"
"100","yes","100","885.352941176","885.352941176","white","no","xpyriment","Ich habe die obigen Informationen gelesen und verstanden.","legacy","legacy","0","uniform","1","0","0","undefined","undefined","1","f","2","1","NA","0","1","0","0","0","0","0","0","0","0","26","26","26","0","0","0","NA","0","0","2","0","0","0","2","26","26","26","26","26","Wed Oct 25 11:20:05 2017","Forced-choice identification task with a practice and an experimental phase","yes","NAP_GER_AA_4blocks_noglides.osexp","/Users/aviadalbert/Documents/Academisch/UoC/Dissertation/Experiment/OpenSesame/NAP-FC/NAP_GER_AA_4blocks_noglides","yes","no","sans","no","20","no","black","no","Weiter","yes","768","legacy","16","9","0","/Users/aviadalbert/Documents/Academisch/UoC/Dissertation/Experiment/OpenSesame/NAP-FC/NAP_GER_AA_4blocks_noglides/subject-15.csv","xpyriment","Jazzy James","3.1.9","yes","yes","59a800d99ad5a1025d81bb03","59a801616c613b0251691de0","no","no","0","f","f","space","NA","space","space","f","795","4020","17755","NA","17367","6297","795","2","legacy","1024","1","44100","-16","experiment","lkal","2","0","1","0","1","Englisch, Franzoesisch, Spanisch","15","","odd","6223734","6205449","NA","NA","6227755","6223730","NA","5339517","6223259","5339517","5339517","6141785","6159157","6272294","6270790","6273090","6176482","6165740","6205448","NA","6082834","6132837","6203793","6165524","6223734","6165744","NA","6272293","6272293","NA","NA","6270786","NAP perception","17","15051","17","yes","1024"
"100","yes","100","879.444444444","879.444444444","white","no","xpyriment","Ich habe die obigen Informationen gelesen und verstanden.","legacy","legacy","0","uniform","1","0","0","undefined","undefined","1","j","2","1","NA","0","1","0","0","0","0","0","0","0","0","27","27","27","0","0","0","NA","0","0","2","0","0","0","2","27","27","27","27","27","Wed Oct 25 11:20:05 2017","Forced-choice identification task with a practice and an experimental phase","yes","NAP_GER_AA_4blocks_noglides.osexp","/Users/aviadalbert/Documents/Academisch/UoC/Dissertation/Experiment/OpenSesame/NAP-FC/NAP_GER_AA_4blocks_noglides","yes","no","sans","no","20","no","black","no","Weiter","yes","768","legacy","17","9","0","/Users/aviadalbert/Documents/Academisch/UoC/Dissertation/Experiment/OpenSesame/NAP-FC/NAP_GER_AA_4blocks_noglides/subject-15.csv","xpyriment","Jazzy James","3.1.9","yes","yes","59a800d99ad5a1025d81bb03","59a801616c613b0251691de0","no","no","0","j","f","space","NA","space","space","j","779","4020","17755","NA","17367","6297","779","2","legacy","1024","1","44100","-16","experiment","mesal","2","0","1","0","1","Englisch, Franzoesisch, Spanisch","15","","odd","6223734","6205449","NA","NA","6227755","6223730","NA","5339517","6223259","5339517","5339517","6141785","6159157","6274877","6273373","6275658","6176482","6165740","6205448","NA","6082834","6132837","6203793","6165524","6223734","6165744","NA","6274876","6274877","NA","NA","6273369","NAP perception","18","15830","18","yes","1024"
"100","yes","100","871.315789474","871.315789474","white","no","xpyriment","Ich habe die obigen Informationen gelesen und verstanden.","legacy","legacy","0","uniform","1","0","0","undefined","undefined","1","j","2","1","NA","0","1","0","0","0","0","0","0","0","0","28","28","28","0","0","0","NA","0","0","2","0","0","0","2","28","28","28","28","28","Wed Oct 25 11:20:05 2017","Forced-choice identification task with a practice and an experimental phase","yes","NAP_GER_AA_4blocks_noglides.osexp","/Users/aviadalbert/Documents/Academisch/UoC/Dissertation/Experiment/OpenSesame/NAP-FC/NAP_GER_AA_4blocks_noglides","yes","no","sans","no","20","no","black","no","Weiter","yes","768","legacy","18","9","0","/Users/aviadalbert/Documents/Academisch/UoC/Dissertation/Experiment/OpenSesame/NAP-FC/NAP_GER_AA_4blocks_noglides/subject-15.csv","xpyriment","Jazzy James","3.1.9","yes","yes","59a800d99ad5a1025d81bb03","59a801616c613b0251691de0","no","no","0","j","f","space","NA","space","space","j","725","4020","17755","NA","17367","6297","725","2","legacy","1024","1","44100","-16","experiment","zemal","2","0","1","0","1","Englisch, Franzoesisch, Spanisch","15","","odd","6223734","6205449","NA","NA","6227755","6223730","NA","5339517","6223259","5339517","5339517","6141785","6159157","6277441","6275937","6278167","6176482","6165740","6205448","NA","6082834","6132837","6203793","6165524","6223734","6165744","NA","6277441","6277441","NA","NA","6275933","NAP perception","19","16555","19","yes","1024"
"100","yes","100","868.3","868.3","white","no","xpyriment","Ich habe die obigen Informationen gelesen und verstanden.","legacy","legacy","0","uniform","1","0","0","undefined","undefined","1","j","2","1","NA","0","1","0","0","0","0","0","0","0","0","29","29","29","0","0","0","NA","0","0","2","0","0","0","2","29","29","29","29","29","Wed Oct 25 11:20:05 2017","Forced-choice identification task with a practice and an experimental phase","yes","NAP_GER_AA_4blocks_noglides.osexp","/Users/aviadalbert/Documents/Academisch/UoC/Dissertation/Experiment/OpenSesame/NAP-FC/NAP_GER_AA_4blocks_noglides","yes","no","sans","no","20","no","black","no","Weiter","yes","768","legacy","19","9","0","/Users/aviadalbert/Documents/Academisch/UoC/Dissertation/Experiment/OpenSesame/NAP-FC/NAP_GER_AA_4blocks_noglides/subject-15.csv","xpyriment","Jazzy James","3.1.9","yes","yes","59a800d99ad5a1025d81bb03","59a801616c613b0251691de0","no","no","0","j","f","space","NA","space","space","j","811","4020","17755","NA","17367","6297","811","2","legacy","1024","1","44100","-16","experiment","sefal","2","0","1","0","1","Englisch, Franzoesisch, Spanisch","15","","odd","6223734","6205449","NA","NA","6227755","6223730","NA","5339517","6223259","5339517","5339517","6141785","6159157","6279948","6278442","6280760","6176482","6165740","6205448","NA","6082834","6132837","6203793","6165524","6223734","6165744","NA","6279947","6279947","NA","NA","6278437","NAP perception","20","17366","20","yes","1024"
"100","yes","100","861","861","white","no","xpyriment","Ich habe die obigen Informationen gelesen und verstanden.","legacy","legacy","0","uniform","1","0","0","undefined","undefined","1","j","2","1","NA","0","1","0","0","0","0","0","0","0","0","30","30","30","0","0","0","NA","0","0","2","0","0","0","2","30","30","30","30","30","Wed Oct 25 11:20:05 2017","Forced-choice identification task with a practice and an experimental phase","yes","NAP_GER_AA_4blocks_noglides.osexp","/Users/aviadalbert/Documents/Academisch/UoC/Dissertation/Experiment/OpenSesame/NAP-FC/NAP_GER_AA_4blocks_noglides","yes","no","sans","no","20","no","black","no","Weiter","yes","768","legacy","20","9","0","/Users/aviadalbert/Documents/Academisch/UoC/Dissertation/Experiment/OpenSesame/NAP-FC/NAP_GER_AA_4blocks_noglides/subject-15.csv","xpyriment","Jazzy James","3.1.9","yes","yes","59a800d99ad5a1025d81bb03","59a801616c613b0251691de0","no","no","0","j","f","space","NA","space","space","j","715","4020","17755","NA","17367","6297","715","2","legacy","1024","1","44100","-16","experiment","metal","2","0","1","0","1","Englisch, Franzoesisch, Spanisch","15","","odd","6223734","6205449","NA","NA","6227755","6223730","NA","5339517","6223259","5339517","5339517","6141785","6159157","6282534","6281029","6283250","6176482","6165740","6205448","NA","6082834","6132837","6203793","6165524","6223734","6165744","NA","6282533","6282534","NA","NA","6281025","NAP perception","21","18081","21","yes","1024"
"100","yes","100","859.545454545","859.545454545","white","no","xpyriment","Ich habe die obigen Informationen gelesen und verstanden.","legacy","legacy","0","uniform","1","0","0","undefined","undefined","1","f","2","1","NA","0","1","0","0","0","0","0","0","0","0","31","31","31","0","0","0","NA","0","0","2","0","0","0","2","31","31","31","31","31","Wed Oct 25 11:20:05 2017","Forced-choice identification task with a practice and an experimental phase","yes","NAP_GER_AA_4blocks_noglides.osexp","/Users/aviadalbert/Documents/Academisch/UoC/Dissertation/Experiment/OpenSesame/NAP-FC/NAP_GER_AA_4blocks_noglides","yes","no","sans","no","20","no","black","no","Weiter","yes","768","legacy","21","9","0","/Users/aviadalbert/Documents/Academisch/UoC/Dissertation/Experiment/OpenSesame/NAP-FC/NAP_GER_AA_4blocks_noglides/subject-15.csv","xpyriment","Jazzy James","3.1.9","yes","yes","59a800d99ad5a1025d81bb03","59a801616c613b0251691de0","no","no","0","f","f","space","NA","space","space","f","829","4020","17755","NA","17367","6297","829","2","legacy","1024","1","44100","-16","experiment","fnal","2","0","1","0","1","Englisch, Franzoesisch, Spanisch","15","","odd","6223734","6205449","NA","NA","6227755","6223730","NA","5339517","6223259","5339517","5339517","6141785","6159157","6285018","6283512","6285848","6176482","6165740","6205448","NA","6082834","6132837","6203793","6165524","6223734","6165744","NA","6285018","6285018","NA","NA","6283507","NAP perception","22","18910","22","yes","1024"
"100","yes","100","856.913043478","856.913043478","white","no","xpyriment","Ich habe die obigen Informationen gelesen und verstanden.","legacy","legacy","0","uniform","1","0","0","undefined","undefined","1","f","2","1","NA","0","1","0","0","0","0","0","0","0","0","32","32","32","0","0","0","NA","0","0","2","0","0","0","2","32","32","32","32","32","Wed Oct 25 11:20:05 2017","Forced-choice identification task with a practice and an experimental phase","yes","NAP_GER_AA_4blocks_noglides.osexp","/Users/aviadalbert/Documents/Academisch/UoC/Dissertation/Experiment/OpenSesame/NAP-FC/NAP_GER_AA_4blocks_noglides","yes","no","sans","no","20","no","black","no","Weiter","yes","768","legacy","22","9","0","/Users/aviadalbert/Documents/Academisch/UoC/Dissertation/Experiment/OpenSesame/NAP-FC/NAP_GER_AA_4blocks_noglides/subject-15.csv","xpyriment","Jazzy James","3.1.9","yes","yes","59a800d99ad5a1025d81bb03","59a801616c613b0251691de0","no","no","0","f","f","space","NA","space","space","f","799","4020","17755","NA","17367","6297","799","2","legacy","1024","1","44100","-16","experiment","ʃfal","2","0","1","0","1","Englisch, Franzoesisch, Spanisch","15","","odd","6223734","6205449","NA","NA","6227755","6223730","NA","5339517","6223259","5339517","5339517","6141785","6159157","6287620","6286112","6288420","6176482","6165740","6205448","NA","6082834","6132837","6203793","6165524","6223734","6165744","NA","6287620","6287620","NA","NA","6286108","NAP perception","23","19709","23","yes","1024"
"100","yes","100","865.291666667","865.291666667","white","no","xpyriment","Ich habe die obigen Informationen gelesen und verstanden.","legacy","legacy","0","uniform","1","0","0","undefined","undefined","1","f","2","1","NA","0","1","0","0","0","0","0","0","0","0","33","33","33","0","0","0","NA","0","0","2","0","0","0","2","33","33","33","33","33","Wed Oct 25 11:20:05 2017","Forced-choice identification task with a practice and an experimental phase","yes","NAP_GER_AA_4blocks_noglides.osexp","/Users/aviadalbert/Documents/Academisch/UoC/Dissertation/Experiment/OpenSesame/NAP-FC/NAP_GER_AA_4blocks_noglides","yes","no","sans","no","20","no","black","no","Weiter","yes","768","legacy","23","9","0","/Users/aviadalbert/Documents/Academisch/UoC/Dissertation/Experiment/OpenSesame/NAP-FC/NAP_GER_AA_4blocks_noglides/subject-15.csv","xpyriment","Jazzy James","3.1.9","yes","yes","59a800d99ad5a1025d81bb03","59a801616c613b0251691de0","no","no","0","f","f","space","NA","space","space","f","1058","4020","17755","NA","17367","6297","1058","2","legacy","1024","1","44100","-16","experiment","nmal","2","0","1","0","1","Englisch, Franzoesisch, Spanisch","15","","odd","6223734","6205449","NA","NA","6227755","6223730","NA","5339517","6223259","5339517","5339517","6141785","6159157","6290209","6288705","6291268","6176482","6165740","6205448","NA","6082834","6132837","6203793","6165524","6223734","6165744","NA","6290208","6290208","NA","NA","6288700","NAP perception","24","20767","24","yes","1024"
"100","yes","100","860.44","860.44","white","no","xpyriment","Ich habe die obigen Informationen gelesen und verstanden.","legacy","legacy","0","uniform","1","0","0","undefined","undefined","1","j","2","1","NA","0","1","0","0","0","0","0","0","0","0","34","34","34","0","0","0","NA","0","0","2","0","0","0","2","34","34","34","34","34","Wed Oct 25 11:20:05 2017","Forced-choice identification task with a practice and an experimental phase","yes","NAP_GER_AA_4blocks_noglides.osexp","/Users/aviadalbert/Documents/Academisch/UoC/Dissertation/Experiment/OpenSesame/NAP-FC/NAP_GER_AA_4blocks_noglides","yes","no","sans","no","20","no","black","no","Weiter","yes","768","legacy","24","9","0","/Users/aviadalbert/Documents/Academisch/UoC/Dissertation/Experiment/OpenSesame/NAP-FC/NAP_GER_AA_4blocks_noglides/subject-15.csv","xpyriment","Jazzy James","3.1.9","yes","yes","59a800d99ad5a1025d81bb03","59a801616c613b0251691de0","no","no","0","j","f","space","NA","space","space","j","744","4020","17755","NA","17367","6297","744","2","legacy","1024","1","44100","-16","experiment","emnal","2","0","1","0","1","Englisch, Franzoesisch, Spanisch","15","","odd","6223734","6205449","NA","NA","6227755","6223730","NA","5339517","6223259","5339517","5339517","6141785","6159157","6293052","6291546","6293797","6176482","6165740","6205448","NA","6082834","6132837","6203793","6165524","6223734","6165744","NA","6293052","6293052","NA","NA","6291542","NAP perception","25","21511","25","yes","1024"
"100","yes","100","854.192307692","854.192307692","white","no","xpyriment","Ich habe die obigen Informationen gelesen und verstanden.","legacy","legacy","0","uniform","1","0","0","undefined","undefined","1","j","2","1","NA","0","1","0","0","0","0","0","0","0","0","35","35","35","0","0","0","NA","0","0","2","0","0","0","2","35","35","35","35","35","Wed Oct 25 11:20:05 2017","Forced-choice identification task with a practice and an experimental phase","yes","NAP_GER_AA_4blocks_noglides.osexp","/Users/aviadalbert/Documents/Academisch/UoC/Dissertation/Experiment/OpenSesame/NAP-FC/NAP_GER_AA_4blocks_noglides","yes","no","sans","no","20","no","black","no","Weiter","yes","768","legacy","25","9","0","/Users/aviadalbert/Documents/Academisch/UoC/Dissertation/Experiment/OpenSesame/NAP-FC/NAP_GER_AA_4blocks_noglides/subject-15.csv","xpyriment","Jazzy James","3.1.9","yes","yes","59a800d99ad5a1025d81bb03","59a801616c613b0251691de0","no","no","0","j","f","space","NA","space","space","j","698","4020","17755","NA","17367","6297","698","2","legacy","1024","1","44100","-16","experiment","lefal","2","0","1","0","1","Englisch, Franzoesisch, Spanisch","15","","odd","6223734","6205449","NA","NA","6227755","6223730","NA","5339517","6223259","5339517","5339517","6141785","6159157","6295569","6294060","6296268","6176482","6165740","6205448","NA","6082834","6132837","6203793","6165524","6223734","6165744","NA","6295569","6295569","NA","NA","6294056","NAP perception","26","22209","26","yes","1024"
"100","yes","100","855.148148148","855.148148148","white","no","xpyriment","Ich habe die obigen Informationen gelesen und verstanden.","legacy","legacy","0","uniform","1","0","0","undefined","undefined","1","f","2","1","NA","0","1","0","0","0","0","0","0","0","0","36","36","36","0","0","0","NA","0","0","2","0","0","0","2","36","36","36","36","36","Wed Oct 25 11:20:05 2017","Forced-choice identification task with a practice and an experimental phase","yes","NAP_GER_AA_4blocks_noglides.osexp","/Users/aviadalbert/Documents/Academisch/UoC/Dissertation/Experiment/OpenSesame/NAP-FC/NAP_GER_AA_4blocks_noglides","yes","no","sans","no","20","no","black","no","Weiter","yes","768","legacy","26","9","0","/Users/aviadalbert/Documents/Academisch/UoC/Dissertation/Experiment/OpenSesame/NAP-FC/NAP_GER_AA_4blocks_noglides/subject-15.csv","xpyriment","Jazzy James","3.1.9","yes","yes","59a800d99ad5a1025d81bb03","59a801616c613b0251691de0","no","no","0","f","f","space","NA","space","space","f","880","4020","17755","NA","17367","6297","880","2","legacy","1024","1","44100","-16","experiment","flal","2","0","1","0","1","Englisch, Franzoesisch, Spanisch","15","","odd","6223734","6205449","NA","NA","6227755","6223730","NA","5339517","6223259","5339517","5339517","6141785","6159157","6298051","6296547","6298932","6176482","6165740","6205448","NA","6082834","6132837","6203793","6165524","6223734","6165744","NA","6298050","6298050","NA","NA","6296543","NAP perception","27","23089","27","yes","1024"
"100","yes","100","861.964285714","861.964285714","white","no","xpyriment","Ich habe die obigen Informationen gelesen und verstanden.","legacy","legacy","0","uniform","1","0","0","undefined","undefined","1","f","2","1","NA","0","1","0","0","0","0","0","0","0","0","37","37","37","0","0","0","NA","0","0","2","0","0","0","2","37","37","37","37","37","Wed Oct 25 11:20:05 2017","Forced-choice identification task with a practice and an experimental phase","yes","NAP_GER_AA_4blocks_noglides.osexp","/Users/aviadalbert/Documents/Academisch/UoC/Dissertation/Experiment/OpenSesame/NAP-FC/NAP_GER_AA_4blocks_noglides","yes","no","sans","no","20","no","black","no","Weiter","yes","768","legacy","27","9","0","/Users/aviadalbert/Documents/Academisch/UoC/Dissertation/Experiment/OpenSesame/NAP-FC/NAP_GER_AA_4blocks_noglides/subject-15.csv","xpyriment","Jazzy James","3.1.9","yes","yes","59a800d99ad5a1025d81bb03","59a801616c613b0251691de0","no","no","0","f","f","space","NA","space","space","f","1046","4020","17755","NA","17367","6297","1046","2","legacy","1024","1","44100","-16","experiment","nval","2","0","1","0","1","Englisch, Franzoesisch, Spanisch","15","","odd","6223734","6205449","NA","NA","6227755","6223730","NA","5339517","6223259","5339517","5339517","6141785","6159157","6300705","6299201","6301752","6176482","6165740","6205448","NA","6082834","6132837","6203793","6165524","6223734","6165744","NA","6300705","6300705","NA","NA","6299197","NAP perception","28","24135","28","yes","1024"
"100","yes","100","862.344827586","862.344827586","white","no","xpyriment","Ich habe die obigen Informationen gelesen und verstanden.","legacy","legacy","0","uniform","1","0","0","undefined","undefined","1","f","2","1","NA","0","1","0","0","0","0","0","0","0","0","38","38","38","0","0","0","NA","0","0","2","0","0","0","2","38","38","38","38","38","Wed Oct 25 11:20:05 2017","Forced-choice identification task with a practice and an experimental phase","yes","NAP_GER_AA_4blocks_noglides.osexp","/Users/aviadalbert/Documents/Academisch/UoC/Dissertation/Experiment/OpenSesame/NAP-FC/NAP_GER_AA_4blocks_noglides","yes","no","sans","no","20","no","black","no","Weiter","yes","768","legacy","28","9","0","/Users/aviadalbert/Documents/Academisch/UoC/Dissertation/Experiment/OpenSesame/NAP-FC/NAP_GER_AA_4blocks_noglides/subject-15.csv","xpyriment","Jazzy James","3.1.9","yes","yes","59a800d99ad5a1025d81bb03","59a801616c613b0251691de0","no","no","0","f","f","space","NA","space","space","f","873","4020","17755","NA","17367","6297","873","2","legacy","1024","1","44100","-16","experiment","mzal","2","0","1","0","1","Englisch, Franzoesisch, Spanisch","15","","odd","6223734","6205449","NA","NA","6227755","6223730","NA","5339517","6223259","5339517","5339517","6141785","6159157","6303548","6302042","6304422","6176482","6165740","6205448","NA","6082834","6132837","6203793","6165524","6223734","6165744","NA","6303548","6303548","NA","NA","6302038","NAP perception","29","25008","29","yes","1024"
"100","yes","100","859.5","859.5","white","no","xpyriment","Ich habe die obigen Informationen gelesen und verstanden.","legacy","legacy","0","uniform","1","0","0","undefined","undefined","1","f","2","1","NA","0","1","0","0","0","0","0","0","0","0","39","39","39","0","0","0","NA","0","0","2","0","0","0","2","39","39","39","39","39","Wed Oct 25 11:20:05 2017","Forced-choice identification task with a practice and an experimental phase","yes","NAP_GER_AA_4blocks_noglides.osexp","/Users/aviadalbert/Documents/Academisch/UoC/Dissertation/Experiment/OpenSesame/NAP-FC/NAP_GER_AA_4blocks_noglides","yes","no","sans","no","20","no","black","no","Weiter","yes","768","legacy","29","9","0","/Users/aviadalbert/Documents/Academisch/UoC/Dissertation/Experiment/OpenSesame/NAP-FC/NAP_GER_AA_4blocks_noglides/subject-15.csv","xpyriment","Jazzy James","3.1.9","yes","yes","59a800d99ad5a1025d81bb03","59a801616c613b0251691de0","no","no","0","f","f","space","NA","space","space","f","777","4020","17755","NA","17367","6297","777","2","legacy","1024","1","44100","-16","experiment","nfal","2","0","1","0","1","Englisch, Franzoesisch, Spanisch","15","","odd","6223734","6205449","NA","NA","6227755","6223730","NA","5339517","6223259","5339517","5339517","6141785","6159157","6306206","6304701","6306984","6176482","6165740","6205448","NA","6082834","6132837","6203793","6165524","6223734","6165744","NA","6306206","6306206","NA","NA","6304697","NAP perception","30","25785","30","yes","1024"
"100","yes","100","860.096774194","860.096774194","white","no","xpyriment","Ich habe die obigen Informationen gelesen und verstanden.","legacy","legacy","0","uniform","1","0","0","undefined","undefined","1","j","2","1","NA","0","1","0","0","0","0","0","0","0","0","40","40","40","0","0","0","NA","0","0","2","0","0","0","2","40","40","40","40","40","Wed Oct 25 11:20:05 2017","Forced-choice identification task with a practice and an experimental phase","yes","NAP_GER_AA_4blocks_noglides.osexp","/Users/aviadalbert/Documents/Academisch/UoC/Dissertation/Experiment/OpenSesame/NAP-FC/NAP_GER_AA_4blocks_noglides","yes","no","sans","no","20","no","black","no","Weiter","yes","768","legacy","30","9","0","/Users/aviadalbert/Documents/Academisch/UoC/Dissertation/Experiment/OpenSesame/NAP-FC/NAP_GER_AA_4blocks_noglides/subject-15.csv","xpyriment","Jazzy James","3.1.9","yes","yes","59a800d99ad5a1025d81bb03","59a801616c613b0251691de0","no","no","0","j","f","space","NA","space","space","j","878","4020","17755","NA","17367","6297","878","2","legacy","1024","1","44100","-16","experiment","lekal","2","0","1","0","1","Englisch, Franzoesisch, Spanisch","15","","odd","6223734","6205449","NA","NA","6227755","6223730","NA","5339517","6223259","5339517","5339517","6141785","6159157","6308764","6307255","6309643","6176482","6165740","6205448","NA","6082834","6132837","6203793","6165524","6223734","6165744","NA","6308764","6308764","NA","NA","6307251","NAP perception","31","26663","31","yes","1024"
"100","yes","100","868.65625","868.65625","white","no","xpyriment","Ich habe die obigen Informationen gelesen und verstanden.","legacy","legacy","0","uniform","1","0","0","undefined","undefined","1","j","2","1","NA","0","1","0","0","0","0","0","0","0","0","41","41","41","0","0","0","NA","0","0","2","0","0","0","2","41","41","41","41","41","Wed Oct 25 11:20:05 2017","Forced-choice identification task with a practice and an experimental phase","yes","NAP_GER_AA_4blocks_noglides.osexp","/Users/aviadalbert/Documents/Academisch/UoC/Dissertation/Experiment/OpenSesame/NAP-FC/NAP_GER_AA_4blocks_noglides","yes","no","sans","no","20","no","black","no","Weiter","yes","768","legacy","31","9","0","/Users/aviadalbert/Documents/Academisch/UoC/Dissertation/Experiment/OpenSesame/NAP-FC/NAP_GER_AA_4blocks_noglides/subject-15.csv","xpyriment","Jazzy James","3.1.9","yes","yes","59a800d99ad5a1025d81bb03","59a801616c613b0251691de0","no","no","0","j","f","space","NA","space","space","j","1134","4020","17755","NA","17367","6297","1134","2","legacy","1024","1","44100","-16","experiment","eʃmal","2","0","1","0","1","Englisch, Franzoesisch, Spanisch","15","","odd","6223734","6205449","NA","NA","6227755","6223730","NA","5339517","6223259","5339517","5339517","6141785","6159157","6311423","6309919","6312558","6176482","6165740","6205448","NA","6082834","6132837","6203793","6165524","6223734","6165744","NA","6311422","6311422","NA","NA","6309915","NAP perception","32","27797","32","yes","1024"
"100","yes","100","869","869","white","no","xpyriment","Ich habe die obigen Informationen gelesen und verstanden.","legacy","legacy","0","uniform","1","0","0","undefined","undefined","1","j","2","1","NA","0","1","0","0","0","0","0","0","0","0","42","42","42","0","0","0","NA","0","0","2","0","0","0","2","42","42","42","42","42","Wed Oct 25 11:20:05 2017","Forced-choice identification task with a practice and an experimental phase","yes","NAP_GER_AA_4blocks_noglides.osexp","/Users/aviadalbert/Documents/Academisch/UoC/Dissertation/Experiment/OpenSesame/NAP-FC/NAP_GER_AA_4blocks_noglides","yes","no","sans","no","20","no","black","no","Weiter","yes","768","legacy","32","9","0","/Users/aviadalbert/Documents/Academisch/UoC/Dissertation/Experiment/OpenSesame/NAP-FC/NAP_GER_AA_4blocks_noglides/subject-15.csv","xpyriment","Jazzy James","3.1.9","yes","yes","59a800d99ad5a1025d81bb03","59a801616c613b0251691de0","no","no","0","j","f","space","NA","space","space","j","880","4020","17755","NA","17367","6297","880","2","legacy","1024","1","44100","-16","experiment","mezal","2","0","1","0","1","Englisch, Franzoesisch, Spanisch","15","","odd","6223734","6205449","NA","NA","6227755","6223730","NA","5339517","6223259","5339517","5339517","6141785","6159157","6314351","6312847","6315233","6176482","6165740","6205448","NA","6082834","6132837","6203793","6165524","6223734","6165744","NA","6314350","6314350","NA","NA","6312842","NAP perception","33","28677","33","yes","1024"
"100","yes","100","867.058823529","867.058823529","white","no","xpyriment","Ich habe die obigen Informationen gelesen und verstanden.","legacy","legacy","0","uniform","1","0","0","undefined","undefined","1","f","2","1","NA","0","1","0","0","0","0","0","0","0","0","43","43","43","0","0","0","NA","0","0","2","0","0","0","2","43","43","43","43","43","Wed Oct 25 11:20:05 2017","Forced-choice identification task with a practice and an experimental phase","yes","NAP_GER_AA_4blocks_noglides.osexp","/Users/aviadalbert/Documents/Academisch/UoC/Dissertation/Experiment/OpenSesame/NAP-FC/NAP_GER_AA_4blocks_noglides","yes","no","sans","no","20","no","black","no","Weiter","yes","768","legacy","33","9","0","/Users/aviadalbert/Documents/Academisch/UoC/Dissertation/Experiment/OpenSesame/NAP-FC/NAP_GER_AA_4blocks_noglides/subject-15.csv","xpyriment","Jazzy James","3.1.9","yes","yes","59a800d99ad5a1025d81bb03","59a801616c613b0251691de0","no","no","0","f","f","space","NA","space","space","f","803","4020","17755","NA","17367","6297","803","2","legacy","1024","1","44100","-16","experiment","vzal","2","0","1","0","1","Englisch, Franzoesisch, Spanisch","15","","odd","6223734","6205449","NA","NA","6227755","6223730","NA","5339517","6223259","5339517","5339517","6141785","6159157","6317022","6315517","6317826","6176482","6165740","6205448","NA","6082834","6132837","6203793","6165524","6223734","6165744","NA","6317021","6317021","NA","NA","6315513","NAP perception","34","29480","34","yes","1024"
"100","yes","100","863.428571429","863.428571429","white","no","xpyriment","Ich habe die obigen Informationen gelesen und verstanden.","legacy","legacy","0","uniform","1","0","0","undefined","undefined","1","f","2","1","NA","0","1","0","0","0","0","0","0","0","0","44","44","44","0","0","0","NA","0","0","2","0","0","0","2","44","44","44","44","44","Wed Oct 25 11:20:05 2017","Forced-choice identification task with a practice and an experimental phase","yes","NAP_GER_AA_4blocks_noglides.osexp","/Users/aviadalbert/Documents/Academisch/UoC/Dissertation/Experiment/OpenSesame/NAP-FC/NAP_GER_AA_4blocks_noglides","yes","no","sans","no","20","no","black","no","Weiter","yes","768","legacy","34","9","0","/Users/aviadalbert/Documents/Academisch/UoC/Dissertation/Experiment/OpenSesame/NAP-FC/NAP_GER_AA_4blocks_noglides/subject-15.csv","xpyriment","Jazzy James","3.1.9","yes","yes","59a800d99ad5a1025d81bb03","59a801616c613b0251691de0","no","no","0","f","f","space","NA","space","space","f","740","4020","17755","NA","17367","6297","740","2","legacy","1024","1","44100","-16","experiment","vlal","2","0","1","0","1","Englisch, Franzoesisch, Spanisch","15","","odd","6223734","6205449","NA","NA","6227755","6223730","NA","5339517","6223259","5339517","5339517","6141785","6159157","6319609","6318101","6320350","6176482","6165740","6205448","NA","6082834","6132837","6203793","6165524","6223734","6165744","NA","6319609","6319609","NA","NA","6318097","NAP perception","35","30220","35","yes","1024"
"100","yes","100","864.472222222","864.472222222","white","no","xpyriment","Ich habe die obigen Informationen gelesen und verstanden.","legacy","legacy","0","uniform","1","0","0","undefined","undefined","1","f","2","1","NA","0","1","0","0","0","0","0","0","0","0","45","45","45","0","0","0","NA","0","0","2","0","0","0","2","45","45","45","45","45","Wed Oct 25 11:20:05 2017","Forced-choice identification task with a practice and an experimental phase","yes","NAP_GER_AA_4blocks_noglides.osexp","/Users/aviadalbert/Documents/Academisch/UoC/Dissertation/Experiment/OpenSesame/NAP-FC/NAP_GER_AA_4blocks_noglides","yes","no","sans","no","20","no","black","no","Weiter","yes","768","legacy","35","9","0","/Users/aviadalbert/Documents/Academisch/UoC/Dissertation/Experiment/OpenSesame/NAP-FC/NAP_GER_AA_4blocks_noglides/subject-15.csv","xpyriment","Jazzy James","3.1.9","yes","yes","59a800d99ad5a1025d81bb03","59a801616c613b0251691de0","no","no","0","f","f","space","NA","space","space","f","901","4020","17755","NA","17367","6297","901","2","legacy","1024","1","44100","-16","experiment","mlal","2","0","1","0","1","Englisch, Franzoesisch, Spanisch","15","","odd","6223734","6205449","NA","NA","6227755","6223730","NA","5339517","6223259","5339517","5339517","6141785","6159157","6322125","6320621","6323027","6176482","6165740","6205448","NA","6082834","6132837","6203793","6165524","6223734","6165744","NA","6322124","6322124","NA","NA","6320617","NAP perception","36","31121","36","yes","1024"
"100","yes","100","864.783783784","864.783783784","white","no","xpyriment","Ich habe die obigen Informationen gelesen und verstanden.","legacy","legacy","0","uniform","1","0","0","undefined","undefined","1","j","2","1","NA","0","1","0","0","0","0","0","0","0","0","46","46","46","0","0","0","NA","0","0","2","0","0","0","2","46","46","46","46","46","Wed Oct 25 11:20:05 2017","Forced-choice identification task with a practice and an experimental phase","yes","NAP_GER_AA_4blocks_noglides.osexp","/Users/aviadalbert/Documents/Academisch/UoC/Dissertation/Experiment/OpenSesame/NAP-FC/NAP_GER_AA_4blocks_noglides","yes","no","sans","no","20","no","black","no","Weiter","yes","768","legacy","36","9","0","/Users/aviadalbert/Documents/Academisch/UoC/Dissertation/Experiment/OpenSesame/NAP-FC/NAP_GER_AA_4blocks_noglides/subject-15.csv","xpyriment","Jazzy James","3.1.9","yes","yes","59a800d99ad5a1025d81bb03","59a801616c613b0251691de0","no","no","0","j","f","space","NA","space","space","j","876","4020","17755","NA","17367","6297","876","2","legacy","1024","1","44100","-16","experiment","nemal","2","0","1","0","1","Englisch, Franzoesisch, Spanisch","15","","odd","6223734","6205449","NA","NA","6227755","6223730","NA","5339517","6223259","5339517","5339517","6141785","6159157","6324820","6323315","6325697","6176482","6165740","6205448","NA","6082834","6132837","6203793","6165524","6223734","6165744","NA","6324819","6324819","NA","NA","6323311","NAP perception","37","31997","37","yes","1024"
"100","yes","100","862.921052632","862.921052632","white","no","xpyriment","Ich habe die obigen Informationen gelesen und verstanden.","legacy","legacy","0","uniform","1","0","0","undefined","undefined","1","f","2","1","NA","0","1","0","0","0","0","0","0","0","0","47","47","47","0","0","0","NA","0","0","2","0","0","0","2","47","47","47","47","47","Wed Oct 25 11:20:05 2017","Forced-choice identification task with a practice and an experimental phase","yes","NAP_GER_AA_4blocks_noglides.osexp","/Users/aviadalbert/Documents/Academisch/UoC/Dissertation/Experiment/OpenSesame/NAP-FC/NAP_GER_AA_4blocks_noglides","yes","no","sans","no","20","no","black","no","Weiter","yes","768","legacy","37","9","0","/Users/aviadalbert/Documents/Academisch/UoC/Dissertation/Experiment/OpenSesame/NAP-FC/NAP_GER_AA_4blocks_noglides/subject-15.csv","xpyriment","Jazzy James","3.1.9","yes","yes","59a800d99ad5a1025d81bb03","59a801616c613b0251691de0","no","no","0","f","f","space","NA","space","space","f","794","4020","17755","NA","17367","6297","794","2","legacy","1024","1","44100","-16","experiment","mlal","2","0","1","0","1","Englisch, Franzoesisch, Spanisch","15","","odd","6223734","6205449","NA","NA","6227755","6223730","NA","5339517","6223259","5339517","5339517","6141785","6159157","6327478","6325972","6328273","6176482","6165740","6205448","NA","6082834","6132837","6203793","6165524","6223734","6165744","NA","6327478","6327478","NA","NA","6325967","NAP perception","38","32791","38","yes","1024"
"100","yes","100","866.794871795","866.794871795","white","no","xpyriment","Ich habe die obigen Informationen gelesen und verstanden.","legacy","legacy","0","uniform","1","0","0","undefined","undefined","1","j","2","1","NA","0","1","0","0","0","0","0","0","0","0","48","48","48","0","0","0","NA","0","0","2","0","0","0","2","48","48","48","48","48","Wed Oct 25 11:20:05 2017","Forced-choice identification task with a practice and an experimental phase","yes","NAP_GER_AA_4blocks_noglides.osexp","/Users/aviadalbert/Documents/Academisch/UoC/Dissertation/Experiment/OpenSesame/NAP-FC/NAP_GER_AA_4blocks_noglides","yes","no","sans","no","20","no","black","no","Weiter","yes","768","legacy","38","9","0","/Users/aviadalbert/Documents/Academisch/UoC/Dissertation/Experiment/OpenSesame/NAP-FC/NAP_GER_AA_4blocks_noglides/subject-15.csv","xpyriment","Jazzy James","3.1.9","yes","yes","59a800d99ad5a1025d81bb03","59a801616c613b0251691de0","no","no","0","j","f","space","NA","space","space","j","1014","4020","17755","NA","17367","6297","1014","2","legacy","1024","1","44100","-16","experiment","sepal","2","0","1","0","1","Englisch, Franzoesisch, Spanisch","15","","odd","6223734","6205449","NA","NA","6227755","6223730","NA","5339517","6223259","5339517","5339517","6141785","6159157","6330059","6328555","6331074","6176482","6165740","6205448","NA","6082834","6132837","6203793","6165524","6223734","6165744","NA","6330059","6330059","NA","NA","6328551","NAP perception","39","33805","39","yes","1024"
"100","yes","100","873.725","873.725","white","no","xpyriment","Ich habe die obigen Informationen gelesen und verstanden.","legacy","legacy","0","uniform","1","0","0","undefined","undefined","1","j","2","1","NA","0","1","0","0","0","0","0","0","0","0","49","49","49","0","0","0","NA","0","0","2","0","0","0","2","49","49","49","49","49","Wed Oct 25 11:20:05 2017","Forced-choice identification task with a practice and an experimental phase","yes","NAP_GER_AA_4blocks_noglides.osexp","/Users/aviadalbert/Documents/Academisch/UoC/Dissertation/Experiment/OpenSesame/NAP-FC/NAP_GER_AA_4blocks_noglides","yes","no","sans","no","20","no","black","no","Weiter","yes","768","legacy","39","9","0","/Users/aviadalbert/Documents/Academisch/UoC/Dissertation/Experiment/OpenSesame/NAP-FC/NAP_GER_AA_4blocks_noglides/subject-15.csv","xpyriment","Jazzy James","3.1.9","yes","yes","59a800d99ad5a1025d81bb03","59a801616c613b0251691de0","no","no","0","j","f","space","NA","space","space","j","1144","4020","17755","NA","17367","6297","1144","2","legacy","1024","1","44100","-16","experiment","emlal","2","0","1","0","1","Englisch, Franzoesisch, Spanisch","15","","odd","6223734","6205449","NA","NA","6227755","6223730","NA","5339517","6223259","5339517","5339517","6141785","6159157","6332845","6331341","6333990","6176482","6165740","6205448","NA","6082834","6132837","6203793","6165524","6223734","6165744","NA","6332844","6332844","NA","NA","6331337","NAP perception","40","34949","40","yes","1024"
"100","yes","100","880.073170732","880.073170732","white","no","xpyriment","Ich habe die obigen Informationen gelesen und verstanden.","legacy","legacy","0","uniform","1","0","0","undefined","undefined","1","f","2","1","NA","0","1","0","0","0","0","0","0","0","0","50","50","50","0","0","0","NA","0","0","2","0","0","0","2","50","50","50","50","50","Wed Oct 25 11:20:05 2017","Forced-choice identification task with a practice and an experimental phase","yes","NAP_GER_AA_4blocks_noglides.osexp","/Users/aviadalbert/Documents/Academisch/UoC/Dissertation/Experiment/OpenSesame/NAP-FC/NAP_GER_AA_4blocks_noglides","yes","no","sans","no","20","no","black","no","Weiter","yes","768","legacy","40","9","0","/Users/aviadalbert/Documents/Academisch/UoC/Dissertation/Experiment/OpenSesame/NAP-FC/NAP_GER_AA_4blocks_noglides/subject-15.csv","xpyriment","Jazzy James","3.1.9","yes","yes","59a800d99ad5a1025d81bb03","59a801616c613b0251691de0","no","no","0","f","f","space","NA","space","space","f","1134","4020","17755","NA","17367","6297","1134","2","legacy","1024","1","44100","-16","experiment","mnal","2","0","1","0","1","Englisch, Franzoesisch, Spanisch","15","","odd","6223734","6205449","NA","NA","6227755","6223730","NA","5339517","6223259","5339517","5339517","6141785","6159157","6335768","6334261","6336903","6176482","6165740","6205448","NA","6082834","6132837","6203793","6165524","6223734","6165744","NA","6335768","6335768","NA","NA","6334256","NAP perception","41","36083","41","yes","1024"
"100","yes","100","877.976190476","877.976190476","white","no","xpyriment","Ich habe die obigen Informationen gelesen und verstanden.","legacy","legacy","0","uniform","1","0","0","undefined","undefined","1","f","2","1","NA","0","1","0","0","0","0","0","0","0","0","51","51","51","0","0","0","NA","0","0","2","0","0","0","2","51","51","51","51","51","Wed Oct 25 11:20:05 2017","Forced-choice identification task with a practice and an experimental phase","yes","NAP_GER_AA_4blocks_noglides.osexp","/Users/aviadalbert/Documents/Academisch/UoC/Dissertation/Experiment/OpenSesame/NAP-FC/NAP_GER_AA_4blocks_noglides","yes","no","sans","no","20","no","black","no","Weiter","yes","768","legacy","41","9","0","/Users/aviadalbert/Documents/Academisch/UoC/Dissertation/Experiment/OpenSesame/NAP-FC/NAP_GER_AA_4blocks_noglides/subject-15.csv","xpyriment","Jazzy James","3.1.9","yes","yes","59a800d99ad5a1025d81bb03","59a801616c613b0251691de0","no","no","0","f","f","space","NA","space","space","f","792","4020","17755","NA","17367","6297","792","2","legacy","1024","1","44100","-16","experiment","spal","2","0","1","0","1","Englisch, Franzoesisch, Spanisch","15","","odd","6223734","6205449","NA","NA","6227755","6223730","NA","5339517","6223259","5339517","5339517","6141785","6159157","6338682","6337174","6339475","6176482","6165740","6205448","NA","6082834","6132837","6203793","6165524","6223734","6165744","NA","6338681","6338682","NA","NA","6337170","NAP perception","42","36875","42","yes","1024"
"100","yes","100","880.976744186","880.976744186","white","no","xpyriment","Ich habe die obigen Informationen gelesen und verstanden.","legacy","legacy","0","uniform","1","0","0","undefined","undefined","1","j","2","1","NA","0","1","0","0","0","0","0","0","0","0","52","52","52","0","0","0","NA","0","0","2","0","0","0","2","52","52","52","52","52","Wed Oct 25 11:20:05 2017","Forced-choice identification task with a practice and an experimental phase","yes","NAP_GER_AA_4blocks_noglides.osexp","/Users/aviadalbert/Documents/Academisch/UoC/Dissertation/Experiment/OpenSesame/NAP-FC/NAP_GER_AA_4blocks_noglides","yes","no","sans","no","20","no","black","no","Weiter","yes","768","legacy","42","9","0","/Users/aviadalbert/Documents/Academisch/UoC/Dissertation/Experiment/OpenSesame/NAP-FC/NAP_GER_AA_4blocks_noglides/subject-15.csv","xpyriment","Jazzy James","3.1.9","yes","yes","59a800d99ad5a1025d81bb03","59a801616c613b0251691de0","no","no","0","j","f","space","NA","space","space","j","1007","4020","17755","NA","17367","6297","1007","2","legacy","1024","1","44100","-16","experiment","evzal","2","0","1","0","1","Englisch, Franzoesisch, Spanisch","15","","odd","6223734","6205449","NA","NA","6227755","6223730","NA","5339517","6223259","5339517","5339517","6141785","6159157","6341262","6339758","6342271","6176482","6165740","6205448","NA","6082834","6132837","6203793","6165524","6223734","6165744","NA","6341262","6341262","NA","NA","6339754","NAP perception","43","37882","43","yes","1024"
"100","yes","100","881.136363636","881.136363636","white","no","xpyriment","Ich habe die obigen Informationen gelesen und verstanden.","legacy","legacy","0","uniform","1","0","0","undefined","undefined","1","f","2","1","NA","0","1","0","0","0","0","0","0","0","0","53","53","53","0","0","0","NA","0","0","2","0","0","0","2","53","53","53","53","53","Wed Oct 25 11:20:05 2017","Forced-choice identification task with a practice and an experimental phase","yes","NAP_GER_AA_4blocks_noglides.osexp","/Users/aviadalbert/Documents/Academisch/UoC/Dissertation/Experiment/OpenSesame/NAP-FC/NAP_GER_AA_4blocks_noglides","yes","no","sans","no","20","no","black","no","Weiter","yes","768","legacy","43","9","0","/Users/aviadalbert/Documents/Academisch/UoC/Dissertation/Experiment/OpenSesame/NAP-FC/NAP_GER_AA_4blocks_noglides/subject-15.csv","xpyriment","Jazzy James","3.1.9","yes","yes","59a800d99ad5a1025d81bb03","59a801616c613b0251691de0","no","no","0","f","f","space","NA","space","space","f","888","4020","17755","NA","17367","6297","888","2","legacy","1024","1","44100","-16","experiment","zmal","2","0","1","0","1","Englisch, Franzoesisch, Spanisch","15","","odd","6223734","6205449","NA","NA","6227755","6223730","NA","5339517","6223259","5339517","5339517","6141785","6159157","6344073","6342569","6344962","6176482","6165740","6205448","NA","6082834","6132837","6203793","6165524","6223734","6165744","NA","6344072","6344072","NA","NA","6342565","NAP perception","44","38770","44","yes","1024"
"100","yes","100","880.888888889","880.888888889","white","no","xpyriment","Ich habe die obigen Informationen gelesen und verstanden.","legacy","legacy","0","uniform","1","0","0","undefined","undefined","1","j","2","1","NA","0","1","0","0","0","0","0","0","0","0","54","54","54","0","0","0","NA","0","0","2","0","0","0","2","54","54","54","54","54","Wed Oct 25 11:20:05 2017","Forced-choice identification task with a practice and an experimental phase","yes","NAP_GER_AA_4blocks_noglides.osexp","/Users/aviadalbert/Documents/Academisch/UoC/Dissertation/Experiment/OpenSesame/NAP-FC/NAP_GER_AA_4blocks_noglides","yes","no","sans","no","20","no","black","no","Weiter","yes","768","legacy","44","9","0","/Users/aviadalbert/Documents/Academisch/UoC/Dissertation/Experiment/OpenSesame/NAP-FC/NAP_GER_AA_4blocks_noglides/subject-15.csv","xpyriment","Jazzy James","3.1.9","yes","yes","59a800d99ad5a1025d81bb03","59a801616c613b0251691de0","no","no","0","j","f","space","NA","space","space","j","870","4020","17755","NA","17367","6297","870","2","legacy","1024","1","44100","-16","experiment","menal","2","0","1","0","1","Englisch, Franzoesisch, Spanisch","15","","odd","6223734","6205449","NA","NA","6227755","6223730","NA","5339517","6223259","5339517","5339517","6141785","6159157","6346745","6345239","6347617","6176482","6165740","6205448","NA","6082834","6132837","6203793","6165524","6223734","6165744","NA","6346745","6346745","NA","NA","6345235","NAP perception","45","39640","45","yes","1024"
"100","yes","100","884.652173913","884.652173913","white","no","xpyriment","Ich habe die obigen Informationen gelesen und verstanden.","legacy","legacy","0","uniform","1","0","0","undefined","undefined","1","f","2","1","NA","0","1","0","0","0","0","0","0","0","0","55","55","55","0","0","0","NA","0","0","2","0","0","0","2","55","55","55","55","55","Wed Oct 25 11:20:05 2017","Forced-choice identification task with a practice and an experimental phase","yes","NAP_GER_AA_4blocks_noglides.osexp","/Users/aviadalbert/Documents/Academisch/UoC/Dissertation/Experiment/OpenSesame/NAP-FC/NAP_GER_AA_4blocks_noglides","yes","no","sans","no","20","no","black","no","Weiter","yes","768","legacy","45","9","0","/Users/aviadalbert/Documents/Academisch/UoC/Dissertation/Experiment/OpenSesame/NAP-FC/NAP_GER_AA_4blocks_noglides/subject-15.csv","xpyriment","Jazzy James","3.1.9","yes","yes","59a800d99ad5a1025d81bb03","59a801616c613b0251691de0","no","no","0","f","f","space","NA","space","space","f","1054","4020","17755","NA","17367","6297","1054","2","legacy","1024","1","44100","-16","experiment","lfal","2","0","1","0","1","Englisch, Franzoesisch, Spanisch","15","","odd","6223734","6205449","NA","NA","6227755","6223730","NA","5339517","6223259","5339517","5339517","6141785","6159157","6349422","6347916","6350477","6176482","6165740","6205448","NA","6082834","6132837","6203793","6165524","6223734","6165744","NA","6349422","6349422","NA","NA","6347912","NAP perception","46","40694","46","yes","1024"
"100","yes","100","883.574468085","883.574468085","white","no","xpyriment","Ich habe die obigen Informationen gelesen und verstanden.","legacy","legacy","0","uniform","1","0","0","undefined","undefined","1","j","2","1","NA","0","1","0","0","0","0","0","0","0","0","56","56","56","0","0","0","NA","0","0","2","0","0","0","2","56","56","56","56","56","Wed Oct 25 11:20:05 2017","Forced-choice identification task with a practice and an experimental phase","yes","NAP_GER_AA_4blocks_noglides.osexp","/Users/aviadalbert/Documents/Academisch/UoC/Dissertation/Experiment/OpenSesame/NAP-FC/NAP_GER_AA_4blocks_noglides","yes","no","sans","no","20","no","black","no","Weiter","yes","768","legacy","46","9","0","/Users/aviadalbert/Documents/Academisch/UoC/Dissertation/Experiment/OpenSesame/NAP-FC/NAP_GER_AA_4blocks_noglides/subject-15.csv","xpyriment","Jazzy James","3.1.9","yes","yes","59a800d99ad5a1025d81bb03","59a801616c613b0251691de0","no","no","0","j","f","space","NA","space","space","j","834","4020","17755","NA","17367","6297","834","2","legacy","1024","1","44100","-16","experiment","velal","2","0","1","0","1","Englisch, Franzoesisch, Spanisch","15","","odd","6223734","6205449","NA","NA","6227755","6223730","NA","5339517","6223259","5339517","5339517","6141785","6159157","6352255","6350751","6353090","6176482","6165740","6205448","NA","6082834","6132837","6203793","6165524","6223734","6165744","NA","6352255","6352255","NA","NA","6350747","NAP perception","47","41528","47","yes","1024"
"100","yes","100","882.645833333","882.645833333","white","no","xpyriment","Ich habe die obigen Informationen gelesen und verstanden.","legacy","legacy","0","uniform","1","0","0","undefined","undefined","1","j","2","1","NA","0","1","0","0","0","0","0","0","0","0","57","57","57","0","0","0","NA","0","0","2","0","0","0","2","57","57","57","57","57","Wed Oct 25 11:20:05 2017","Forced-choice identification task with a practice and an experimental phase","yes","NAP_GER_AA_4blocks_noglides.osexp","/Users/aviadalbert/Documents/Academisch/UoC/Dissertation/Experiment/OpenSesame/NAP-FC/NAP_GER_AA_4blocks_noglides","yes","no","sans","no","20","no","black","no","Weiter","yes","768","legacy","47","9","0","/Users/aviadalbert/Documents/Academisch/UoC/Dissertation/Experiment/OpenSesame/NAP-FC/NAP_GER_AA_4blocks_noglides/subject-15.csv","xpyriment","Jazzy James","3.1.9","yes","yes","59a800d99ad5a1025d81bb03","59a801616c613b0251691de0","no","no","0","j","f","space","NA","space","space","j","839","4020","17755","NA","17367","6297","839","2","legacy","1024","1","44100","-16","experiment","fenal","2","0","1","0","1","Englisch, Franzoesisch, Spanisch","15","","odd","6223734","6205449","NA","NA","6227755","6223730","NA","5339517","6223259","5339517","5339517","6141785","6159157","6354867","6353361","6355708","6176482","6165740","6205448","NA","6082834","6132837","6203793","6165524","6223734","6165744","NA","6354867","6354867","NA","NA","6353357","NAP perception","48","42367","48","yes","1024"
"100","yes","100","883.142857143","883.142857143","white","no","xpyriment","Ich habe die obigen Informationen gelesen und verstanden.","legacy","legacy","0","uniform","1","0","0","undefined","undefined","1","j","2","1","NA","0","1","0","0","0","0","0","0","0","0","58","58","58","0","0","0","NA","0","0","2","0","0","0","2","58","58","58","58","58","Wed Oct 25 11:20:05 2017","Forced-choice identification task with a practice and an experimental phase","yes","NAP_GER_AA_4blocks_noglides.osexp","/Users/aviadalbert/Documents/Academisch/UoC/Dissertation/Experiment/OpenSesame/NAP-FC/NAP_GER_AA_4blocks_noglides","yes","no","sans","no","20","no","black","no","Weiter","yes","768","legacy","48","9","0","/Users/aviadalbert/Documents/Academisch/UoC/Dissertation/Experiment/OpenSesame/NAP-FC/NAP_GER_AA_4blocks_noglides/subject-15.csv","xpyriment","Jazzy James","3.1.9","yes","yes","59a800d99ad5a1025d81bb03","59a801616c613b0251691de0","no","no","0","j","f","space","NA","space","space","j","907","4020","17755","NA","17367","6297","907","2","legacy","1024","1","44100","-16","experiment","neval","2","0","1","0","1","Englisch, Franzoesisch, Spanisch","15","","odd","6223734","6205449","NA","NA","6227755","6223730","NA","5339517","6223259","5339517","5339517","6141785","6159157","6357492","6355988","6358401","6176482","6165740","6205448","NA","6082834","6132837","6203793","6165524","6223734","6165744","NA","6357491","6357491","NA","NA","6355983","NAP perception","49","43274","49","yes","1024"
"100","yes","100","883.1","883.1","white","no","xpyriment","Ich habe die obigen Informationen gelesen und verstanden.","legacy","legacy","0","uniform","1","0","0","undefined","undefined","1","j","2","1","NA","0","1","0","0","0","0","0","0","0","0","59","59","59","0","0","0","NA","0","0","2","0","0","0","2","59","59","59","59","59","Wed Oct 25 11:20:05 2017","Forced-choice identification task with a practice and an experimental phase","yes","NAP_GER_AA_4blocks_noglides.osexp","/Users/aviadalbert/Documents/Academisch/UoC/Dissertation/Experiment/OpenSesame/NAP-FC/NAP_GER_AA_4blocks_noglides","yes","no","sans","no","20","no","black","no","Weiter","yes","768","legacy","49","9","0","/Users/aviadalbert/Documents/Academisch/UoC/Dissertation/Experiment/OpenSesame/NAP-FC/NAP_GER_AA_4blocks_noglides/subject-15.csv","xpyriment","Jazzy James","3.1.9","yes","yes","59a800d99ad5a1025d81bb03","59a801616c613b0251691de0","no","no","0","j","f","space","NA","space","space","j","881","4020","17755","NA","17367","6297","881","2","legacy","1024","1","44100","-16","experiment","ʃepal","2","0","1","0","1","Englisch, Franzoesisch, Spanisch","15","","odd","6223734","6205449","NA","NA","6227755","6223730","NA","5339517","6223259","5339517","5339517","6141785","6159157","6360190","6358686","6361073","6176482","6165740","6205448","NA","6082834","6132837","6203793","6165524","6223734","6165744","NA","6360189","6360189","NA","NA","6358682","NAP perception","50","44155","50","yes","1024"
"100","yes","100","881.745098039","881.745098039","white","no","xpyriment","Ich habe die obigen Informationen gelesen und verstanden.","legacy","legacy","0","uniform","1","0","0","undefined","undefined","1","j","2","1","NA","0","1","0","0","0","0","0","0","0","0","60","60","60","0","0","0","NA","0","0","2","0","0","0","2","60","60","60","60","60","Wed Oct 25 11:20:05 2017","Forced-choice identification task with a practice and an experimental phase","yes","NAP_GER_AA_4blocks_noglides.osexp","/Users/aviadalbert/Documents/Academisch/UoC/Dissertation/Experiment/OpenSesame/NAP-FC/NAP_GER_AA_4blocks_noglides","yes","no","sans","no","20","no","black","no","Weiter","yes","768","legacy","50","9","0","/Users/aviadalbert/Documents/Academisch/UoC/Dissertation/Experiment/OpenSesame/NAP-FC/NAP_GER_AA_4blocks_noglides/subject-15.csv","xpyriment","Jazzy James","3.1.9","yes","yes","59a800d99ad5a1025d81bb03","59a801616c613b0251691de0","no","no","0","j","f","space","NA","space","space","j","814","4020","17755","NA","17367","6297","814","2","legacy","1024","1","44100","-16","experiment","eftal","2","0","1","0","1","Englisch, Franzoesisch, Spanisch","15","","odd","6223734","6205449","NA","NA","6227755","6223730","NA","5339517","6223259","5339517","5339517","6141785","6159157","6362855","6361347","6363671","6176482","6165740","6205448","NA","6082834","6132837","6203793","6165524","6223734","6165744","NA","6362855","6362855","NA","NA","6361342","NAP perception","51","44969","51","yes","1024"
"100","yes","100","878.653846154","878.653846154","white","no","xpyriment","Ich habe die obigen Informationen gelesen und verstanden.","legacy","legacy","0","uniform","1","0","0","undefined","undefined","1","f","2","1","NA","0","1","0","0","0","0","0","0","0","0","61","61","61","0","0","0","NA","0","0","2","0","0","0","2","61","61","61","61","61","Wed Oct 25 11:20:05 2017","Forced-choice identification task with a practice and an experimental phase","yes","NAP_GER_AA_4blocks_noglides.osexp","/Users/aviadalbert/Documents/Academisch/UoC/Dissertation/Experiment/OpenSesame/NAP-FC/NAP_GER_AA_4blocks_noglides","yes","no","sans","no","20","no","black","no","Weiter","yes","768","legacy","51","9","0","/Users/aviadalbert/Documents/Academisch/UoC/Dissertation/Experiment/OpenSesame/NAP-FC/NAP_GER_AA_4blocks_noglides/subject-15.csv","xpyriment","Jazzy James","3.1.9","yes","yes","59a800d99ad5a1025d81bb03","59a801616c613b0251691de0","no","no","0","f","f","space","NA","space","space","f","721","4020","17755","NA","17367","6297","721","2","legacy","1024","1","44100","-16","experiment","vlal","2","0","1","0","1","Englisch, Franzoesisch, Spanisch","15","","odd","6223734","6205449","NA","NA","6227755","6223730","NA","5339517","6223259","5339517","5339517","6141785","6159157","6365445","6363941","6366168","6176482","6165740","6205448","NA","6082834","6132837","6203793","6165524","6223734","6165744","NA","6365444","6365444","NA","NA","6363937","NAP perception","52","45690","52","yes","1024"
"100","yes","100","881.716981132","881.716981132","white","no","xpyriment","Ich habe die obigen Informationen gelesen und verstanden.","legacy","legacy","0","uniform","1","0","0","undefined","undefined","1","f","2","1","NA","0","1","0","0","0","0","0","0","0","0","62","62","62","0","0","0","NA","0","0","2","0","0","0","2","62","62","62","62","62","Wed Oct 25 11:20:05 2017","Forced-choice identification task with a practice and an experimental phase","yes","NAP_GER_AA_4blocks_noglides.osexp","/Users/aviadalbert/Documents/Academisch/UoC/Dissertation/Experiment/OpenSesame/NAP-FC/NAP_GER_AA_4blocks_noglides","yes","no","sans","no","20","no","black","no","Weiter","yes","768","legacy","52","9","0","/Users/aviadalbert/Documents/Academisch/UoC/Dissertation/Experiment/OpenSesame/NAP-FC/NAP_GER_AA_4blocks_noglides/subject-15.csv","xpyriment","Jazzy James","3.1.9","yes","yes","59a800d99ad5a1025d81bb03","59a801616c613b0251691de0","no","no","0","f","f","space","NA","space","space","f","1041","4020","17755","NA","17367","6297","1041","2","legacy","1024","1","44100","-16","experiment","flal","2","0","1","0","1","Englisch, Franzoesisch, Spanisch","15","","odd","6223734","6205449","NA","NA","6227755","6223730","NA","5339517","6223259","5339517","5339517","6141785","6159157","6367952","6366445","6368996","6176482","6165740","6205448","NA","6082834","6132837","6203793","6165524","6223734","6165744","NA","6367951","6367951","NA","NA","6366440","NAP perception","53","46731","53","yes","1024"
"100","yes","100","880.740740741","880.740740741","white","no","xpyriment","Ich habe die obigen Informationen gelesen und verstanden.","legacy","legacy","0","uniform","1","0","0","undefined","undefined","1","j","2","1","NA","0","1","0","0","0","0","0","0","0","0","63","63","63","0","0","0","NA","0","0","2","0","0","0","2","63","63","63","63","63","Wed Oct 25 11:20:05 2017","Forced-choice identification task with a practice and an experimental phase","yes","NAP_GER_AA_4blocks_noglides.osexp","/Users/aviadalbert/Documents/Academisch/UoC/Dissertation/Experiment/OpenSesame/NAP-FC/NAP_GER_AA_4blocks_noglides","yes","no","sans","no","20","no","black","no","Weiter","yes","768","legacy","53","9","0","/Users/aviadalbert/Documents/Academisch/UoC/Dissertation/Experiment/OpenSesame/NAP-FC/NAP_GER_AA_4blocks_noglides/subject-15.csv","xpyriment","Jazzy James","3.1.9","yes","yes","59a800d99ad5a1025d81bb03","59a801616c613b0251691de0","no","no","0","j","f","space","NA","space","space","j","829","4020","17755","NA","17367","6297","829","2","legacy","1024","1","44100","-16","experiment","nefal","2","0","1","0","1","Englisch, Franzoesisch, Spanisch","15","","odd","6223734","6205449","NA","NA","6227755","6223730","NA","5339517","6223259","5339517","5339517","6141785","6159157","6370767","6369262","6371598","6176482","6165740","6205448","NA","6082834","6132837","6203793","6165524","6223734","6165744","NA","6370766","6370766","NA","NA","6369258","NAP perception","54","47560","54","yes","1024"
"100","yes","100","884.909090909","884.909090909","white","no","xpyriment","Ich habe die obigen Informationen gelesen und verstanden.","legacy","legacy","0","uniform","1","0","0","undefined","undefined","1","f","2","1","NA","0","1","0","0","0","0","0","0","0","0","64","64","64","0","0","0","NA","0","0","2","0","0","0","2","64","64","64","64","64","Wed Oct 25 11:20:05 2017","Forced-choice identification task with a practice and an experimental phase","yes","NAP_GER_AA_4blocks_noglides.osexp","/Users/aviadalbert/Documents/Academisch/UoC/Dissertation/Experiment/OpenSesame/NAP-FC/NAP_GER_AA_4blocks_noglides","yes","no","sans","no","20","no","black","no","Weiter","yes","768","legacy","54","9","0","/Users/aviadalbert/Documents/Academisch/UoC/Dissertation/Experiment/OpenSesame/NAP-FC/NAP_GER_AA_4blocks_noglides/subject-15.csv","xpyriment","Jazzy James","3.1.9","yes","yes","59a800d99ad5a1025d81bb03","59a801616c613b0251691de0","no","no","0","f","f","space","NA","space","space","f","1110","4020","17755","NA","17367","6297","1110","2","legacy","1024","1","44100","-16","experiment","ʃmal","2","0","1","0","1","Englisch, Franzoesisch, Spanisch","15","","odd","6223734","6205449","NA","NA","6227755","6223730","NA","5339517","6223259","5339517","5339517","6141785","6159157","6373388","6371883","6374500","6176482","6165740","6205448","NA","6082834","6132837","6203793","6165524","6223734","6165744","NA","6373388","6373388","NA","NA","6371879","NAP perception","55","48670","55","yes","1024"
