"acc","accept_status","accuracy","average_response_time","avg_rt","background","bidi","canvas_backend","checkbox_status","clock_backend","color_backend","compensation","coordinates","correct","correct_block_activation","correct_block_exit","correct_instructions_1","correct_instructions_2","correct_keyboard_response","correct_response","count_block_activation","count_block_exit","count_block_info_QA","count_cont_e_block_message","count_e_block_loop","count_e_block_sequence","count_end_of_experiment","count_experiment","count_experimental_loop","count_form_consent","count_info_forms","count_instructions_1","count_instructions_2","count_keyboard_response","count_listen_message","count_logger","count_p_block_loop","count_p_block_sequence","count_p_feedback","count_pause_feedback","count_personal_details_form_1","count_personal_details_form_2","count_post_loop_blank","count_practice_loop","count_pre_e_block_message","count_pre_p_block_message","count_reset_feedback","count_stimulus_image","count_stimulus_sound","count_timeout_message","count_timeout_sound","count_trial_sequence","datetime","description","disable_garbage_collection","experiment_file","experiment_path","expyriment_opengl","font_bold","font_family","font_italic","font_size","font_underline","foreground","form_clicks","form_response","fullscreen","height","keyboard_backend","live_row","live_row_p_block_loop","live_row_practice_loop","logfile","mouse_backend","opensesame_codename","opensesame_version","osf_always_upload_data","osf_always_upload_experiment","osf_datanode_id","osf_id","practice","pygame_doublebuf","repeat_cycle","response","response_block_activation","response_block_exit","response_block_info_QA","response_instructions_1","response_instructions_2","response_keyboard_response","response_time","response_time_block_activation","response_time_block_exit","response_time_block_info_QA","response_time_instructions_1","response_time_instructions_2","response_time_keyboard_response","round_decimals","sampler_backend","sound_buf_size","sound_channels","sound_freq","sound_sample_size","start","stimulus","subject_age","subject_education","subject_gender","subject_german_native","subject_handedness","subject_language_other","subject_nr","subject_other_native_lang","subject_parity","time_block_activation","time_block_exit","time_block_info_QA","time_cont_e_block_message","time_e_block_loop","time_e_block_sequence","time_end_of_experiment","time_experiment","time_experimental_loop","time_form_consent","time_info_forms","time_instructions_1","time_instructions_2","time_keyboard_response","time_listen_message","time_logger","time_p_block_loop","time_p_block_sequence","time_p_feedback","time_pause_feedback","time_personal_details_form_1","time_personal_details_form_2","time_post_loop_blank","time_practice_loop","time_pre_e_block_message","time_pre_p_block_message","time_reset_feedback","time_stimulus_image","time_stimulus_sound","time_timeout_message","time_timeout_sound","time_trial_sequence","title","total_correct","total_response_time","total_responses","uniform_coordinates","width"
"100","yes","100","1106","1106","white","no","xpyriment","Ich habe die obigen Informationen gelesen und verstanden.","legacy","legacy","0","uniform","1","0","NA","undefined","undefined","1","f","0","0","NA","NA","NA","NA","NA","0","0","0","0","0","0","0","0","0","0","0","NA","NA","0","0","0","0","NA","0","0","0","0","0","0","0","Mon Nov  6 12:30:35 2017","Forced-choice identification task with a practice and an experimental phase","yes","NAP_GER_AA_4blocks_noglides.osexp","/Users/aviadalbert/Documents/Academisch/UoC/Dissertation/Experiment/OpenSesame/NAP-FC/NAP_GER_AA_4blocks_noglides","yes","no","sans","no","20","no","black","no","Weiter","yes","768","legacy","0","0","0","/Users/aviadalbert/Documents/Academisch/UoC/Dissertation/Experiment/OpenSesame/NAP-FC/NAP_GER_AA_4blocks_noglides/subject-45.csv","xpyriment","Jazzy James","3.1.9","yes","yes","59a800d99ad5a1025d81bb03","59a801616c613b0251691de0","yes","no","0","f","f","NA","NA","space","space","f","1106","3436","NA","NA","27739","26091","1106","2","legacy","1024","1","44100","-16","experiment","flal","2","1","0","0","1","ENG","45","","odd","2716346","NA","NA","NA","NA","NA","NA","2152945","NA","2152946","2152946","2662223","2689966","2721493","2719990","2722600","2719783","2716343","NA","NA","2610591","2650959","NA","2716121","NA","2716346","NA","2721493","2721493","NA","NA","2719987","NAP perception","1","1106","1","yes","1024"
"100","yes","100","1139.5","1139.5","white","no","xpyriment","Ich habe die obigen Informationen gelesen und verstanden.","legacy","legacy","0","uniform","1","0","NA","undefined","undefined","1","j","0","0","NA","NA","NA","NA","NA","0","0","0","0","0","0","1","1","1","0","0","NA","NA","0","0","0","0","NA","0","0","1","1","1","1","1","Mon Nov  6 12:30:35 2017","Forced-choice identification task with a practice and an experimental phase","yes","NAP_GER_AA_4blocks_noglides.osexp","/Users/aviadalbert/Documents/Academisch/UoC/Dissertation/Experiment/OpenSesame/NAP-FC/NAP_GER_AA_4blocks_noglides","yes","no","sans","no","20","no","black","no","Weiter","yes","768","legacy","1","1","0","/Users/aviadalbert/Documents/Academisch/UoC/Dissertation/Experiment/OpenSesame/NAP-FC/NAP_GER_AA_4blocks_noglides/subject-45.csv","xpyriment","Jazzy James","3.1.9","yes","yes","59a800d99ad5a1025d81bb03","59a801616c613b0251691de0","yes","no","0","j","f","NA","NA","space","space","j","1173","3436","NA","NA","27739","26091","1173","2","legacy","1024","1","44100","-16","experiment","lepal","2","1","0","0","1","ENG","45","","odd","2716346","NA","NA","NA","NA","NA","NA","2152945","NA","2152946","2152946","2662223","2689966","2724391","2722885","2725565","2719783","2716343","NA","NA","2610591","2650959","NA","2716121","NA","2716346","NA","2724391","2724391","NA","NA","2722881","NAP perception","2","2279","2","yes","1024"
"100","yes","100","1067.66666667","1067.66666667","white","no","xpyriment","Ich habe die obigen Informationen gelesen und verstanden.","legacy","legacy","0","uniform","1","0","NA","undefined","undefined","1","j","0","0","NA","NA","NA","NA","NA","0","0","0","0","0","0","2","2","2","0","0","NA","NA","0","0","0","0","NA","0","0","2","2","2","2","2","Mon Nov  6 12:30:35 2017","Forced-choice identification task with a practice and an experimental phase","yes","NAP_GER_AA_4blocks_noglides.osexp","/Users/aviadalbert/Documents/Academisch/UoC/Dissertation/Experiment/OpenSesame/NAP-FC/NAP_GER_AA_4blocks_noglides","yes","no","sans","no","20","no","black","no","Weiter","yes","768","legacy","2","2","0","/Users/aviadalbert/Documents/Academisch/UoC/Dissertation/Experiment/OpenSesame/NAP-FC/NAP_GER_AA_4blocks_noglides/subject-45.csv","xpyriment","Jazzy James","3.1.9","yes","yes","59a800d99ad5a1025d81bb03","59a801616c613b0251691de0","yes","no","0","j","f","NA","NA","space","space","j","924","3436","NA","NA","27739","26091","924","2","legacy","1024","1","44100","-16","experiment","emtal","2","1","0","0","1","ENG","45","","odd","2716346","NA","NA","NA","NA","NA","NA","2152945","NA","2152946","2152946","2662223","2689966","2727351","2725847","2728276","2719783","2716343","NA","NA","2610591","2650959","NA","2716121","NA","2716346","NA","2727350","2727351","NA","NA","2725843","NAP perception","3","3203","3","yes","1024"
"100","yes","100","1023","1023","white","no","xpyriment","Ich habe die obigen Informationen gelesen und verstanden.","legacy","legacy","0","uniform","1","0","NA","undefined","undefined","1","f","0","0","NA","NA","NA","NA","NA","0","0","0","0","0","0","3","3","3","0","0","NA","NA","0","0","0","0","NA","0","0","3","3","3","3","3","Mon Nov  6 12:30:35 2017","Forced-choice identification task with a practice and an experimental phase","yes","NAP_GER_AA_4blocks_noglides.osexp","/Users/aviadalbert/Documents/Academisch/UoC/Dissertation/Experiment/OpenSesame/NAP-FC/NAP_GER_AA_4blocks_noglides","yes","no","sans","no","20","no","black","no","Weiter","yes","768","legacy","3","3","0","/Users/aviadalbert/Documents/Academisch/UoC/Dissertation/Experiment/OpenSesame/NAP-FC/NAP_GER_AA_4blocks_noglides/subject-45.csv","xpyriment","Jazzy James","3.1.9","yes","yes","59a800d99ad5a1025d81bb03","59a801616c613b0251691de0","yes","no","0","f","f","NA","NA","space","space","f","889","3436","NA","NA","27739","26091","889","2","legacy","1024","1","44100","-16","experiment","ʃpal","2","1","0","0","1","ENG","45","","odd","2716346","NA","NA","NA","NA","NA","NA","2152945","NA","2152946","2152946","2662223","2689966","2730073","2728569","2730964","2719783","2716343","NA","NA","2610591","2650959","NA","2716121","NA","2716346","NA","2730073","2730073","NA","NA","2728564","NAP perception","4","4092","4","yes","1024"
"100","yes","100","989.4","989.4","white","no","xpyriment","Ich habe die obigen Informationen gelesen und verstanden.","legacy","legacy","0","uniform","1","0","NA","undefined","undefined","1","j","0","0","NA","NA","NA","NA","NA","0","0","0","0","0","0","4","4","4","0","0","NA","NA","0","0","0","0","NA","0","0","4","4","4","4","4","Mon Nov  6 12:30:35 2017","Forced-choice identification task with a practice and an experimental phase","yes","NAP_GER_AA_4blocks_noglides.osexp","/Users/aviadalbert/Documents/Academisch/UoC/Dissertation/Experiment/OpenSesame/NAP-FC/NAP_GER_AA_4blocks_noglides","yes","no","sans","no","20","no","black","no","Weiter","yes","768","legacy","4","4","0","/Users/aviadalbert/Documents/Academisch/UoC/Dissertation/Experiment/OpenSesame/NAP-FC/NAP_GER_AA_4blocks_noglides/subject-45.csv","xpyriment","Jazzy James","3.1.9","yes","yes","59a800d99ad5a1025d81bb03","59a801616c613b0251691de0","yes","no","0","j","f","NA","NA","space","space","j","855","3436","NA","NA","27739","26091","855","2","legacy","1024","1","44100","-16","experiment","nefal","2","1","0","0","1","ENG","45","","odd","2716346","NA","NA","NA","NA","NA","NA","2152945","NA","2152946","2152946","2662223","2689966","2732762","2731258","2733618","2719783","2716343","NA","NA","2610591","2650959","NA","2716121","NA","2716346","NA","2732762","2732762","NA","NA","2731254","NAP perception","5","4947","5","yes","1024"
"100","yes","100","955.166666667","955.166666667","white","no","xpyriment","Ich habe die obigen Informationen gelesen und verstanden.","legacy","legacy","0","uniform","1","0","NA","undefined","undefined","1","f","0","0","NA","NA","NA","NA","NA","0","0","0","0","0","0","5","5","5","0","0","NA","NA","0","0","0","0","NA","0","0","5","5","5","5","5","Mon Nov  6 12:30:35 2017","Forced-choice identification task with a practice and an experimental phase","yes","NAP_GER_AA_4blocks_noglides.osexp","/Users/aviadalbert/Documents/Academisch/UoC/Dissertation/Experiment/OpenSesame/NAP-FC/NAP_GER_AA_4blocks_noglides","yes","no","sans","no","20","no","black","no","Weiter","yes","768","legacy","5","5","0","/Users/aviadalbert/Documents/Academisch/UoC/Dissertation/Experiment/OpenSesame/NAP-FC/NAP_GER_AA_4blocks_noglides/subject-45.csv","xpyriment","Jazzy James","3.1.9","yes","yes","59a800d99ad5a1025d81bb03","59a801616c613b0251691de0","yes","no","0","f","f","NA","NA","space","space","f","784","3436","NA","NA","27739","26091","784","2","legacy","1024","1","44100","-16","experiment","sfal","2","1","0","0","1","ENG","45","","odd","2716346","NA","NA","NA","NA","NA","NA","2152945","NA","2152946","2152946","2662223","2689966","2735412","2733907","2736197","2719783","2716343","NA","NA","2610591","2650959","NA","2716121","NA","2716346","NA","2735412","2735412","NA","NA","2733903","NAP perception","6","5731","6","yes","1024"
"100","yes","100","1014","1014","white","no","xpyriment","Ich habe die obigen Informationen gelesen und verstanden.","legacy","legacy","0","uniform","1","0","NA","undefined","undefined","1","f","0","0","NA","NA","NA","NA","NA","0","0","0","0","0","0","6","6","6","0","0","NA","NA","0","0","0","0","NA","0","0","6","6","6","6","6","Mon Nov  6 12:30:35 2017","Forced-choice identification task with a practice and an experimental phase","yes","NAP_GER_AA_4blocks_noglides.osexp","/Users/aviadalbert/Documents/Academisch/UoC/Dissertation/Experiment/OpenSesame/NAP-FC/NAP_GER_AA_4blocks_noglides","yes","no","sans","no","20","no","black","no","Weiter","yes","768","legacy","6","6","0","/Users/aviadalbert/Documents/Academisch/UoC/Dissertation/Experiment/OpenSesame/NAP-FC/NAP_GER_AA_4blocks_noglides/subject-45.csv","xpyriment","Jazzy James","3.1.9","yes","yes","59a800d99ad5a1025d81bb03","59a801616c613b0251691de0","yes","no","0","f","f","NA","NA","space","space","f","1367","3436","NA","NA","27739","26091","1367","2","legacy","1024","1","44100","-16","experiment","zmal","2","1","0","0","1","ENG","45","","odd","2716346","NA","NA","NA","NA","NA","NA","2152945","NA","2152946","2152946","2662223","2689966","2737992","2736485","2739360","2719783","2716343","NA","NA","2610591","2650959","NA","2716121","NA","2716346","NA","2737992","2737992","NA","NA","2736481","NAP perception","7","7098","7","yes","1024"
"100","yes","100","1017.25","1017.25","white","no","xpyriment","Ich habe die obigen Informationen gelesen und verstanden.","legacy","legacy","0","uniform","1","0","NA","undefined","undefined","1","j","0","0","NA","NA","NA","NA","NA","0","0","0","0","0","0","7","7","7","0","0","NA","NA","0","0","0","0","NA","0","0","7","7","7","7","7","Mon Nov  6 12:30:35 2017","Forced-choice identification task with a practice and an experimental phase","yes","NAP_GER_AA_4blocks_noglides.osexp","/Users/aviadalbert/Documents/Academisch/UoC/Dissertation/Experiment/OpenSesame/NAP-FC/NAP_GER_AA_4blocks_noglides","yes","no","sans","no","20","no","black","no","Weiter","yes","768","legacy","7","7","0","/Users/aviadalbert/Documents/Academisch/UoC/Dissertation/Experiment/OpenSesame/NAP-FC/NAP_GER_AA_4blocks_noglides/subject-45.csv","xpyriment","Jazzy James","3.1.9","yes","yes","59a800d99ad5a1025d81bb03","59a801616c613b0251691de0","yes","no","0","j","f","NA","NA","space","space","j","1040","3436","NA","NA","27739","26091","1040","2","legacy","1024","1","44100","-16","experiment","mesal","2","1","0","0","1","ENG","45","","odd","2716346","NA","NA","NA","NA","NA","NA","2152945","NA","2152946","2152946","2662223","2689966","2741149","2739645","2742190","2719783","2716343","NA","NA","2610591","2650959","NA","2716121","NA","2716346","NA","2741149","2741149","NA","NA","2739641","NAP perception","8","8138","8","yes","1024"
"100","yes","100","1000.88888889","1000.88888889","white","no","xpyriment","Ich habe die obigen Informationen gelesen und verstanden.","legacy","legacy","0","uniform","1","0","NA","undefined","undefined","1","j","0","0","NA","NA","NA","NA","NA","0","0","0","0","0","0","8","8","8","0","0","NA","NA","0","0","0","0","NA","0","0","8","8","8","8","8","Mon Nov  6 12:30:35 2017","Forced-choice identification task with a practice and an experimental phase","yes","NAP_GER_AA_4blocks_noglides.osexp","/Users/aviadalbert/Documents/Academisch/UoC/Dissertation/Experiment/OpenSesame/NAP-FC/NAP_GER_AA_4blocks_noglides","yes","no","sans","no","20","no","black","no","Weiter","yes","768","legacy","8","8","0","/Users/aviadalbert/Documents/Academisch/UoC/Dissertation/Experiment/OpenSesame/NAP-FC/NAP_GER_AA_4blocks_noglides/subject-45.csv","xpyriment","Jazzy James","3.1.9","yes","yes","59a800d99ad5a1025d81bb03","59a801616c613b0251691de0","yes","no","0","j","f","NA","NA","space","space","j","870","3436","NA","NA","27739","26091","870","2","legacy","1024","1","44100","-16","experiment","enval","2","1","0","0","1","ENG","45","","odd","2716346","NA","NA","NA","NA","NA","NA","2152945","NA","2152946","2152946","2662223","2689966","2743971","2742465","2744842","2719783","2716343","NA","NA","2610591","2650959","NA","2716121","NA","2716346","NA","2743970","2743971","NA","NA","2742461","NAP perception","9","9008","9","yes","1024"
"100","yes","100","999.2","999.2","white","no","xpyriment","Ich habe die obigen Informationen gelesen und verstanden.","legacy","legacy","0","uniform","1","0","NA","undefined","undefined","1","f","0","0","NA","NA","NA","NA","NA","0","0","0","0","0","0","9","9","9","0","0","NA","NA","0","0","0","0","NA","0","0","9","9","9","9","9","Mon Nov  6 12:30:35 2017","Forced-choice identification task with a practice and an experimental phase","yes","NAP_GER_AA_4blocks_noglides.osexp","/Users/aviadalbert/Documents/Academisch/UoC/Dissertation/Experiment/OpenSesame/NAP-FC/NAP_GER_AA_4blocks_noglides","yes","no","sans","no","20","no","black","no","Weiter","yes","768","legacy","9","9","0","/Users/aviadalbert/Documents/Academisch/UoC/Dissertation/Experiment/OpenSesame/NAP-FC/NAP_GER_AA_4blocks_noglides/subject-45.csv","xpyriment","Jazzy James","3.1.9","yes","yes","59a800d99ad5a1025d81bb03","59a801616c613b0251691de0","yes","no","0","f","f","NA","NA","space","space","f","984","3436","NA","NA","27739","26091","984","2","legacy","1024","1","44100","-16","experiment","vlal","2","1","0","0","1","ENG","45","","odd","2716346","NA","NA","NA","NA","NA","NA","2152945","NA","2152946","2152946","2662223","2689966","2746625","2745121","2747610","2719783","2716343","NA","NA","2610591","2650959","NA","2716121","NA","2716346","NA","2746624","2746625","NA","NA","2745116","NAP perception","10","9992","10","yes","1024"
"0","yes","0","820","820","white","no","xpyriment","Ich habe die obigen Informationen gelesen und verstanden.","legacy","legacy","0","uniform","0","0","0","undefined","undefined","0","j","2","1","NA","0","1","0","0","0","0","0","0","0","0","10","10","10","0","0","0","NA","0","0","2","0","0","0","2","10","10","10","10","10","Mon Nov  6 12:30:35 2017","Forced-choice identification task with a practice and an experimental phase","yes","NAP_GER_AA_4blocks_noglides.osexp","/Users/aviadalbert/Documents/Academisch/UoC/Dissertation/Experiment/OpenSesame/NAP-FC/NAP_GER_AA_4blocks_noglides","yes","no","sans","no","20","no","black","no","Weiter","yes","768","legacy","0","9","0","/Users/aviadalbert/Documents/Academisch/UoC/Dissertation/Experiment/OpenSesame/NAP-FC/NAP_GER_AA_4blocks_noglides/subject-45.csv","xpyriment","Jazzy James","3.1.9","yes","yes","59a800d99ad5a1025d81bb03","59a801616c613b0251691de0","no","no","0","f","f","space","NA","space","space","f","820","1662","37680","NA","27739","26091","820","2","legacy","1024","1","44100","-16","experiment","nemal","2","1","0","0","1","ENG","45","","odd","2787575","2749330","NA","NA","2789238","2787571","NA","2152945","2787070","2152946","2152946","2662223","2689966","2790978","2789471","2791799","2719783","2716343","2749330","NA","2610591","2650959","2747672","2716121","2787574","2716346","NA","2790978","2790978","NA","NA","2789467","NAP perception","0","820","1","yes","1024"
"50","yes","50","927","927","white","no","xpyriment","Ich habe die obigen Informationen gelesen und verstanden.","legacy","legacy","0","uniform","1","0","0","undefined","undefined","1","f","2","1","NA","0","1","0","0","0","0","0","0","0","0","11","11","11","0","0","0","NA","0","0","2","0","0","0","2","11","11","11","11","11","Mon Nov  6 12:30:35 2017","Forced-choice identification task with a practice and an experimental phase","yes","NAP_GER_AA_4blocks_noglides.osexp","/Users/aviadalbert/Documents/Academisch/UoC/Dissertation/Experiment/OpenSesame/NAP-FC/NAP_GER_AA_4blocks_noglides","yes","no","sans","no","20","no","black","no","Weiter","yes","768","legacy","1","9","0","/Users/aviadalbert/Documents/Academisch/UoC/Dissertation/Experiment/OpenSesame/NAP-FC/NAP_GER_AA_4blocks_noglides/subject-45.csv","xpyriment","Jazzy James","3.1.9","yes","yes","59a800d99ad5a1025d81bb03","59a801616c613b0251691de0","no","no","0","f","f","space","NA","space","space","f","1034","1662","37680","NA","27739","26091","1034","2","legacy","1024","1","44100","-16","experiment","nmal","2","1","0","0","1","ENG","45","","odd","2787575","2749330","NA","NA","2789238","2787571","NA","2152945","2787070","2152946","2152946","2662223","2689966","2793594","2792088","2794629","2719783","2716343","2749330","NA","2610591","2650959","2747672","2716121","2787574","2716346","NA","2793594","2793594","NA","NA","2792084","NAP perception","1","1854","2","yes","1024"
"66.6666666667","yes","66.6666666667","907","907","white","no","xpyriment","Ich habe die obigen Informationen gelesen und verstanden.","legacy","legacy","0","uniform","1","0","0","undefined","undefined","1","j","2","1","NA","0","1","0","0","0","0","0","0","0","0","12","12","12","0","0","0","NA","0","0","2","0","0","0","2","12","12","12","12","12","Mon Nov  6 12:30:35 2017","Forced-choice identification task with a practice and an experimental phase","yes","NAP_GER_AA_4blocks_noglides.osexp","/Users/aviadalbert/Documents/Academisch/UoC/Dissertation/Experiment/OpenSesame/NAP-FC/NAP_GER_AA_4blocks_noglides","yes","no","sans","no","20","no","black","no","Weiter","yes","768","legacy","2","9","0","/Users/aviadalbert/Documents/Academisch/UoC/Dissertation/Experiment/OpenSesame/NAP-FC/NAP_GER_AA_4blocks_noglides/subject-45.csv","xpyriment","Jazzy James","3.1.9","yes","yes","59a800d99ad5a1025d81bb03","59a801616c613b0251691de0","no","no","0","j","f","space","NA","space","space","j","867","1662","37680","NA","27739","26091","867","2","legacy","1024","1","44100","-16","experiment","ʃepal","2","1","0","0","1","ENG","45","","odd","2787575","2749330","NA","NA","2789238","2787571","NA","2152945","2787070","2152946","2152946","2662223","2689966","2796426","2794920","2797294","2719783","2716343","2749330","NA","2610591","2650959","2747672","2716121","2787574","2716346","NA","2796425","2796425","NA","NA","2794916","NAP perception","2","2721","3","yes","1024"
"75","yes","75","906","906","white","no","xpyriment","Ich habe die obigen Informationen gelesen und verstanden.","legacy","legacy","0","uniform","1","0","0","undefined","undefined","1","j","2","1","NA","0","1","0","0","0","0","0","0","0","0","13","13","13","0","0","0","NA","0","0","2","0","0","0","2","13","13","13","13","13","Mon Nov  6 12:30:35 2017","Forced-choice identification task with a practice and an experimental phase","yes","NAP_GER_AA_4blocks_noglides.osexp","/Users/aviadalbert/Documents/Academisch/UoC/Dissertation/Experiment/OpenSesame/NAP-FC/NAP_GER_AA_4blocks_noglides","yes","no","sans","no","20","no","black","no","Weiter","yes","768","legacy","3","9","0","/Users/aviadalbert/Documents/Academisch/UoC/Dissertation/Experiment/OpenSesame/NAP-FC/NAP_GER_AA_4blocks_noglides/subject-45.csv","xpyriment","Jazzy James","3.1.9","yes","yes","59a800d99ad5a1025d81bb03","59a801616c613b0251691de0","no","no","0","j","f","space","NA","space","space","j","903","1662","37680","NA","27739","26091","903","2","legacy","1024","1","44100","-16","experiment","esmal","2","1","0","0","1","ENG","45","","odd","2787575","2749330","NA","NA","2789238","2787571","NA","2152945","2787070","2152946","2152946","2662223","2689966","2799089","2797586","2799993","2719783","2716343","2749330","NA","2610591","2650959","2747672","2716121","2787574","2716346","NA","2799089","2799089","NA","NA","2797582","NAP perception","3","3624","4","yes","1024"
"80","yes","80","893.4","893.4","white","no","xpyriment","Ich habe die obigen Informationen gelesen und verstanden.","legacy","legacy","0","uniform","1","0","0","undefined","undefined","1","f","2","1","NA","0","1","0","0","0","0","0","0","0","0","14","14","14","0","0","0","NA","0","0","2","0","0","0","2","14","14","14","14","14","Mon Nov  6 12:30:35 2017","Forced-choice identification task with a practice and an experimental phase","yes","NAP_GER_AA_4blocks_noglides.osexp","/Users/aviadalbert/Documents/Academisch/UoC/Dissertation/Experiment/OpenSesame/NAP-FC/NAP_GER_AA_4blocks_noglides","yes","no","sans","no","20","no","black","no","Weiter","yes","768","legacy","4","9","0","/Users/aviadalbert/Documents/Academisch/UoC/Dissertation/Experiment/OpenSesame/NAP-FC/NAP_GER_AA_4blocks_noglides/subject-45.csv","xpyriment","Jazzy James","3.1.9","yes","yes","59a800d99ad5a1025d81bb03","59a801616c613b0251691de0","no","no","0","f","f","space","NA","space","space","f","843","1662","37680","NA","27739","26091","843","2","legacy","1024","1","44100","-16","experiment","sfal","2","1","0","0","1","ENG","45","","odd","2787575","2749330","NA","NA","2789238","2787571","NA","2152945","2787070","2152946","2152946","2662223","2689966","2801778","2800272","2802623","2719783","2716343","2749330","NA","2610591","2650959","2747672","2716121","2787574","2716346","NA","2801778","2801778","NA","NA","2800268","NAP perception","4","4467","5","yes","1024"
"83.3333333333","yes","83.3333333333","886.833333333","886.833333333","white","no","xpyriment","Ich habe die obigen Informationen gelesen und verstanden.","legacy","legacy","0","uniform","1","0","0","undefined","undefined","1","j","2","1","NA","0","1","0","0","0","0","0","0","0","0","15","15","15","0","0","0","NA","0","0","2","0","0","0","2","15","15","15","15","15","Mon Nov  6 12:30:35 2017","Forced-choice identification task with a practice and an experimental phase","yes","NAP_GER_AA_4blocks_noglides.osexp","/Users/aviadalbert/Documents/Academisch/UoC/Dissertation/Experiment/OpenSesame/NAP-FC/NAP_GER_AA_4blocks_noglides","yes","no","sans","no","20","no","black","no","Weiter","yes","768","legacy","5","9","0","/Users/aviadalbert/Documents/Academisch/UoC/Dissertation/Experiment/OpenSesame/NAP-FC/NAP_GER_AA_4blocks_noglides/subject-45.csv","xpyriment","Jazzy James","3.1.9","yes","yes","59a800d99ad5a1025d81bb03","59a801616c613b0251691de0","no","no","0","j","f","space","NA","space","space","j","854","1662","37680","NA","27739","26091","854","2","legacy","1024","1","44100","-16","experiment","elmal","2","1","0","0","1","ENG","45","","odd","2787575","2749330","NA","NA","2789238","2787571","NA","2152945","2787070","2152946","2152946","2662223","2689966","2804410","2802905","2805265","2719783","2716343","2749330","NA","2610591","2650959","2747672","2716121","2787574","2716346","NA","2804409","2804410","NA","NA","2802901","NAP perception","5","5321","6","yes","1024"
"85.7142857143","yes","85.7142857143","881.857142857","881.857142857","white","no","xpyriment","Ich habe die obigen Informationen gelesen und verstanden.","legacy","legacy","0","uniform","1","0","0","undefined","undefined","1","j","2","1","NA","0","1","0","0","0","0","0","0","0","0","16","16","16","0","0","0","NA","0","0","2","0","0","0","2","16","16","16","16","16","Mon Nov  6 12:30:35 2017","Forced-choice identification task with a practice and an experimental phase","yes","NAP_GER_AA_4blocks_noglides.osexp","/Users/aviadalbert/Documents/Academisch/UoC/Dissertation/Experiment/OpenSesame/NAP-FC/NAP_GER_AA_4blocks_noglides","yes","no","sans","no","20","no","black","no","Weiter","yes","768","legacy","6","9","0","/Users/aviadalbert/Documents/Academisch/UoC/Dissertation/Experiment/OpenSesame/NAP-FC/NAP_GER_AA_4blocks_noglides/subject-45.csv","xpyriment","Jazzy James","3.1.9","yes","yes","59a800d99ad5a1025d81bb03","59a801616c613b0251691de0","no","no","0","j","f","space","NA","space","space","j","852","1662","37680","NA","27739","26091","852","2","legacy","1024","1","44100","-16","experiment","enval","2","1","0","0","1","ENG","45","","odd","2787575","2749330","NA","NA","2789238","2787571","NA","2152945","2787070","2152946","2152946","2662223","2689966","2807061","2805557","2807915","2719783","2716343","2749330","NA","2610591","2650959","2747672","2716121","2787574","2716346","NA","2807061","2807061","NA","NA","2805554","NAP perception","6","6173","7","yes","1024"
"87.5","yes","87.5","942.125","942.125","white","no","xpyriment","Ich habe die obigen Informationen gelesen und verstanden.","legacy","legacy","0","uniform","1","0","0","undefined","undefined","1","j","2","1","NA","0","1","0","0","0","0","0","0","0","0","17","17","17","0","0","0","NA","0","0","2","0","0","0","2","17","17","17","17","17","Mon Nov  6 12:30:35 2017","Forced-choice identification task with a practice and an experimental phase","yes","NAP_GER_AA_4blocks_noglides.osexp","/Users/aviadalbert/Documents/Academisch/UoC/Dissertation/Experiment/OpenSesame/NAP-FC/NAP_GER_AA_4blocks_noglides","yes","no","sans","no","20","no","black","no","Weiter","yes","768","legacy","7","9","0","/Users/aviadalbert/Documents/Academisch/UoC/Dissertation/Experiment/OpenSesame/NAP-FC/NAP_GER_AA_4blocks_noglides/subject-45.csv","xpyriment","Jazzy James","3.1.9","yes","yes","59a800d99ad5a1025d81bb03","59a801616c613b0251691de0","no","no","0","j","f","space","NA","space","space","j","1364","1662","37680","NA","27739","26091","1364","2","legacy","1024","1","44100","-16","experiment","neval","2","1","0","0","1","ENG","45","","odd","2787575","2749330","NA","NA","2789238","2787571","NA","2152945","2787070","2152946","2152946","2662223","2689966","2809698","2808194","2811063","2719783","2716343","2749330","NA","2610591","2650959","2747672","2716121","2787574","2716346","NA","2809697","2809698","NA","NA","2808190","NAP perception","7","7537","8","yes","1024"
"88.8888888889","yes","88.8888888889","992.777777778","992.777777778","white","no","xpyriment","Ich habe die obigen Informationen gelesen und verstanden.","legacy","legacy","0","uniform","1","0","0","undefined","undefined","1","f","2","1","NA","0","1","0","0","0","0","0","0","0","0","18","18","18","0","0","0","NA","0","0","2","0","0","0","2","18","18","18","18","18","Mon Nov  6 12:30:35 2017","Forced-choice identification task with a practice and an experimental phase","yes","NAP_GER_AA_4blocks_noglides.osexp","/Users/aviadalbert/Documents/Academisch/UoC/Dissertation/Experiment/OpenSesame/NAP-FC/NAP_GER_AA_4blocks_noglides","yes","no","sans","no","20","no","black","no","Weiter","yes","768","legacy","8","9","0","/Users/aviadalbert/Documents/Academisch/UoC/Dissertation/Experiment/OpenSesame/NAP-FC/NAP_GER_AA_4blocks_noglides/subject-45.csv","xpyriment","Jazzy James","3.1.9","yes","yes","59a800d99ad5a1025d81bb03","59a801616c613b0251691de0","no","no","0","f","f","space","NA","space","space","f","1398","1662","37680","NA","27739","26091","1398","2","legacy","1024","1","44100","-16","experiment","mlal","2","1","0","0","1","ENG","45","","odd","2787575","2749330","NA","NA","2789238","2787571","NA","2152945","2787070","2152946","2152946","2662223","2689966","2812849","2811342","2814248","2719783","2716343","2749330","NA","2610591","2650959","2747672","2716121","2787574","2716346","NA","2812849","2812849","NA","NA","2811338","NAP perception","8","8935","9","yes","1024"
"90","yes","90","1113.3","1113.3","white","no","xpyriment","Ich habe die obigen Informationen gelesen und verstanden.","legacy","legacy","0","uniform","1","0","0","undefined","undefined","1","f","2","1","NA","0","1","0","0","0","0","0","0","0","0","19","19","19","0","0","0","NA","0","0","2","0","0","0","2","19","19","19","19","19","Mon Nov  6 12:30:35 2017","Forced-choice identification task with a practice and an experimental phase","yes","NAP_GER_AA_4blocks_noglides.osexp","/Users/aviadalbert/Documents/Academisch/UoC/Dissertation/Experiment/OpenSesame/NAP-FC/NAP_GER_AA_4blocks_noglides","yes","no","sans","no","20","no","black","no","Weiter","yes","768","legacy","9","9","0","/Users/aviadalbert/Documents/Academisch/UoC/Dissertation/Experiment/OpenSesame/NAP-FC/NAP_GER_AA_4blocks_noglides/subject-45.csv","xpyriment","Jazzy James","3.1.9","yes","yes","59a800d99ad5a1025d81bb03","59a801616c613b0251691de0","no","no","0","f","f","space","NA","space","space","f","2198","1662","37680","NA","27739","26091","2198","2","legacy","1024","1","44100","-16","experiment","lval","2","1","0","0","1","ENG","45","","odd","2787575","2749330","NA","NA","2789238","2787571","NA","2152945","2787070","2152946","2152946","2662223","2689966","2816045","2814539","2818244","2719783","2716343","2749330","NA","2610591","2650959","2747672","2716121","2787574","2716346","NA","2816045","2816045","NA","NA","2814535","NAP perception","9","11133","10","yes","1024"
"90.9090909091","yes","90.9090909091","1103.90909091","1103.90909091","white","no","xpyriment","Ich habe die obigen Informationen gelesen und verstanden.","legacy","legacy","0","uniform","1","0","0","undefined","undefined","1","f","2","1","NA","0","1","0","0","0","0","0","0","0","0","20","20","20","0","0","0","NA","0","0","2","0","0","0","2","20","20","20","20","20","Mon Nov  6 12:30:35 2017","Forced-choice identification task with a practice and an experimental phase","yes","NAP_GER_AA_4blocks_noglides.osexp","/Users/aviadalbert/Documents/Academisch/UoC/Dissertation/Experiment/OpenSesame/NAP-FC/NAP_GER_AA_4blocks_noglides","yes","no","sans","no","20","no","black","no","Weiter","yes","768","legacy","10","9","0","/Users/aviadalbert/Documents/Academisch/UoC/Dissertation/Experiment/OpenSesame/NAP-FC/NAP_GER_AA_4blocks_noglides/subject-45.csv","xpyriment","Jazzy James","3.1.9","yes","yes","59a800d99ad5a1025d81bb03","59a801616c613b0251691de0","no","no","0","f","f","space","NA","space","space","f","1010","1662","37680","NA","27739","26091","1010","2","legacy","1024","1","44100","-16","experiment","ʃpal","2","1","0","0","1","ENG","45","","odd","2787575","2749330","NA","NA","2789238","2787571","NA","2152945","2787070","2152946","2152946","2662223","2689966","2820041","2818538","2821052","2719783","2716343","2749330","NA","2610591","2650959","2747672","2716121","2787574","2716346","NA","2820041","2820041","NA","NA","2818534","NAP perception","10","12143","11","yes","1024"
"91.6666666667","yes","91.6666666667","1077.25","1077.25","white","no","xpyriment","Ich habe die obigen Informationen gelesen und verstanden.","legacy","legacy","0","uniform","1","0","0","undefined","undefined","1","f","2","1","NA","0","1","0","0","0","0","0","0","0","0","21","21","21","0","0","0","NA","0","0","2","0","0","0","2","21","21","21","21","21","Mon Nov  6 12:30:35 2017","Forced-choice identification task with a practice and an experimental phase","yes","NAP_GER_AA_4blocks_noglides.osexp","/Users/aviadalbert/Documents/Academisch/UoC/Dissertation/Experiment/OpenSesame/NAP-FC/NAP_GER_AA_4blocks_noglides","yes","no","sans","no","20","no","black","no","Weiter","yes","768","legacy","11","9","0","/Users/aviadalbert/Documents/Academisch/UoC/Dissertation/Experiment/OpenSesame/NAP-FC/NAP_GER_AA_4blocks_noglides/subject-45.csv","xpyriment","Jazzy James","3.1.9","yes","yes","59a800d99ad5a1025d81bb03","59a801616c613b0251691de0","no","no","0","f","f","space","NA","space","space","f","784","1662","37680","NA","27739","26091","784","2","legacy","1024","1","44100","-16","experiment","zval","2","1","0","0","1","ENG","45","","odd","2787575","2749330","NA","NA","2789238","2787571","NA","2152945","2787070","2152946","2152946","2662223","2689966","2822860","2821352","2823645","2719783","2716343","2749330","NA","2610591","2650959","2747672","2716121","2787574","2716346","NA","2822860","2822860","NA","NA","2821348","NAP perception","11","12927","12","yes","1024"
"84.6153846154","yes","84.6153846154","1127.61538462","1127.61538462","white","no","xpyriment","Ich habe die obigen Informationen gelesen und verstanden.","legacy","legacy","0","uniform","0","0","0","undefined","undefined","0","f","2","1","NA","0","1","0","0","0","0","0","0","0","0","22","22","22","0","0","0","NA","0","0","2","0","0","0","2","22","22","22","22","22","Mon Nov  6 12:30:35 2017","Forced-choice identification task with a practice and an experimental phase","yes","NAP_GER_AA_4blocks_noglides.osexp","/Users/aviadalbert/Documents/Academisch/UoC/Dissertation/Experiment/OpenSesame/NAP-FC/NAP_GER_AA_4blocks_noglides","yes","no","sans","no","20","no","black","no","Weiter","yes","768","legacy","12","9","0","/Users/aviadalbert/Documents/Academisch/UoC/Dissertation/Experiment/OpenSesame/NAP-FC/NAP_GER_AA_4blocks_noglides/subject-45.csv","xpyriment","Jazzy James","3.1.9","yes","yes","59a800d99ad5a1025d81bb03","59a801616c613b0251691de0","no","no","0","j","f","space","NA","space","space","j","1732","1662","37680","NA","27739","26091","1732","2","legacy","1024","1","44100","-16","experiment","lpal","2","1","0","0","1","ENG","45","","odd","2787575","2749330","NA","NA","2789238","2787571","NA","2152945","2787070","2152946","2152946","2662223","2689966","2825441","2823936","2827175","2719783","2716343","2749330","NA","2610591","2650959","2747672","2716121","2787574","2716346","NA","2825441","2825441","NA","NA","2823932","NAP perception","11","14659","13","yes","1024"
"78.5714285714","yes","78.5714285714","1122.07142857","1122.07142857","white","no","xpyriment","Ich habe die obigen Informationen gelesen und verstanden.","legacy","legacy","0","uniform","0","0","0","undefined","undefined","0","f","2","1","NA","0","1","0","0","0","0","0","0","0","0","23","23","23","0","0","0","NA","0","0","2","0","0","0","2","23","23","23","23","23","Mon Nov  6 12:30:35 2017","Forced-choice identification task with a practice and an experimental phase","yes","NAP_GER_AA_4blocks_noglides.osexp","/Users/aviadalbert/Documents/Academisch/UoC/Dissertation/Experiment/OpenSesame/NAP-FC/NAP_GER_AA_4blocks_noglides","yes","no","sans","no","20","no","black","no","Weiter","yes","768","legacy","13","9","0","/Users/aviadalbert/Documents/Academisch/UoC/Dissertation/Experiment/OpenSesame/NAP-FC/NAP_GER_AA_4blocks_noglides/subject-45.csv","xpyriment","Jazzy James","3.1.9","yes","yes","59a800d99ad5a1025d81bb03","59a801616c613b0251691de0","no","no","0","j","f","space","NA","space","space","j","1050","1662","37680","NA","27739","26091","1050","2","legacy","1024","1","44100","-16","experiment","lpal","2","1","0","0","1","ENG","45","","odd","2787575","2749330","NA","NA","2789238","2787571","NA","2152945","2787070","2152946","2152946","2662223","2689966","2828963","2827458","2830015","2719783","2716343","2749330","NA","2610591","2650959","2747672","2716121","2787574","2716346","NA","2828963","2828963","NA","NA","2827454","NAP perception","11","15709","14","yes","1024"
"73.3333333333","yes","73.3333333333","1243.53333333","1243.53333333","white","no","xpyriment","Ich habe die obigen Informationen gelesen und verstanden.","legacy","legacy","0","uniform","0","0","0","undefined","undefined","0","f","2","1","NA","0","1","0","0","0","0","0","0","0","0","24","24","24","0","0","0","NA","0","0","2","0","0","0","2","24","24","24","24","24","Mon Nov  6 12:30:35 2017","Forced-choice identification task with a practice and an experimental phase","yes","NAP_GER_AA_4blocks_noglides.osexp","/Users/aviadalbert/Documents/Academisch/UoC/Dissertation/Experiment/OpenSesame/NAP-FC/NAP_GER_AA_4blocks_noglides","yes","no","sans","no","20","no","black","no","Weiter","yes","768","legacy","14","9","0","/Users/aviadalbert/Documents/Academisch/UoC/Dissertation/Experiment/OpenSesame/NAP-FC/NAP_GER_AA_4blocks_noglides/subject-45.csv","xpyriment","Jazzy James","3.1.9","yes","yes","59a800d99ad5a1025d81bb03","59a801616c613b0251691de0","no","no","0","j","f","space","NA","space","space","j","2944","1662","37680","NA","27739","26091","2944","2","legacy","1024","1","44100","-16","experiment","msal","2","1","0","0","1","ENG","45","","odd","2787575","2749330","NA","NA","2789238","2787571","NA","2152945","2787070","2152946","2152946","2662223","2689966","2831801","2830293","2834747","2719783","2716343","2749330","NA","2610591","2650959","2747672","2716121","2787574","2716346","NA","2831801","2831801","NA","NA","2830289","NAP perception","11","18653","15","yes","1024"
"68.75","yes","68.75","1270.875","1270.875","white","no","xpyriment","Ich habe die obigen Informationen gelesen und verstanden.","legacy","legacy","0","uniform","0","0","0","undefined","undefined","0","f","2","1","NA","0","1","0","0","0","0","0","0","0","0","25","25","25","0","0","0","NA","0","0","2","0","0","0","2","25","25","25","25","25","Mon Nov  6 12:30:35 2017","Forced-choice identification task with a practice and an experimental phase","yes","NAP_GER_AA_4blocks_noglides.osexp","/Users/aviadalbert/Documents/Academisch/UoC/Dissertation/Experiment/OpenSesame/NAP-FC/NAP_GER_AA_4blocks_noglides","yes","no","sans","no","20","no","black","no","Weiter","yes","768","legacy","15","9","0","/Users/aviadalbert/Documents/Academisch/UoC/Dissertation/Experiment/OpenSesame/NAP-FC/NAP_GER_AA_4blocks_noglides/subject-45.csv","xpyriment","Jazzy James","3.1.9","yes","yes","59a800d99ad5a1025d81bb03","59a801616c613b0251691de0","no","no","0","j","f","space","NA","space","space","j","1681","1662","37680","NA","27739","26091","1681","2","legacy","1024","1","44100","-16","experiment","lfal","2","1","0","0","1","ENG","45","","odd","2787575","2749330","NA","NA","2789238","2787571","NA","2152945","2787070","2152946","2152946","2662223","2689966","2836540","2835036","2838222","2719783","2716343","2749330","NA","2610591","2650959","2747672","2716121","2787574","2716346","NA","2836540","2836540","NA","NA","2835032","NAP perception","11","20334","16","yes","1024"
"64.7058823529","yes","64.7058823529","1287.52941176","1287.52941176","white","no","xpyriment","Ich habe die obigen Informationen gelesen und verstanden.","legacy","legacy","0","uniform","0","0","0","undefined","undefined","0","f","2","1","NA","0","1","0","0","0","0","0","0","0","0","26","26","26","0","0","0","NA","0","0","2","0","0","0","2","26","26","26","26","26","Mon Nov  6 12:30:35 2017","Forced-choice identification task with a practice and an experimental phase","yes","NAP_GER_AA_4blocks_noglides.osexp","/Users/aviadalbert/Documents/Academisch/UoC/Dissertation/Experiment/OpenSesame/NAP-FC/NAP_GER_AA_4blocks_noglides","yes","no","sans","no","20","no","black","no","Weiter","yes","768","legacy","16","9","0","/Users/aviadalbert/Documents/Academisch/UoC/Dissertation/Experiment/OpenSesame/NAP-FC/NAP_GER_AA_4blocks_noglides/subject-45.csv","xpyriment","Jazzy James","3.1.9","yes","yes","59a800d99ad5a1025d81bb03","59a801616c613b0251691de0","no","no","0","j","f","space","NA","space","space","j","1554","1662","37680","NA","27739","26091","1554","2","legacy","1024","1","44100","-16","experiment","lkal","2","1","0","0","1","ENG","45","","odd","2787575","2749330","NA","NA","2789238","2787571","NA","2152945","2787070","2152946","2152946","2662223","2689966","2840016","2838509","2841571","2719783","2716343","2749330","NA","2610591","2650959","2747672","2716121","2787574","2716346","NA","2840015","2840015","NA","NA","2838505","NAP perception","11","21888","17","yes","1024"
"66.6666666667","yes","66.6666666667","1271.38888889","1271.38888889","white","no","xpyriment","Ich habe die obigen Informationen gelesen und verstanden.","legacy","legacy","0","uniform","1","0","0","undefined","undefined","1","j","2","1","NA","0","1","0","0","0","0","0","0","0","0","27","27","27","0","0","0","NA","0","0","2","0","0","0","2","27","27","27","27","27","Mon Nov  6 12:30:35 2017","Forced-choice identification task with a practice and an experimental phase","yes","NAP_GER_AA_4blocks_noglides.osexp","/Users/aviadalbert/Documents/Academisch/UoC/Dissertation/Experiment/OpenSesame/NAP-FC/NAP_GER_AA_4blocks_noglides","yes","no","sans","no","20","no","black","no","Weiter","yes","768","legacy","17","9","0","/Users/aviadalbert/Documents/Academisch/UoC/Dissertation/Experiment/OpenSesame/NAP-FC/NAP_GER_AA_4blocks_noglides/subject-45.csv","xpyriment","Jazzy James","3.1.9","yes","yes","59a800d99ad5a1025d81bb03","59a801616c613b0251691de0","no","no","0","j","f","space","NA","space","space","j","997","1662","37680","NA","27739","26091","997","2","legacy","1024","1","44100","-16","experiment","mesal","2","1","0","0","1","ENG","45","","odd","2787575","2749330","NA","NA","2789238","2787571","NA","2152945","2787070","2152946","2152946","2662223","2689966","2843353","2841846","2844351","2719783","2716343","2749330","NA","2610591","2650959","2747672","2716121","2787574","2716346","NA","2843352","2843352","NA","NA","2841842","NAP perception","12","22885","18","yes","1024"
"68.4210526316","yes","68.4210526316","1279.57894737","1279.57894737","white","no","xpyriment","Ich habe die obigen Informationen gelesen und verstanden.","legacy","legacy","0","uniform","1","0","0","undefined","undefined","1","f","2","1","NA","0","1","0","0","0","0","0","0","0","0","28","28","28","0","0","0","NA","0","0","2","0","0","0","2","28","28","28","28","28","Mon Nov  6 12:30:35 2017","Forced-choice identification task with a practice and an experimental phase","yes","NAP_GER_AA_4blocks_noglides.osexp","/Users/aviadalbert/Documents/Academisch/UoC/Dissertation/Experiment/OpenSesame/NAP-FC/NAP_GER_AA_4blocks_noglides","yes","no","sans","no","20","no","black","no","Weiter","yes","768","legacy","18","9","0","/Users/aviadalbert/Documents/Academisch/UoC/Dissertation/Experiment/OpenSesame/NAP-FC/NAP_GER_AA_4blocks_noglides/subject-45.csv","xpyriment","Jazzy James","3.1.9","yes","yes","59a800d99ad5a1025d81bb03","59a801616c613b0251691de0","no","no","0","f","f","space","NA","space","space","f","1427","1662","37680","NA","27739","26091","1427","2","legacy","1024","1","44100","-16","experiment","ʃmal","2","1","0","0","1","ENG","45","","odd","2787575","2749330","NA","NA","2789238","2787571","NA","2152945","2787070","2152946","2152946","2662223","2689966","2846152","2844647","2847580","2719783","2716343","2749330","NA","2610591","2650959","2747672","2716121","2787574","2716346","NA","2846151","2846152","NA","NA","2844643","NAP perception","13","24312","19","yes","1024"
"70","yes","70","1264.6","1264.6","white","no","xpyriment","Ich habe die obigen Informationen gelesen und verstanden.","legacy","legacy","0","uniform","1","0","0","undefined","undefined","1","j","2","1","NA","0","1","0","0","0","0","0","0","0","0","29","29","29","0","0","0","NA","0","0","2","0","0","0","2","29","29","29","29","29","Mon Nov  6 12:30:35 2017","Forced-choice identification task with a practice and an experimental phase","yes","NAP_GER_AA_4blocks_noglides.osexp","/Users/aviadalbert/Documents/Academisch/UoC/Dissertation/Experiment/OpenSesame/NAP-FC/NAP_GER_AA_4blocks_noglides","yes","no","sans","no","20","no","black","no","Weiter","yes","768","legacy","19","9","0","/Users/aviadalbert/Documents/Academisch/UoC/Dissertation/Experiment/OpenSesame/NAP-FC/NAP_GER_AA_4blocks_noglides/subject-45.csv","xpyriment","Jazzy James","3.1.9","yes","yes","59a800d99ad5a1025d81bb03","59a801616c613b0251691de0","no","no","0","j","f","space","NA","space","space","j","980","1662","37680","NA","27739","26091","980","2","legacy","1024","1","44100","-16","experiment","efsal","2","1","0","0","1","ENG","45","","odd","2787575","2749330","NA","NA","2789238","2787571","NA","2152945","2787070","2152946","2152946","2662223","2689966","2849372","2847869","2850353","2719783","2716343","2749330","NA","2610591","2650959","2747672","2716121","2787574","2716346","NA","2849372","2849372","NA","NA","2847865","NAP perception","14","25292","20","yes","1024"
"71.4285714286","yes","71.4285714286","1248.23809524","1248.23809524","white","no","xpyriment","Ich habe die obigen Informationen gelesen und verstanden.","legacy","legacy","0","uniform","1","0","0","undefined","undefined","1","j","2","1","NA","0","1","0","0","0","0","0","0","0","0","30","30","30","0","0","0","NA","0","0","2","0","0","0","2","30","30","30","30","30","Mon Nov  6 12:30:35 2017","Forced-choice identification task with a practice and an experimental phase","yes","NAP_GER_AA_4blocks_noglides.osexp","/Users/aviadalbert/Documents/Academisch/UoC/Dissertation/Experiment/OpenSesame/NAP-FC/NAP_GER_AA_4blocks_noglides","yes","no","sans","no","20","no","black","no","Weiter","yes","768","legacy","20","9","0","/Users/aviadalbert/Documents/Academisch/UoC/Dissertation/Experiment/OpenSesame/NAP-FC/NAP_GER_AA_4blocks_noglides/subject-45.csv","xpyriment","Jazzy James","3.1.9","yes","yes","59a800d99ad5a1025d81bb03","59a801616c613b0251691de0","no","no","0","j","f","space","NA","space","space","j","921","1662","37680","NA","27739","26091","921","2","legacy","1024","1","44100","-16","experiment","nepal","2","1","0","0","1","ENG","45","","odd","2787575","2749330","NA","NA","2789238","2787571","NA","2152945","2787070","2152946","2152946","2662223","2689966","2852145","2850641","2853067","2719783","2716343","2749330","NA","2610591","2650959","2747672","2716121","2787574","2716346","NA","2852144","2852145","NA","NA","2850637","NAP perception","15","26213","21","yes","1024"
"68.1818181818","yes","68.1818181818","1305.77272727","1305.77272727","white","no","xpyriment","Ich habe die obigen Informationen gelesen und verstanden.","legacy","legacy","0","uniform","0","0","0","undefined","undefined","0","f","2","1","NA","0","1","0","0","0","0","0","0","0","0","31","31","31","0","0","0","NA","0","0","2","0","0","0","2","31","31","31","31","31","Mon Nov  6 12:30:35 2017","Forced-choice identification task with a practice and an experimental phase","yes","NAP_GER_AA_4blocks_noglides.osexp","/Users/aviadalbert/Documents/Academisch/UoC/Dissertation/Experiment/OpenSesame/NAP-FC/NAP_GER_AA_4blocks_noglides","yes","no","sans","no","20","no","black","no","Weiter","yes","768","legacy","21","9","0","/Users/aviadalbert/Documents/Academisch/UoC/Dissertation/Experiment/OpenSesame/NAP-FC/NAP_GER_AA_4blocks_noglides/subject-45.csv","xpyriment","Jazzy James","3.1.9","yes","yes","59a800d99ad5a1025d81bb03","59a801616c613b0251691de0","no","no","0","j","f","space","NA","space","space","j","2514","1662","37680","NA","27739","26091","2514","2","legacy","1024","1","44100","-16","experiment","nfal","2","1","0","0","1","ENG","45","","odd","2787575","2749330","NA","NA","2789238","2787571","NA","2152945","2787070","2152946","2152946","2662223","2689966","2854855","2853350","2857371","2719783","2716343","2749330","NA","2610591","2650959","2747672","2716121","2787574","2716346","NA","2854855","2854855","NA","NA","2853346","NAP perception","15","28727","22","yes","1024"
"69.5652173913","yes","69.5652173913","1325.39130435","1325.39130435","white","no","xpyriment","Ich habe die obigen Informationen gelesen und verstanden.","legacy","legacy","0","uniform","1","0","0","undefined","undefined","1","j","2","1","NA","0","1","0","0","0","0","0","0","0","0","32","32","32","0","0","0","NA","0","0","2","0","0","0","2","32","32","32","32","32","Mon Nov  6 12:30:35 2017","Forced-choice identification task with a practice and an experimental phase","yes","NAP_GER_AA_4blocks_noglides.osexp","/Users/aviadalbert/Documents/Academisch/UoC/Dissertation/Experiment/OpenSesame/NAP-FC/NAP_GER_AA_4blocks_noglides","yes","no","sans","no","20","no","black","no","Weiter","yes","768","legacy","22","9","0","/Users/aviadalbert/Documents/Academisch/UoC/Dissertation/Experiment/OpenSesame/NAP-FC/NAP_GER_AA_4blocks_noglides/subject-45.csv","xpyriment","Jazzy James","3.1.9","yes","yes","59a800d99ad5a1025d81bb03","59a801616c613b0251691de0","no","no","0","j","f","space","NA","space","space","j","1757","1662","37680","NA","27739","26091","1757","2","legacy","1024","1","44100","-16","experiment","fesal","2","1","0","0","1","ENG","45","","odd","2787575","2749330","NA","NA","2789238","2787571","NA","2152945","2787070","2152946","2152946","2662223","2689966","2859149","2857646","2860908","2719783","2716343","2749330","NA","2610591","2650959","2747672","2716121","2787574","2716346","NA","2859149","2859149","NA","NA","2857642","NAP perception","16","30484","23","yes","1024"
"70.8333333333","yes","70.8333333333","1310.5","1310.5","white","no","xpyriment","Ich habe die obigen Informationen gelesen und verstanden.","legacy","legacy","0","uniform","1","0","0","undefined","undefined","1","j","2","1","NA","0","1","0","0","0","0","0","0","0","0","33","33","33","0","0","0","NA","0","0","2","0","0","0","2","33","33","33","33","33","Mon Nov  6 12:30:35 2017","Forced-choice identification task with a practice and an experimental phase","yes","NAP_GER_AA_4blocks_noglides.osexp","/Users/aviadalbert/Documents/Academisch/UoC/Dissertation/Experiment/OpenSesame/NAP-FC/NAP_GER_AA_4blocks_noglides","yes","no","sans","no","20","no","black","no","Weiter","yes","768","legacy","23","9","0","/Users/aviadalbert/Documents/Academisch/UoC/Dissertation/Experiment/OpenSesame/NAP-FC/NAP_GER_AA_4blocks_noglides/subject-45.csv","xpyriment","Jazzy James","3.1.9","yes","yes","59a800d99ad5a1025d81bb03","59a801616c613b0251691de0","no","no","0","j","f","space","NA","space","space","j","968","1662","37680","NA","27739","26091","968","2","legacy","1024","1","44100","-16","experiment","venal","2","1","0","0","1","ENG","45","","odd","2787575","2749330","NA","NA","2789238","2787571","NA","2152945","2787070","2152946","2152946","2662223","2689966","2862712","2861205","2863682","2719783","2716343","2749330","NA","2610591","2650959","2747672","2716121","2787574","2716346","NA","2862711","2862711","NA","NA","2861201","NAP perception","17","31452","24","yes","1024"
"68","yes","68","1309.48","1309.48","white","no","xpyriment","Ich habe die obigen Informationen gelesen und verstanden.","legacy","legacy","0","uniform","0","0","0","undefined","undefined","0","f","2","1","NA","0","1","0","0","0","0","0","0","0","0","34","34","34","0","0","0","NA","0","0","2","0","0","0","2","34","34","34","34","34","Mon Nov  6 12:30:35 2017","Forced-choice identification task with a practice and an experimental phase","yes","NAP_GER_AA_4blocks_noglides.osexp","/Users/aviadalbert/Documents/Academisch/UoC/Dissertation/Experiment/OpenSesame/NAP-FC/NAP_GER_AA_4blocks_noglides","yes","no","sans","no","20","no","black","no","Weiter","yes","768","legacy","24","9","0","/Users/aviadalbert/Documents/Academisch/UoC/Dissertation/Experiment/OpenSesame/NAP-FC/NAP_GER_AA_4blocks_noglides/subject-45.csv","xpyriment","Jazzy James","3.1.9","yes","yes","59a800d99ad5a1025d81bb03","59a801616c613b0251691de0","no","no","0","j","f","space","NA","space","space","j","1285","1662","37680","NA","27739","26091","1285","2","legacy","1024","1","44100","-16","experiment","npal","2","1","0","0","1","ENG","45","","odd","2787575","2749330","NA","NA","2789238","2787571","NA","2152945","2787070","2152946","2152946","2662223","2689966","2865461","2863955","2866748","2719783","2716343","2749330","NA","2610591","2650959","2747672","2716121","2787574","2716346","NA","2865461","2865461","NA","NA","2863951","NAP perception","17","32737","25","yes","1024"
"69.2307692308","yes","69.2307692308","1290.57692308","1290.57692308","white","no","xpyriment","Ich habe die obigen Informationen gelesen und verstanden.","legacy","legacy","0","uniform","1","0","0","undefined","undefined","1","j","2","1","NA","0","1","0","0","0","0","0","0","0","0","35","35","35","0","0","0","NA","0","0","2","0","0","0","2","35","35","35","35","35","Mon Nov  6 12:30:35 2017","Forced-choice identification task with a practice and an experimental phase","yes","NAP_GER_AA_4blocks_noglides.osexp","/Users/aviadalbert/Documents/Academisch/UoC/Dissertation/Experiment/OpenSesame/NAP-FC/NAP_GER_AA_4blocks_noglides","yes","no","sans","no","20","no","black","no","Weiter","yes","768","legacy","25","9","0","/Users/aviadalbert/Documents/Academisch/UoC/Dissertation/Experiment/OpenSesame/NAP-FC/NAP_GER_AA_4blocks_noglides/subject-45.csv","xpyriment","Jazzy James","3.1.9","yes","yes","59a800d99ad5a1025d81bb03","59a801616c613b0251691de0","no","no","0","j","f","space","NA","space","space","j","818","1662","37680","NA","27739","26091","818","2","legacy","1024","1","44100","-16","experiment","zemal","2","1","0","0","1","ENG","45","","odd","2787575","2749330","NA","NA","2789238","2787571","NA","2152945","2787070","2152946","2152946","2662223","2689966","2868529","2867025","2869349","2719783","2716343","2749330","NA","2610591","2650959","2747672","2716121","2787574","2716346","NA","2868529","2868529","NA","NA","2867021","NAP perception","18","33555","26","yes","1024"
"70.3703703704","yes","70.3703703704","1301.62962963","1301.62962963","white","no","xpyriment","Ich habe die obigen Informationen gelesen und verstanden.","legacy","legacy","0","uniform","1","0","0","undefined","undefined","1","f","2","1","NA","0","1","0","0","0","0","0","0","0","0","36","36","36","0","0","0","NA","0","0","2","0","0","0","2","36","36","36","36","36","Mon Nov  6 12:30:35 2017","Forced-choice identification task with a practice and an experimental phase","yes","NAP_GER_AA_4blocks_noglides.osexp","/Users/aviadalbert/Documents/Academisch/UoC/Dissertation/Experiment/OpenSesame/NAP-FC/NAP_GER_AA_4blocks_noglides","yes","no","sans","no","20","no","black","no","Weiter","yes","768","legacy","26","9","0","/Users/aviadalbert/Documents/Academisch/UoC/Dissertation/Experiment/OpenSesame/NAP-FC/NAP_GER_AA_4blocks_noglides/subject-45.csv","xpyriment","Jazzy James","3.1.9","yes","yes","59a800d99ad5a1025d81bb03","59a801616c613b0251691de0","no","no","0","f","f","space","NA","space","space","f","1589","1662","37680","NA","27739","26091","1589","2","legacy","1024","1","44100","-16","experiment","nmal","2","1","0","0","1","ENG","45","","odd","2787575","2749330","NA","NA","2789238","2787571","NA","2152945","2787070","2152946","2152946","2662223","2689966","2871140","2869634","2872731","2719783","2716343","2749330","NA","2610591","2650959","2747672","2716121","2787574","2716346","NA","2871140","2871140","NA","NA","2869630","NAP perception","19","35144","27","yes","1024"
"71.4285714286","yes","71.4285714286","1290.17857143","1290.17857143","white","no","xpyriment","Ich habe die obigen Informationen gelesen und verstanden.","legacy","legacy","0","uniform","1","0","0","undefined","undefined","1","f","2","1","NA","0","1","0","0","0","0","0","0","0","0","37","37","37","0","0","0","NA","0","0","2","0","0","0","2","37","37","37","37","37","Mon Nov  6 12:30:35 2017","Forced-choice identification task with a practice and an experimental phase","yes","NAP_GER_AA_4blocks_noglides.osexp","/Users/aviadalbert/Documents/Academisch/UoC/Dissertation/Experiment/OpenSesame/NAP-FC/NAP_GER_AA_4blocks_noglides","yes","no","sans","no","20","no","black","no","Weiter","yes","768","legacy","27","9","0","/Users/aviadalbert/Documents/Academisch/UoC/Dissertation/Experiment/OpenSesame/NAP-FC/NAP_GER_AA_4blocks_noglides/subject-45.csv","xpyriment","Jazzy James","3.1.9","yes","yes","59a800d99ad5a1025d81bb03","59a801616c613b0251691de0","no","no","0","f","f","space","NA","space","space","f","981","1662","37680","NA","27739","26091","981","2","legacy","1024","1","44100","-16","experiment","mzal","2","1","0","0","1","ENG","45","","odd","2787575","2749330","NA","NA","2789238","2787571","NA","2152945","2787070","2152946","2152946","2662223","2689966","2874518","2873014","2875501","2719783","2716343","2749330","NA","2610591","2650959","2747672","2716121","2787574","2716346","NA","2874517","2874518","NA","NA","2873010","NAP perception","20","36125","28","yes","1024"
"72.4137931034","yes","72.4137931034","1281.72413793","1281.72413793","white","no","xpyriment","Ich habe die obigen Informationen gelesen und verstanden.","legacy","legacy","0","uniform","1","0","0","undefined","undefined","1","j","2","1","NA","0","1","0","0","0","0","0","0","0","0","38","38","38","0","0","0","NA","0","0","2","0","0","0","2","38","38","38","38","38","Mon Nov  6 12:30:35 2017","Forced-choice identification task with a practice and an experimental phase","yes","NAP_GER_AA_4blocks_noglides.osexp","/Users/aviadalbert/Documents/Academisch/UoC/Dissertation/Experiment/OpenSesame/NAP-FC/NAP_GER_AA_4blocks_noglides","yes","no","sans","no","20","no","black","no","Weiter","yes","768","legacy","28","9","0","/Users/aviadalbert/Documents/Academisch/UoC/Dissertation/Experiment/OpenSesame/NAP-FC/NAP_GER_AA_4blocks_noglides/subject-45.csv","xpyriment","Jazzy James","3.1.9","yes","yes","59a800d99ad5a1025d81bb03","59a801616c613b0251691de0","no","no","0","j","f","space","NA","space","space","j","1045","1662","37680","NA","27739","26091","1045","2","legacy","1024","1","44100","-16","experiment","fenal","2","1","0","0","1","ENG","45","","odd","2787575","2749330","NA","NA","2789238","2787571","NA","2152945","2787070","2152946","2152946","2662223","2689966","2877281","2875778","2878327","2719783","2716343","2749330","NA","2610591","2650959","2747672","2716121","2787574","2716346","NA","2877281","2877281","NA","NA","2875774","NAP perception","21","37170","29","yes","1024"
"70","yes","70","1339","1339","white","no","xpyriment","Ich habe die obigen Informationen gelesen und verstanden.","legacy","legacy","0","uniform","0","0","0","undefined","undefined","0","f","2","1","NA","0","1","0","0","0","0","0","0","0","0","39","39","39","0","0","0","NA","0","0","2","0","0","0","2","39","39","39","39","39","Mon Nov  6 12:30:35 2017","Forced-choice identification task with a practice and an experimental phase","yes","NAP_GER_AA_4blocks_noglides.osexp","/Users/aviadalbert/Documents/Academisch/UoC/Dissertation/Experiment/OpenSesame/NAP-FC/NAP_GER_AA_4blocks_noglides","yes","no","sans","no","20","no","black","no","Weiter","yes","768","legacy","29","9","0","/Users/aviadalbert/Documents/Academisch/UoC/Dissertation/Experiment/OpenSesame/NAP-FC/NAP_GER_AA_4blocks_noglides/subject-45.csv","xpyriment","Jazzy James","3.1.9","yes","yes","59a800d99ad5a1025d81bb03","59a801616c613b0251691de0","no","no","0","None","f","space","NA","space","space","None","3000","1662","37680","NA","27739","26091","3000","2","legacy","1024","1","44100","-16","experiment","lfal","2","1","0","0","1","ENG","45","","odd","2787575","2749330","NA","NA","2789238","2787571","NA","2152945","2787070","2152946","2152946","2662223","2689966","2880127","2878621","2884131","2719783","2716343","2749330","NA","2610591","2650959","2747672","2716121","2787574","2716346","NA","2880127","2880127","2883131","2883127","2878617","NAP perception","21","40170","30","yes","1024"
"67.7419354839","yes","67.7419354839","1348.16129032","1348.16129032","white","no","xpyriment","Ich habe die obigen Informationen gelesen und verstanden.","legacy","legacy","0","uniform","0","0","0","undefined","undefined","0","j","2","1","NA","0","1","0","0","0","0","0","0","0","0","40","40","40","0","0","0","NA","0","0","2","0","0","0","2","40","40","40","40","40","Mon Nov  6 12:30:35 2017","Forced-choice identification task with a practice and an experimental phase","yes","NAP_GER_AA_4blocks_noglides.osexp","/Users/aviadalbert/Documents/Academisch/UoC/Dissertation/Experiment/OpenSesame/NAP-FC/NAP_GER_AA_4blocks_noglides","yes","no","sans","no","20","no","black","no","Weiter","yes","768","legacy","30","9","0","/Users/aviadalbert/Documents/Academisch/UoC/Dissertation/Experiment/OpenSesame/NAP-FC/NAP_GER_AA_4blocks_noglides/subject-45.csv","xpyriment","Jazzy James","3.1.9","yes","yes","59a800d99ad5a1025d81bb03","59a801616c613b0251691de0","no","no","0","f","f","space","NA","space","space","f","1623","1662","37680","NA","27739","26091","1623","2","legacy","1024","1","44100","-16","experiment","eftal","2","1","0","0","1","ENG","45","","odd","2787575","2749330","NA","NA","2789238","2787571","NA","2152945","2787070","2152946","2152946","2662223","2689966","2885903","2884397","2887528","2719783","2716343","2749330","NA","2610591","2650959","2747672","2716121","2787574","2716346","NA","2885903","2885903","2883131","2883127","2884393","NAP perception","21","41793","31","yes","1024"
"68.75","yes","68.75","1336.53125","1336.53125","white","no","xpyriment","Ich habe die obigen Informationen gelesen und verstanden.","legacy","legacy","0","uniform","1","0","0","undefined","undefined","1","j","2","1","NA","0","1","0","0","0","0","0","0","0","0","41","41","41","0","0","0","NA","0","0","2","0","0","0","2","41","41","41","41","41","Mon Nov  6 12:30:35 2017","Forced-choice identification task with a practice and an experimental phase","yes","NAP_GER_AA_4blocks_noglides.osexp","/Users/aviadalbert/Documents/Academisch/UoC/Dissertation/Experiment/OpenSesame/NAP-FC/NAP_GER_AA_4blocks_noglides","yes","no","sans","no","20","no","black","no","Weiter","yes","768","legacy","31","9","0","/Users/aviadalbert/Documents/Academisch/UoC/Dissertation/Experiment/OpenSesame/NAP-FC/NAP_GER_AA_4blocks_noglides/subject-45.csv","xpyriment","Jazzy James","3.1.9","yes","yes","59a800d99ad5a1025d81bb03","59a801616c613b0251691de0","no","no","0","j","f","space","NA","space","space","j","976","1662","37680","NA","27739","26091","976","2","legacy","1024","1","44100","-16","experiment","felal","2","1","0","0","1","ENG","45","","odd","2787575","2749330","NA","NA","2789238","2787571","NA","2152945","2787070","2152946","2152946","2662223","2689966","2889313","2887810","2890291","2719783","2716343","2749330","NA","2610591","2650959","2747672","2716121","2787574","2716346","NA","2889313","2889313","2883131","2883127","2887806","NAP perception","22","42769","32","yes","1024"
"69.696969697","yes","69.696969697","1326.36363636","1326.36363636","white","no","xpyriment","Ich habe die obigen Informationen gelesen und verstanden.","legacy","legacy","0","uniform","1","0","0","undefined","undefined","1","j","2","1","NA","0","1","0","0","0","0","0","0","0","0","42","42","42","0","0","0","NA","0","0","2","0","0","0","2","42","42","42","42","42","Mon Nov  6 12:30:35 2017","Forced-choice identification task with a practice and an experimental phase","yes","NAP_GER_AA_4blocks_noglides.osexp","/Users/aviadalbert/Documents/Academisch/UoC/Dissertation/Experiment/OpenSesame/NAP-FC/NAP_GER_AA_4blocks_noglides","yes","no","sans","no","20","no","black","no","Weiter","yes","768","legacy","32","9","0","/Users/aviadalbert/Documents/Academisch/UoC/Dissertation/Experiment/OpenSesame/NAP-FC/NAP_GER_AA_4blocks_noglides/subject-45.csv","xpyriment","Jazzy James","3.1.9","yes","yes","59a800d99ad5a1025d81bb03","59a801616c613b0251691de0","no","no","0","j","f","space","NA","space","space","j","1001","1662","37680","NA","27739","26091","1001","2","legacy","1024","1","44100","-16","experiment","espal","2","1","0","0","1","ENG","45","","odd","2787575","2749330","NA","NA","2789238","2787571","NA","2152945","2787070","2152946","2152946","2662223","2689966","2892088","2890585","2893091","2719783","2716343","2749330","NA","2610591","2650959","2747672","2716121","2787574","2716346","NA","2892088","2892088","2883131","2883127","2890581","NAP perception","23","43770","33","yes","1024"
"70.5882352941","yes","70.5882352941","1319.79411765","1319.79411765","white","no","xpyriment","Ich habe die obigen Informationen gelesen und verstanden.","legacy","legacy","0","uniform","1","0","0","undefined","undefined","1","f","2","1","NA","0","1","0","0","0","0","0","0","0","0","43","43","43","0","0","0","NA","0","0","2","0","0","0","2","43","43","43","43","43","Mon Nov  6 12:30:35 2017","Forced-choice identification task with a practice and an experimental phase","yes","NAP_GER_AA_4blocks_noglides.osexp","/Users/aviadalbert/Documents/Academisch/UoC/Dissertation/Experiment/OpenSesame/NAP-FC/NAP_GER_AA_4blocks_noglides","yes","no","sans","no","20","no","black","no","Weiter","yes","768","legacy","33","9","0","/Users/aviadalbert/Documents/Academisch/UoC/Dissertation/Experiment/OpenSesame/NAP-FC/NAP_GER_AA_4blocks_noglides/subject-45.csv","xpyriment","Jazzy James","3.1.9","yes","yes","59a800d99ad5a1025d81bb03","59a801616c613b0251691de0","no","no","0","f","f","space","NA","space","space","f","1103","1662","37680","NA","27739","26091","1103","2","legacy","1024","1","44100","-16","experiment","vnal","2","1","0","0","1","ENG","45","","odd","2787575","2749330","NA","NA","2789238","2787571","NA","2152945","2787070","2152946","2152946","2662223","2689966","2894884","2893380","2895990","2719783","2716343","2749330","NA","2610591","2650959","2747672","2716121","2787574","2716346","NA","2894884","2894884","2883131","2883127","2893376","NAP perception","24","44873","34","yes","1024"
"71.4285714286","yes","71.4285714286","1315.82857143","1315.82857143","white","no","xpyriment","Ich habe die obigen Informationen gelesen und verstanden.","legacy","legacy","0","uniform","1","0","0","undefined","undefined","1","j","2","1","NA","0","1","0","0","0","0","0","0","0","0","44","44","44","0","0","0","NA","0","0","2","0","0","0","2","44","44","44","44","44","Mon Nov  6 12:30:35 2017","Forced-choice identification task with a practice and an experimental phase","yes","NAP_GER_AA_4blocks_noglides.osexp","/Users/aviadalbert/Documents/Academisch/UoC/Dissertation/Experiment/OpenSesame/NAP-FC/NAP_GER_AA_4blocks_noglides","yes","no","sans","no","20","no","black","no","Weiter","yes","768","legacy","34","9","0","/Users/aviadalbert/Documents/Academisch/UoC/Dissertation/Experiment/OpenSesame/NAP-FC/NAP_GER_AA_4blocks_noglides/subject-45.csv","xpyriment","Jazzy James","3.1.9","yes","yes","59a800d99ad5a1025d81bb03","59a801616c613b0251691de0","no","no","0","j","f","space","NA","space","space","j","1181","1662","37680","NA","27739","26091","1181","2","legacy","1024","1","44100","-16","experiment","emnal","2","1","0","0","1","ENG","45","","odd","2787575","2749330","NA","NA","2789238","2787571","NA","2152945","2787070","2152946","2152946","2662223","2689966","2897796","2896288","2898979","2719783","2716343","2749330","NA","2610591","2650959","2747672","2716121","2787574","2716346","NA","2897795","2897796","2883131","2883127","2896284","NAP perception","25","46054","35","yes","1024"
"72.2222222222","yes","72.2222222222","1302.05555556","1302.05555556","white","no","xpyriment","Ich habe die obigen Informationen gelesen und verstanden.","legacy","legacy","0","uniform","1","0","0","undefined","undefined","1","j","2","1","NA","0","1","0","0","0","0","0","0","0","0","45","45","45","0","0","0","NA","0","0","2","0","0","0","2","45","45","45","45","45","Mon Nov  6 12:30:35 2017","Forced-choice identification task with a practice and an experimental phase","yes","NAP_GER_AA_4blocks_noglides.osexp","/Users/aviadalbert/Documents/Academisch/UoC/Dissertation/Experiment/OpenSesame/NAP-FC/NAP_GER_AA_4blocks_noglides","yes","no","sans","no","20","no","black","no","Weiter","yes","768","legacy","35","9","0","/Users/aviadalbert/Documents/Academisch/UoC/Dissertation/Experiment/OpenSesame/NAP-FC/NAP_GER_AA_4blocks_noglides/subject-45.csv","xpyriment","Jazzy James","3.1.9","yes","yes","59a800d99ad5a1025d81bb03","59a801616c613b0251691de0","no","no","0","j","f","space","NA","space","space","j","820","1662","37680","NA","27739","26091","820","2","legacy","1024","1","44100","-16","experiment","evnal","2","1","0","0","1","ENG","45","","odd","2787575","2749330","NA","NA","2789238","2787571","NA","2152945","2787070","2152946","2152946","2662223","2689966","2900780","2899274","2901602","2719783","2716343","2749330","NA","2610591","2650959","2747672","2716121","2787574","2716346","NA","2900779","2900779","2883131","2883127","2899270","NAP perception","26","46874","36","yes","1024"
"72.972972973","yes","72.972972973","1287.24324324","1287.24324324","white","no","xpyriment","Ich habe die obigen Informationen gelesen und verstanden.","legacy","legacy","0","uniform","1","0","0","undefined","undefined","1","j","2","1","NA","0","1","0","0","0","0","0","0","0","0","46","46","46","0","0","0","NA","0","0","2","0","0","0","2","46","46","46","46","46","Mon Nov  6 12:30:35 2017","Forced-choice identification task with a practice and an experimental phase","yes","NAP_GER_AA_4blocks_noglides.osexp","/Users/aviadalbert/Documents/Academisch/UoC/Dissertation/Experiment/OpenSesame/NAP-FC/NAP_GER_AA_4blocks_noglides","yes","no","sans","no","20","no","black","no","Weiter","yes","768","legacy","36","9","0","/Users/aviadalbert/Documents/Academisch/UoC/Dissertation/Experiment/OpenSesame/NAP-FC/NAP_GER_AA_4blocks_noglides/subject-45.csv","xpyriment","Jazzy James","3.1.9","yes","yes","59a800d99ad5a1025d81bb03","59a801616c613b0251691de0","no","no","0","j","f","space","NA","space","space","j","754","1662","37680","NA","27739","26091","754","2","legacy","1024","1","44100","-16","experiment","elval","2","1","0","0","1","ENG","45","","odd","2787575","2749330","NA","NA","2789238","2787571","NA","2152945","2787070","2152946","2152946","2662223","2689966","2903396","2901892","2904152","2719783","2716343","2749330","NA","2610591","2650959","2747672","2716121","2787574","2716346","NA","2903395","2903396","2883131","2883127","2901888","NAP perception","27","47628","37","yes","1024"
"73.6842105263","yes","73.6842105263","1272.94736842","1272.94736842","white","no","xpyriment","Ich habe die obigen Informationen gelesen und verstanden.","legacy","legacy","0","uniform","1","0","0","undefined","undefined","1","j","2","1","NA","0","1","0","0","0","0","0","0","0","0","47","47","47","0","0","0","NA","0","0","2","0","0","0","2","47","47","47","47","47","Mon Nov  6 12:30:35 2017","Forced-choice identification task with a practice and an experimental phase","yes","NAP_GER_AA_4blocks_noglides.osexp","/Users/aviadalbert/Documents/Academisch/UoC/Dissertation/Experiment/OpenSesame/NAP-FC/NAP_GER_AA_4blocks_noglides","yes","no","sans","no","20","no","black","no","Weiter","yes","768","legacy","37","9","0","/Users/aviadalbert/Documents/Academisch/UoC/Dissertation/Experiment/OpenSesame/NAP-FC/NAP_GER_AA_4blocks_noglides/subject-45.csv","xpyriment","Jazzy James","3.1.9","yes","yes","59a800d99ad5a1025d81bb03","59a801616c613b0251691de0","no","no","0","j","f","space","NA","space","space","j","744","1662","37680","NA","27739","26091","744","2","legacy","1024","1","44100","-16","experiment","elkal","2","1","0","0","1","ENG","45","","odd","2787575","2749330","NA","NA","2789238","2787571","NA","2152945","2787070","2152946","2152946","2662223","2689966","2905937","2904434","2906683","2719783","2716343","2749330","NA","2610591","2650959","2747672","2716121","2787574","2716346","NA","2905937","2905937","2883131","2883127","2904430","NAP perception","28","48372","38","yes","1024"
"71.7948717949","yes","71.7948717949","1276.15384615","1276.15384615","white","no","xpyriment","Ich habe die obigen Informationen gelesen und verstanden.","legacy","legacy","0","uniform","0","0","0","undefined","undefined","0","f","2","1","NA","0","1","0","0","0","0","0","0","0","0","48","48","48","0","0","0","NA","0","0","2","0","0","0","2","48","48","48","48","48","Mon Nov  6 12:30:35 2017","Forced-choice identification task with a practice and an experimental phase","yes","NAP_GER_AA_4blocks_noglides.osexp","/Users/aviadalbert/Documents/Academisch/UoC/Dissertation/Experiment/OpenSesame/NAP-FC/NAP_GER_AA_4blocks_noglides","yes","no","sans","no","20","no","black","no","Weiter","yes","768","legacy","38","9","0","/Users/aviadalbert/Documents/Academisch/UoC/Dissertation/Experiment/OpenSesame/NAP-FC/NAP_GER_AA_4blocks_noglides/subject-45.csv","xpyriment","Jazzy James","3.1.9","yes","yes","59a800d99ad5a1025d81bb03","59a801616c613b0251691de0","no","no","0","j","f","space","NA","space","space","j","1398","1662","37680","NA","27739","26091","1398","2","legacy","1024","1","44100","-16","experiment","mzal","2","1","0","0","1","ENG","45","","odd","2787575","2749330","NA","NA","2789238","2787571","NA","2152945","2787070","2152946","2152946","2662223","2689966","2908458","2906954","2909858","2719783","2716343","2749330","NA","2610591","2650959","2747672","2716121","2787574","2716346","NA","2908457","2908458","2883131","2883127","2906950","NAP perception","28","49770","39","yes","1024"
"72.5","yes","72.5","1264.75","1264.75","white","no","xpyriment","Ich habe die obigen Informationen gelesen und verstanden.","legacy","legacy","0","uniform","1","0","0","undefined","undefined","1","j","2","1","NA","0","1","0","0","0","0","0","0","0","0","49","49","49","0","0","0","NA","0","0","2","0","0","0","2","49","49","49","49","49","Mon Nov  6 12:30:35 2017","Forced-choice identification task with a practice and an experimental phase","yes","NAP_GER_AA_4blocks_noglides.osexp","/Users/aviadalbert/Documents/Academisch/UoC/Dissertation/Experiment/OpenSesame/NAP-FC/NAP_GER_AA_4blocks_noglides","yes","no","sans","no","20","no","black","no","Weiter","yes","768","legacy","39","9","0","/Users/aviadalbert/Documents/Academisch/UoC/Dissertation/Experiment/OpenSesame/NAP-FC/NAP_GER_AA_4blocks_noglides/subject-45.csv","xpyriment","Jazzy James","3.1.9","yes","yes","59a800d99ad5a1025d81bb03","59a801616c613b0251691de0","no","no","0","j","f","space","NA","space","space","j","820","1662","37680","NA","27739","26091","820","2","legacy","1024","1","44100","-16","experiment","menal","2","1","0","0","1","ENG","45","","odd","2787575","2749330","NA","NA","2789238","2787571","NA","2152945","2787070","2152946","2152946","2662223","2689966","2911647","2910141","2912469","2719783","2716343","2749330","NA","2610591","2650959","2747672","2716121","2787574","2716346","NA","2911647","2911647","2883131","2883127","2910137","NAP perception","29","50590","40","yes","1024"
"73.1707317073","yes","73.1707317073","1257.26829268","1257.26829268","white","no","xpyriment","Ich habe die obigen Informationen gelesen und verstanden.","legacy","legacy","0","uniform","1","0","0","undefined","undefined","1","f","2","1","NA","0","1","0","0","0","0","0","0","0","0","50","50","50","0","0","0","NA","0","0","2","0","0","0","2","50","50","50","50","50","Mon Nov  6 12:30:35 2017","Forced-choice identification task with a practice and an experimental phase","yes","NAP_GER_AA_4blocks_noglides.osexp","/Users/aviadalbert/Documents/Academisch/UoC/Dissertation/Experiment/OpenSesame/NAP-FC/NAP_GER_AA_4blocks_noglides","yes","no","sans","no","20","no","black","no","Weiter","yes","768","legacy","40","9","0","/Users/aviadalbert/Documents/Academisch/UoC/Dissertation/Experiment/OpenSesame/NAP-FC/NAP_GER_AA_4blocks_noglides/subject-45.csv","xpyriment","Jazzy James","3.1.9","yes","yes","59a800d99ad5a1025d81bb03","59a801616c613b0251691de0","no","no","0","f","f","space","NA","space","space","f","958","1662","37680","NA","27739","26091","958","2","legacy","1024","1","44100","-16","experiment","lmal","2","1","0","0","1","ENG","45","","odd","2787575","2749330","NA","NA","2789238","2787571","NA","2152945","2787070","2152946","2152946","2662223","2689966","2914258","2912752","2915217","2719783","2716343","2749330","NA","2610591","2650959","2747672","2716121","2787574","2716346","NA","2914258","2914258","2883131","2883127","2912749","NAP perception","30","51548","41","yes","1024"
"73.8095238095","yes","73.8095238095","1256.69047619","1256.69047619","white","no","xpyriment","Ich habe die obigen Informationen gelesen und verstanden.","legacy","legacy","0","uniform","1","0","0","undefined","undefined","1","j","2","1","NA","0","1","0","0","0","0","0","0","0","0","51","51","51","0","0","0","NA","0","0","2","0","0","0","2","51","51","51","51","51","Mon Nov  6 12:30:35 2017","Forced-choice identification task with a practice and an experimental phase","yes","NAP_GER_AA_4blocks_noglides.osexp","/Users/aviadalbert/Documents/Academisch/UoC/Dissertation/Experiment/OpenSesame/NAP-FC/NAP_GER_AA_4blocks_noglides","yes","no","sans","no","20","no","black","no","Weiter","yes","768","legacy","41","9","0","/Users/aviadalbert/Documents/Academisch/UoC/Dissertation/Experiment/OpenSesame/NAP-FC/NAP_GER_AA_4blocks_noglides/subject-45.csv","xpyriment","Jazzy James","3.1.9","yes","yes","59a800d99ad5a1025d81bb03","59a801616c613b0251691de0","no","no","0","j","f","space","NA","space","space","j","1233","1662","37680","NA","27739","26091","1233","2","legacy","1024","1","44100","-16","experiment","eʃmal","2","1","0","0","1","ENG","45","","odd","2787575","2749330","NA","NA","2789238","2787571","NA","2152945","2787070","2152946","2152946","2662223","2689966","2917021","2915515","2918255","2719783","2716343","2749330","NA","2610591","2650959","2747672","2716121","2787574","2716346","NA","2917021","2917021","2883131","2883127","2915511","NAP perception","31","52781","42","yes","1024"
"74.4186046512","yes","74.4186046512","1247.11627907","1247.11627907","white","no","xpyriment","Ich habe die obigen Informationen gelesen und verstanden.","legacy","legacy","0","uniform","1","0","0","undefined","undefined","1","f","2","1","NA","0","1","0","0","0","0","0","0","0","0","52","52","52","0","0","0","NA","0","0","2","0","0","0","2","52","52","52","52","52","Mon Nov  6 12:30:35 2017","Forced-choice identification task with a practice and an experimental phase","yes","NAP_GER_AA_4blocks_noglides.osexp","/Users/aviadalbert/Documents/Academisch/UoC/Dissertation/Experiment/OpenSesame/NAP-FC/NAP_GER_AA_4blocks_noglides","yes","no","sans","no","20","no","black","no","Weiter","yes","768","legacy","42","9","0","/Users/aviadalbert/Documents/Academisch/UoC/Dissertation/Experiment/OpenSesame/NAP-FC/NAP_GER_AA_4blocks_noglides/subject-45.csv","xpyriment","Jazzy James","3.1.9","yes","yes","59a800d99ad5a1025d81bb03","59a801616c613b0251691de0","no","no","0","f","f","space","NA","space","space","f","845","1662","37680","NA","27739","26091","845","2","legacy","1024","1","44100","-16","experiment","ʃfal","2","1","0","0","1","ENG","45","","odd","2787575","2749330","NA","NA","2789238","2787571","NA","2152945","2787070","2152946","2152946","2662223","2689966","2920035","2918531","2920881","2719783","2716343","2749330","NA","2610591","2650959","2747672","2716121","2787574","2716346","NA","2920035","2920035","2883131","2883127","2918527","NAP perception","32","53626","43","yes","1024"
"72.7272727273","yes","72.7272727273","1256.34090909","1256.34090909","white","no","xpyriment","Ich habe die obigen Informationen gelesen und verstanden.","legacy","legacy","0","uniform","0","0","0","undefined","undefined","0","f","2","1","NA","0","1","0","0","0","0","0","0","0","0","53","53","53","0","0","0","NA","0","0","2","0","0","0","2","53","53","53","53","53","Mon Nov  6 12:30:35 2017","Forced-choice identification task with a practice and an experimental phase","yes","NAP_GER_AA_4blocks_noglides.osexp","/Users/aviadalbert/Documents/Academisch/UoC/Dissertation/Experiment/OpenSesame/NAP-FC/NAP_GER_AA_4blocks_noglides","yes","no","sans","no","20","no","black","no","Weiter","yes","768","legacy","43","9","0","/Users/aviadalbert/Documents/Academisch/UoC/Dissertation/Experiment/OpenSesame/NAP-FC/NAP_GER_AA_4blocks_noglides/subject-45.csv","xpyriment","Jazzy James","3.1.9","yes","yes","59a800d99ad5a1025d81bb03","59a801616c613b0251691de0","no","no","0","j","f","space","NA","space","space","j","1653","1662","37680","NA","27739","26091","1653","2","legacy","1024","1","44100","-16","experiment","nval","2","1","0","0","1","ENG","45","","odd","2787575","2749330","NA","NA","2789238","2787571","NA","2152945","2787070","2152946","2152946","2662223","2689966","2922681","2921177","2924335","2719783","2716343","2749330","NA","2610591","2650959","2747672","2716121","2787574","2716346","NA","2922681","2922681","2883131","2883127","2921173","NAP perception","32","55279","44","yes","1024"
"73.3333333333","yes","73.3333333333","1250.06666667","1250.06666667","white","no","xpyriment","Ich habe die obigen Informationen gelesen und verstanden.","legacy","legacy","0","uniform","1","0","0","undefined","undefined","1","f","2","1","NA","0","1","0","0","0","0","0","0","0","0","54","54","54","0","0","0","NA","0","0","2","0","0","0","2","54","54","54","54","54","Mon Nov  6 12:30:35 2017","Forced-choice identification task with a practice and an experimental phase","yes","NAP_GER_AA_4blocks_noglides.osexp","/Users/aviadalbert/Documents/Academisch/UoC/Dissertation/Experiment/OpenSesame/NAP-FC/NAP_GER_AA_4blocks_noglides","yes","no","sans","no","20","no","black","no","Weiter","yes","768","legacy","44","9","0","/Users/aviadalbert/Documents/Academisch/UoC/Dissertation/Experiment/OpenSesame/NAP-FC/NAP_GER_AA_4blocks_noglides/subject-45.csv","xpyriment","Jazzy James","3.1.9","yes","yes","59a800d99ad5a1025d81bb03","59a801616c613b0251691de0","no","no","0","f","f","space","NA","space","space","f","974","1662","37680","NA","27739","26091","974","2","legacy","1024","1","44100","-16","experiment","flal","2","1","0","0","1","ENG","45","","odd","2787575","2749330","NA","NA","2789238","2787571","NA","2152945","2787070","2152946","2152946","2662223","2689966","2926130","2924627","2927106","2719783","2716343","2749330","NA","2610591","2650959","2747672","2716121","2787574","2716346","NA","2926130","2926130","2883131","2883127","2924623","NAP perception","33","56253","45","yes","1024"
"71.7391304348","yes","71.7391304348","1252.08695652","1252.08695652","white","no","xpyriment","Ich habe die obigen Informationen gelesen und verstanden.","legacy","legacy","0","uniform","0","0","0","undefined","undefined","0","j","2","1","NA","0","1","0","0","0","0","0","0","0","0","55","55","55","0","0","0","NA","0","0","2","0","0","0","2","55","55","55","55","55","Mon Nov  6 12:30:35 2017","Forced-choice identification task with a practice and an experimental phase","yes","NAP_GER_AA_4blocks_noglides.osexp","/Users/aviadalbert/Documents/Academisch/UoC/Dissertation/Experiment/OpenSesame/NAP-FC/NAP_GER_AA_4blocks_noglides","yes","no","sans","no","20","no","black","no","Weiter","yes","768","legacy","45","9","0","/Users/aviadalbert/Documents/Academisch/UoC/Dissertation/Experiment/OpenSesame/NAP-FC/NAP_GER_AA_4blocks_noglides/subject-45.csv","xpyriment","Jazzy James","3.1.9","yes","yes","59a800d99ad5a1025d81bb03","59a801616c613b0251691de0","no","no","0","f","f","space","NA","space","space","f","1343","1662","37680","NA","27739","26091","1343","2","legacy","1024","1","44100","-16","experiment","emsal","2","1","0","0","1","ENG","45","","odd","2787575","2749330","NA","NA","2789238","2787571","NA","2152945","2787070","2152946","2152946","2662223","2689966","2928888","2927380","2930233","2719783","2716343","2749330","NA","2610591","2650959","2747672","2716121","2787574","2716346","NA","2928888","2928888","2883131","2883127","2927376","NAP perception","33","57596","46","yes","1024"
"72.3404255319","yes","72.3404255319","1263.59574468","1263.59574468","white","no","xpyriment","Ich habe die obigen Informationen gelesen und verstanden.","legacy","legacy","0","uniform","1","0","0","undefined","undefined","1","f","2","1","NA","0","1","0","0","0","0","0","0","0","0","56","56","56","0","0","0","NA","0","0","2","0","0","0","2","56","56","56","56","56","Mon Nov  6 12:30:35 2017","Forced-choice identification task with a practice and an experimental phase","yes","NAP_GER_AA_4blocks_noglides.osexp","/Users/aviadalbert/Documents/Academisch/UoC/Dissertation/Experiment/OpenSesame/NAP-FC/NAP_GER_AA_4blocks_noglides","yes","no","sans","no","20","no","black","no","Weiter","yes","768","legacy","46","9","0","/Users/aviadalbert/Documents/Academisch/UoC/Dissertation/Experiment/OpenSesame/NAP-FC/NAP_GER_AA_4blocks_noglides/subject-45.csv","xpyriment","Jazzy James","3.1.9","yes","yes","59a800d99ad5a1025d81bb03","59a801616c613b0251691de0","no","no","0","f","f","space","NA","space","space","f","1793","1662","37680","NA","27739","26091","1793","2","legacy","1024","1","44100","-16","experiment","mnal","2","1","0","0","1","ENG","45","","odd","2787575","2749330","NA","NA","2789238","2787571","NA","2152945","2787070","2152946","2152946","2662223","2689966","2932036","2930531","2933831","2719783","2716343","2749330","NA","2610591","2650959","2747672","2716121","2787574","2716346","NA","2932035","2932036","2883131","2883127","2930528","NAP perception","34","59389","47","yes","1024"
"70.8333333333","yes","70.8333333333","1276.4375","1276.4375","white","no","xpyriment","Ich habe die obigen Informationen gelesen und verstanden.","legacy","legacy","0","uniform","0","0","0","undefined","undefined","0","f","2","1","NA","0","1","0","0","0","0","0","0","0","0","57","57","57","0","0","0","NA","0","0","2","0","0","0","2","57","57","57","57","57","Mon Nov  6 12:30:35 2017","Forced-choice identification task with a practice and an experimental phase","yes","NAP_GER_AA_4blocks_noglides.osexp","/Users/aviadalbert/Documents/Academisch/UoC/Dissertation/Experiment/OpenSesame/NAP-FC/NAP_GER_AA_4blocks_noglides","yes","no","sans","no","20","no","black","no","Weiter","yes","768","legacy","47","9","0","/Users/aviadalbert/Documents/Academisch/UoC/Dissertation/Experiment/OpenSesame/NAP-FC/NAP_GER_AA_4blocks_noglides/subject-45.csv","xpyriment","Jazzy James","3.1.9","yes","yes","59a800d99ad5a1025d81bb03","59a801616c613b0251691de0","no","no","0","j","f","space","NA","space","space","j","1880","1662","37680","NA","27739","26091","1880","2","legacy","1024","1","44100","-16","experiment","lkal","2","1","0","0","1","ENG","45","","odd","2787575","2749330","NA","NA","2789238","2787571","NA","2152945","2787070","2152946","2152946","2662223","2689966","2935634","2934127","2937515","2719783","2716343","2749330","NA","2610591","2650959","2747672","2716121","2787574","2716346","NA","2935634","2935634","2883131","2883127","2934123","NAP perception","34","61269","48","yes","1024"
"71.4285714286","yes","71.4285714286","1266.57142857","1266.57142857","white","no","xpyriment","Ich habe die obigen Informationen gelesen und verstanden.","legacy","legacy","0","uniform","1","0","0","undefined","undefined","1","j","2","1","NA","0","1","0","0","0","0","0","0","0","0","58","58","58","0","0","0","NA","0","0","2","0","0","0","2","58","58","58","58","58","Mon Nov  6 12:30:35 2017","Forced-choice identification task with a practice and an experimental phase","yes","NAP_GER_AA_4blocks_noglides.osexp","/Users/aviadalbert/Documents/Academisch/UoC/Dissertation/Experiment/OpenSesame/NAP-FC/NAP_GER_AA_4blocks_noglides","yes","no","sans","no","20","no","black","no","Weiter","yes","768","legacy","48","9","0","/Users/aviadalbert/Documents/Academisch/UoC/Dissertation/Experiment/OpenSesame/NAP-FC/NAP_GER_AA_4blocks_noglides/subject-45.csv","xpyriment","Jazzy James","3.1.9","yes","yes","59a800d99ad5a1025d81bb03","59a801616c613b0251691de0","no","no","0","j","f","space","NA","space","space","j","793","1662","37680","NA","27739","26091","793","2","legacy","1024","1","44100","-16","experiment","esfal","2","1","0","0","1","ENG","45","","odd","2787575","2749330","NA","NA","2789238","2787571","NA","2152945","2787070","2152946","2152946","2662223","2689966","2939301","2937795","2940095","2719783","2716343","2749330","NA","2610591","2650959","2747672","2716121","2787574","2716346","NA","2939300","2939301","2883131","2883127","2937791","NAP perception","35","62062","49","yes","1024"
"70","yes","70","1270.14","1270.14","white","no","xpyriment","Ich habe die obigen Informationen gelesen und verstanden.","legacy","legacy","0","uniform","0","0","0","undefined","undefined","0","f","2","1","NA","0","1","0","0","0","0","0","0","0","0","59","59","59","0","0","0","NA","0","0","2","0","0","0","2","59","59","59","59","59","Mon Nov  6 12:30:35 2017","Forced-choice identification task with a practice and an experimental phase","yes","NAP_GER_AA_4blocks_noglides.osexp","/Users/aviadalbert/Documents/Academisch/UoC/Dissertation/Experiment/OpenSesame/NAP-FC/NAP_GER_AA_4blocks_noglides","yes","no","sans","no","20","no","black","no","Weiter","yes","768","legacy","49","9","0","/Users/aviadalbert/Documents/Academisch/UoC/Dissertation/Experiment/OpenSesame/NAP-FC/NAP_GER_AA_4blocks_noglides/subject-45.csv","xpyriment","Jazzy James","3.1.9","yes","yes","59a800d99ad5a1025d81bb03","59a801616c613b0251691de0","no","no","0","j","f","space","NA","space","space","j","1445","1662","37680","NA","27739","26091","1445","2","legacy","1024","1","44100","-16","experiment","lval","2","1","0","0","1","ENG","45","","odd","2787575","2749330","NA","NA","2789238","2787571","NA","2152945","2787070","2152946","2152946","2662223","2689966","2941876","2940371","2943322","2719783","2716343","2749330","NA","2610591","2650959","2747672","2716121","2787574","2716346","NA","2941876","2941876","2883131","2883127","2940367","NAP perception","35","63507","50","yes","1024"
"70.5882352941","yes","70.5882352941","1264.78431373","1264.78431373","white","no","xpyriment","Ich habe die obigen Informationen gelesen und verstanden.","legacy","legacy","0","uniform","1","0","0","undefined","undefined","1","f","2","1","NA","0","1","0","0","0","0","0","0","0","0","60","60","60","0","0","0","NA","0","0","2","0","0","0","2","60","60","60","60","60","Mon Nov  6 12:30:35 2017","Forced-choice identification task with a practice and an experimental phase","yes","NAP_GER_AA_4blocks_noglides.osexp","/Users/aviadalbert/Documents/Academisch/UoC/Dissertation/Experiment/OpenSesame/NAP-FC/NAP_GER_AA_4blocks_noglides","yes","no","sans","no","20","no","black","no","Weiter","yes","768","legacy","50","9","0","/Users/aviadalbert/Documents/Academisch/UoC/Dissertation/Experiment/OpenSesame/NAP-FC/NAP_GER_AA_4blocks_noglides/subject-45.csv","xpyriment","Jazzy James","3.1.9","yes","yes","59a800d99ad5a1025d81bb03","59a801616c613b0251691de0","no","no","0","f","f","space","NA","space","space","f","997","1662","37680","NA","27739","26091","997","2","legacy","1024","1","44100","-16","experiment","flal","2","1","0","0","1","ENG","45","","odd","2787575","2749330","NA","NA","2789238","2787571","NA","2152945","2787070","2152946","2152946","2662223","2689966","2945101","2943598","2946100","2719783","2716343","2749330","NA","2610591","2650959","2747672","2716121","2787574","2716346","NA","2945101","2945101","2883131","2883127","2943594","NAP perception","36","64504","51","yes","1024"
"71.1538461538","yes","71.1538461538","1280.32692308","1280.32692308","white","no","xpyriment","Ich habe die obigen Informationen gelesen und verstanden.","legacy","legacy","0","uniform","1","0","0","undefined","undefined","1","f","2","1","NA","0","1","0","0","0","0","0","0","0","0","61","61","61","0","0","0","NA","0","0","2","0","0","0","2","61","61","61","61","61","Mon Nov  6 12:30:35 2017","Forced-choice identification task with a practice and an experimental phase","yes","NAP_GER_AA_4blocks_noglides.osexp","/Users/aviadalbert/Documents/Academisch/UoC/Dissertation/Experiment/OpenSesame/NAP-FC/NAP_GER_AA_4blocks_noglides","yes","no","sans","no","20","no","black","no","Weiter","yes","768","legacy","51","9","0","/Users/aviadalbert/Documents/Academisch/UoC/Dissertation/Experiment/OpenSesame/NAP-FC/NAP_GER_AA_4blocks_noglides/subject-45.csv","xpyriment","Jazzy James","3.1.9","yes","yes","59a800d99ad5a1025d81bb03","59a801616c613b0251691de0","no","no","0","f","f","space","NA","space","space","f","2073","1662","37680","NA","27739","26091","2073","2","legacy","1024","1","44100","-16","experiment","vzal","2","1","0","0","1","ENG","45","","odd","2787575","2749330","NA","NA","2789238","2787571","NA","2152945","2787070","2152946","2152946","2662223","2689966","2947911","2946403","2949986","2719783","2716343","2749330","NA","2610591","2650959","2747672","2716121","2787574","2716346","NA","2947910","2947910","2883131","2883127","2946399","NAP perception","37","66577","52","yes","1024"
"71.6981132075","yes","71.6981132075","1271.37735849","1271.37735849","white","no","xpyriment","Ich habe die obigen Informationen gelesen und verstanden.","legacy","legacy","0","uniform","1","0","0","undefined","undefined","1","j","2","1","NA","0","1","0","0","0","0","0","0","0","0","62","62","62","0","0","0","NA","0","0","2","0","0","0","2","62","62","62","62","62","Mon Nov  6 12:30:35 2017","Forced-choice identification task with a practice and an experimental phase","yes","NAP_GER_AA_4blocks_noglides.osexp","/Users/aviadalbert/Documents/Academisch/UoC/Dissertation/Experiment/OpenSesame/NAP-FC/NAP_GER_AA_4blocks_noglides","yes","no","sans","no","20","no","black","no","Weiter","yes","768","legacy","52","9","0","/Users/aviadalbert/Documents/Academisch/UoC/Dissertation/Experiment/OpenSesame/NAP-FC/NAP_GER_AA_4blocks_noglides/subject-45.csv","xpyriment","Jazzy James","3.1.9","yes","yes","59a800d99ad5a1025d81bb03","59a801616c613b0251691de0","no","no","0","j","f","space","NA","space","space","j","806","1662","37680","NA","27739","26091","806","2","legacy","1024","1","44100","-16","experiment","fetal","2","1","0","0","1","ENG","45","","odd","2787575","2749330","NA","NA","2789238","2787571","NA","2152945","2787070","2152946","2152946","2662223","2689966","2951783","2950276","2952591","2719783","2716343","2749330","NA","2610591","2650959","2747672","2716121","2787574","2716346","NA","2951783","2951783","2883131","2883127","2950272","NAP perception","38","67383","53","yes","1024"
"72.2222222222","yes","72.2222222222","1264.14814815","1264.14814815","white","no","xpyriment","Ich habe die obigen Informationen gelesen und verstanden.","legacy","legacy","0","uniform","1","0","0","undefined","undefined","1","j","2","1","NA","0","1","0","0","0","0","0","0","0","0","63","63","63","0","0","0","NA","0","0","2","0","0","0","2","63","63","63","63","63","Mon Nov  6 12:30:35 2017","Forced-choice identification task with a practice and an experimental phase","yes","NAP_GER_AA_4blocks_noglides.osexp","/Users/aviadalbert/Documents/Academisch/UoC/Dissertation/Experiment/OpenSesame/NAP-FC/NAP_GER_AA_4blocks_noglides","yes","no","sans","no","20","no","black","no","Weiter","yes","768","legacy","53","9","0","/Users/aviadalbert/Documents/Academisch/UoC/Dissertation/Experiment/OpenSesame/NAP-FC/NAP_GER_AA_4blocks_noglides/subject-45.csv","xpyriment","Jazzy James","3.1.9","yes","yes","59a800d99ad5a1025d81bb03","59a801616c613b0251691de0","no","no","0","j","f","space","NA","space","space","j","881","1662","37680","NA","27739","26091","881","2","legacy","1024","1","44100","-16","experiment","enmal","2","1","0","0","1","ENG","45","","odd","2787575","2749330","NA","NA","2789238","2787571","NA","2152945","2787070","2152946","2152946","2662223","2689966","2954373","2952869","2955256","2719783","2716343","2749330","NA","2610591","2650959","2747672","2716121","2787574","2716346","NA","2954372","2954373","2883131","2883127","2952865","NAP perception","39","68264","54","yes","1024"
"72.7272727273","yes","72.7272727273","1258.76363636","1258.76363636","white","no","xpyriment","Ich habe die obigen Informationen gelesen und verstanden.","legacy","legacy","0","uniform","1","0","0","undefined","undefined","1","f","2","1","NA","0","1","0","0","0","0","0","0","0","0","64","64","64","0","0","0","NA","0","0","2","0","0","0","2","64","64","64","64","64","Mon Nov  6 12:30:35 2017","Forced-choice identification task with a practice and an experimental phase","yes","NAP_GER_AA_4blocks_noglides.osexp","/Users/aviadalbert/Documents/Academisch/UoC/Dissertation/Experiment/OpenSesame/NAP-FC/NAP_GER_AA_4blocks_noglides","yes","no","sans","no","20","no","black","no","Weiter","yes","768","legacy","54","9","0","/Users/aviadalbert/Documents/Academisch/UoC/Dissertation/Experiment/OpenSesame/NAP-FC/NAP_GER_AA_4blocks_noglides/subject-45.csv","xpyriment","Jazzy James","3.1.9","yes","yes","59a800d99ad5a1025d81bb03","59a801616c613b0251691de0","no","no","0","f","f","space","NA","space","space","f","968","1662","37680","NA","27739","26091","968","2","legacy","1024","1","44100","-16","experiment","smal","2","1","0","0","1","ENG","45","","odd","2787575","2749330","NA","NA","2789238","2787571","NA","2152945","2787070","2152946","2152946","2662223","2689966","2957047","2955544","2958017","2719783","2716343","2749330","NA","2610591","2650959","2747672","2716121","2787574","2716346","NA","2957047","2957047","2883131","2883127","2955540","NAP perception","40","69232","55","yes","1024"
