"acc","accept_status","accuracy","average_response_time","avg_rt","background","bidi","canvas_backend","checkbox_status","clock_backend","color_backend","compensation","coordinates","correct","correct_block_activation","correct_block_exit","correct_instructions_1","correct_instructions_2","correct_keyboard_response","correct_response","count_block_activation","count_block_exit","count_block_info_QA","count_cont_e_block_message","count_e_block_loop","count_e_block_sequence","count_end_of_experiment","count_experiment","count_experimental_loop","count_form_consent","count_info_forms","count_instructions_1","count_instructions_2","count_keyboard_response","count_listen_message","count_logger","count_p_block_loop","count_p_block_sequence","count_p_feedback","count_pause_feedback","count_personal_details_form_1","count_personal_details_form_2","count_post_loop_blank","count_practice_loop","count_pre_e_block_message","count_pre_p_block_message","count_reset_feedback","count_stimulus_image","count_stimulus_sound","count_timeout_message","count_timeout_sound","count_trial_sequence","datetime","description","disable_garbage_collection","experiment_file","experiment_path","expyriment_opengl","font_bold","font_family","font_italic","font_size","font_underline","foreground","form_clicks","form_response","fullscreen","height","keyboard_backend","live_row","live_row_p_block_loop","live_row_practice_loop","logfile","mouse_backend","opensesame_codename","opensesame_version","osf_always_upload_data","osf_always_upload_experiment","osf_datanode_id","osf_id","practice","pygame_doublebuf","repeat_cycle","response","response_block_activation","response_block_exit","response_block_info_QA","response_instructions_1","response_instructions_2","response_keyboard_response","response_time","response_time_block_activation","response_time_block_exit","response_time_block_info_QA","response_time_instructions_1","response_time_instructions_2","response_time_keyboard_response","round_decimals","sampler_backend","sound_buf_size","sound_channels","sound_freq","sound_sample_size","start","stimulus","subject_age","subject_education","subject_gender","subject_german_native","subject_handedness","subject_language_other","subject_nr","subject_other_native_lang","subject_parity","time_block_activation","time_block_exit","time_block_info_QA","time_cont_e_block_message","time_e_block_loop","time_e_block_sequence","time_end_of_experiment","time_experiment","time_experimental_loop","time_form_consent","time_info_forms","time_instructions_1","time_instructions_2","time_keyboard_response","time_listen_message","time_logger","time_p_block_loop","time_p_block_sequence","time_p_feedback","time_pause_feedback","time_personal_details_form_1","time_personal_details_form_2","time_post_loop_blank","time_practice_loop","time_pre_e_block_message","time_pre_p_block_message","time_reset_feedback","time_stimulus_image","time_stimulus_sound","time_timeout_message","time_timeout_sound","time_trial_sequence","title","total_correct","total_response_time","total_responses","uniform_coordinates","width"
"0","yes","0","3000","3000","white","no","xpyriment","Ich habe die obigen Informationen gelesen und verstanden.","legacy","legacy","0","uniform","0","0","NA","undefined","undefined","0","f","0","0","NA","NA","NA","NA","NA","0","0","0","0","0","0","0","0","0","0","0","NA","NA","0","0","0","0","NA","0","0","0","0","0","0","0","Sat Oct 28 10:54:57 2017","Forced-choice identification task with a practice and an experimental phase","yes","NAP_GER_AA_4blocks_noglides.osexp","/Users/aviadalbert/Documents/Academisch/UoC/Dissertation/Experiment/OpenSesame/NAP-FC/NAP_GER_AA_4blocks_noglides","yes","no","sans","no","20","no","black","no","Weiter","yes","768","legacy","0","0","0","/Users/aviadalbert/Documents/Academisch/UoC/Dissertation/Experiment/OpenSesame/NAP-FC/NAP_GER_AA_4blocks_noglides/subject-33.csv","xpyriment","Jazzy James","3.1.9","yes","yes","59a800d99ad5a1025d81bb03","59a801616c613b0251691de0","yes","no","0","None","f","NA","NA","space","space","None","3000","5270","NA","NA","112547","12354","3000","2","legacy","1024","1","44100","-16","experiment","flal","2","0","1","0","1","Eng, French","33","","odd","505465","NA","NA","NA","NA","NA","NA","19392","NA","19393","19392","380270","492821","512444","510941","516447","510736","505461","NA","NA","322064","369725","NA","505236","NA","505465","NA","512444","512444","515447","515444","510938","NAP perception","0","3000","1","yes","1024"
"50","yes","50","2120.5","2120.5","white","no","xpyriment","Ich habe die obigen Informationen gelesen und verstanden.","legacy","legacy","0","uniform","1","0","NA","undefined","undefined","1","j","0","0","NA","NA","NA","NA","NA","0","0","0","0","0","0","1","1","1","0","0","NA","NA","0","0","0","0","NA","0","0","1","1","1","1","1","Sat Oct 28 10:54:57 2017","Forced-choice identification task with a practice and an experimental phase","yes","NAP_GER_AA_4blocks_noglides.osexp","/Users/aviadalbert/Documents/Academisch/UoC/Dissertation/Experiment/OpenSesame/NAP-FC/NAP_GER_AA_4blocks_noglides","yes","no","sans","no","20","no","black","no","Weiter","yes","768","legacy","1","1","0","/Users/aviadalbert/Documents/Academisch/UoC/Dissertation/Experiment/OpenSesame/NAP-FC/NAP_GER_AA_4blocks_noglides/subject-33.csv","xpyriment","Jazzy James","3.1.9","yes","yes","59a800d99ad5a1025d81bb03","59a801616c613b0251691de0","yes","no","0","j","f","NA","NA","space","space","j","1241","5270","NA","NA","112547","12354","1241","2","legacy","1024","1","44100","-16","experiment","lepal","2","0","1","0","1","Eng, French","33","","odd","505465","NA","NA","NA","NA","NA","NA","19392","NA","19393","19392","380270","492821","518226","516722","519468","510736","505461","NA","NA","322064","369725","NA","505236","NA","505465","NA","518226","518226","515447","515444","516718","NAP perception","1","4241","2","yes","1024"
"66.6666666667","yes","66.6666666667","1739.33333333","1739.33333333","white","no","xpyriment","Ich habe die obigen Informationen gelesen und verstanden.","legacy","legacy","0","uniform","1","0","NA","undefined","undefined","1","j","0","0","NA","NA","NA","NA","NA","0","0","0","0","0","0","2","2","2","0","0","NA","NA","0","0","0","0","NA","0","0","2","2","2","2","2","Sat Oct 28 10:54:57 2017","Forced-choice identification task with a practice and an experimental phase","yes","NAP_GER_AA_4blocks_noglides.osexp","/Users/aviadalbert/Documents/Academisch/UoC/Dissertation/Experiment/OpenSesame/NAP-FC/NAP_GER_AA_4blocks_noglides","yes","no","sans","no","20","no","black","no","Weiter","yes","768","legacy","2","2","0","/Users/aviadalbert/Documents/Academisch/UoC/Dissertation/Experiment/OpenSesame/NAP-FC/NAP_GER_AA_4blocks_noglides/subject-33.csv","xpyriment","Jazzy James","3.1.9","yes","yes","59a800d99ad5a1025d81bb03","59a801616c613b0251691de0","yes","no","0","j","f","NA","NA","space","space","j","977","5270","NA","NA","112547","12354","977","2","legacy","1024","1","44100","-16","experiment","emtal","2","0","1","0","1","Eng, French","33","","odd","505465","NA","NA","NA","NA","NA","NA","19392","NA","19393","19392","380270","492821","521242","519739","522220","510736","505461","NA","NA","322064","369725","NA","505236","NA","505465","NA","521242","521242","515447","515444","519735","NAP perception","2","5218","3","yes","1024"
"75","yes","75","1561.75","1561.75","white","no","xpyriment","Ich habe die obigen Informationen gelesen und verstanden.","legacy","legacy","0","uniform","1","0","NA","undefined","undefined","1","f","0","0","NA","NA","NA","NA","NA","0","0","0","0","0","0","3","3","3","0","0","NA","NA","0","0","0","0","NA","0","0","3","3","3","3","3","Sat Oct 28 10:54:57 2017","Forced-choice identification task with a practice and an experimental phase","yes","NAP_GER_AA_4blocks_noglides.osexp","/Users/aviadalbert/Documents/Academisch/UoC/Dissertation/Experiment/OpenSesame/NAP-FC/NAP_GER_AA_4blocks_noglides","yes","no","sans","no","20","no","black","no","Weiter","yes","768","legacy","3","3","0","/Users/aviadalbert/Documents/Academisch/UoC/Dissertation/Experiment/OpenSesame/NAP-FC/NAP_GER_AA_4blocks_noglides/subject-33.csv","xpyriment","Jazzy James","3.1.9","yes","yes","59a800d99ad5a1025d81bb03","59a801616c613b0251691de0","yes","no","0","f","f","NA","NA","space","space","f","1029","5270","NA","NA","112547","12354","1029","2","legacy","1024","1","44100","-16","experiment","ʃpal","2","0","1","0","1","Eng, French","33","","odd","505465","NA","NA","NA","NA","NA","NA","19392","NA","19393","19392","380270","492821","524009","522506","525039","510736","505461","NA","NA","322064","369725","NA","505236","NA","505465","NA","524009","524009","515447","515444","522502","NAP perception","3","6247","4","yes","1024"
"80","yes","80","1409.2","1409.2","white","no","xpyriment","Ich habe die obigen Informationen gelesen und verstanden.","legacy","legacy","0","uniform","1","0","NA","undefined","undefined","1","j","0","0","NA","NA","NA","NA","NA","0","0","0","0","0","0","4","4","4","0","0","NA","NA","0","0","0","0","NA","0","0","4","4","4","4","4","Sat Oct 28 10:54:57 2017","Forced-choice identification task with a practice and an experimental phase","yes","NAP_GER_AA_4blocks_noglides.osexp","/Users/aviadalbert/Documents/Academisch/UoC/Dissertation/Experiment/OpenSesame/NAP-FC/NAP_GER_AA_4blocks_noglides","yes","no","sans","no","20","no","black","no","Weiter","yes","768","legacy","4","4","0","/Users/aviadalbert/Documents/Academisch/UoC/Dissertation/Experiment/OpenSesame/NAP-FC/NAP_GER_AA_4blocks_noglides/subject-33.csv","xpyriment","Jazzy James","3.1.9","yes","yes","59a800d99ad5a1025d81bb03","59a801616c613b0251691de0","yes","no","0","j","f","NA","NA","space","space","j","799","5270","NA","NA","112547","12354","799","2","legacy","1024","1","44100","-16","experiment","nefal","2","0","1","0","1","Eng, French","33","","odd","505465","NA","NA","NA","NA","NA","NA","19392","NA","19393","19392","380270","492821","526818","525314","527618","510736","505461","NA","NA","322064","369725","NA","505236","NA","505465","NA","526818","526818","515447","515444","525310","NAP perception","4","7046","5","yes","1024"
"83.3333333333","yes","83.3333333333","1347.33333333","1347.33333333","white","no","xpyriment","Ich habe die obigen Informationen gelesen und verstanden.","legacy","legacy","0","uniform","1","0","NA","undefined","undefined","1","f","0","0","NA","NA","NA","NA","NA","0","0","0","0","0","0","5","5","5","0","0","NA","NA","0","0","0","0","NA","0","0","5","5","5","5","5","Sat Oct 28 10:54:57 2017","Forced-choice identification task with a practice and an experimental phase","yes","NAP_GER_AA_4blocks_noglides.osexp","/Users/aviadalbert/Documents/Academisch/UoC/Dissertation/Experiment/OpenSesame/NAP-FC/NAP_GER_AA_4blocks_noglides","yes","no","sans","no","20","no","black","no","Weiter","yes","768","legacy","5","5","0","/Users/aviadalbert/Documents/Academisch/UoC/Dissertation/Experiment/OpenSesame/NAP-FC/NAP_GER_AA_4blocks_noglides/subject-33.csv","xpyriment","Jazzy James","3.1.9","yes","yes","59a800d99ad5a1025d81bb03","59a801616c613b0251691de0","yes","no","0","f","f","NA","NA","space","space","f","1038","5270","NA","NA","112547","12354","1038","2","legacy","1024","1","44100","-16","experiment","sfal","2","0","1","0","1","Eng, French","33","","odd","505465","NA","NA","NA","NA","NA","NA","19392","NA","19393","19392","380270","492821","529406","527899","530445","510736","505461","NA","NA","322064","369725","NA","505236","NA","505465","NA","529405","529406","515447","515444","527895","NAP perception","5","8084","6","yes","1024"
"85.7142857143","yes","85.7142857143","1333.71428571","1333.71428571","white","no","xpyriment","Ich habe die obigen Informationen gelesen und verstanden.","legacy","legacy","0","uniform","1","0","NA","undefined","undefined","1","f","0","0","NA","NA","NA","NA","NA","0","0","0","0","0","0","6","6","6","0","0","NA","NA","0","0","0","0","NA","0","0","6","6","6","6","6","Sat Oct 28 10:54:57 2017","Forced-choice identification task with a practice and an experimental phase","yes","NAP_GER_AA_4blocks_noglides.osexp","/Users/aviadalbert/Documents/Academisch/UoC/Dissertation/Experiment/OpenSesame/NAP-FC/NAP_GER_AA_4blocks_noglides","yes","no","sans","no","20","no","black","no","Weiter","yes","768","legacy","6","6","0","/Users/aviadalbert/Documents/Academisch/UoC/Dissertation/Experiment/OpenSesame/NAP-FC/NAP_GER_AA_4blocks_noglides/subject-33.csv","xpyriment","Jazzy James","3.1.9","yes","yes","59a800d99ad5a1025d81bb03","59a801616c613b0251691de0","yes","no","0","f","f","NA","NA","space","space","f","1252","5270","NA","NA","112547","12354","1252","2","legacy","1024","1","44100","-16","experiment","zmal","2","0","1","0","1","Eng, French","33","","odd","505465","NA","NA","NA","NA","NA","NA","19392","NA","19393","19392","380270","492821","532214","530708","533467","510736","505461","NA","NA","322064","369725","NA","505236","NA","505465","NA","532214","532214","515447","515444","530704","NAP perception","6","9336","7","yes","1024"
"87.5","yes","87.5","1275.625","1275.625","white","no","xpyriment","Ich habe die obigen Informationen gelesen und verstanden.","legacy","legacy","0","uniform","1","0","NA","undefined","undefined","1","j","0","0","NA","NA","NA","NA","NA","0","0","0","0","0","0","7","7","7","0","0","NA","NA","0","0","0","0","NA","0","0","7","7","7","7","7","Sat Oct 28 10:54:57 2017","Forced-choice identification task with a practice and an experimental phase","yes","NAP_GER_AA_4blocks_noglides.osexp","/Users/aviadalbert/Documents/Academisch/UoC/Dissertation/Experiment/OpenSesame/NAP-FC/NAP_GER_AA_4blocks_noglides","yes","no","sans","no","20","no","black","no","Weiter","yes","768","legacy","7","7","0","/Users/aviadalbert/Documents/Academisch/UoC/Dissertation/Experiment/OpenSesame/NAP-FC/NAP_GER_AA_4blocks_noglides/subject-33.csv","xpyriment","Jazzy James","3.1.9","yes","yes","59a800d99ad5a1025d81bb03","59a801616c613b0251691de0","yes","no","0","j","f","NA","NA","space","space","j","869","5270","NA","NA","112547","12354","869","2","legacy","1024","1","44100","-16","experiment","mesal","2","0","1","0","1","Eng, French","33","","odd","505465","NA","NA","NA","NA","NA","NA","19392","NA","19393","19392","380270","492821","535245","533742","536115","510736","505461","NA","NA","322064","369725","NA","505236","NA","505465","NA","535245","535245","515447","515444","533738","NAP perception","7","10205","8","yes","1024"
"88.8888888889","yes","88.8888888889","1226.11111111","1226.11111111","white","no","xpyriment","Ich habe die obigen Informationen gelesen und verstanden.","legacy","legacy","0","uniform","1","0","NA","undefined","undefined","1","j","0","0","NA","NA","NA","NA","NA","0","0","0","0","0","0","8","8","8","0","0","NA","NA","0","0","0","0","NA","0","0","8","8","8","8","8","Sat Oct 28 10:54:57 2017","Forced-choice identification task with a practice and an experimental phase","yes","NAP_GER_AA_4blocks_noglides.osexp","/Users/aviadalbert/Documents/Academisch/UoC/Dissertation/Experiment/OpenSesame/NAP-FC/NAP_GER_AA_4blocks_noglides","yes","no","sans","no","20","no","black","no","Weiter","yes","768","legacy","8","8","0","/Users/aviadalbert/Documents/Academisch/UoC/Dissertation/Experiment/OpenSesame/NAP-FC/NAP_GER_AA_4blocks_noglides/subject-33.csv","xpyriment","Jazzy James","3.1.9","yes","yes","59a800d99ad5a1025d81bb03","59a801616c613b0251691de0","yes","no","0","j","f","NA","NA","space","space","j","830","5270","NA","NA","112547","12354","830","2","legacy","1024","1","44100","-16","experiment","enval","2","0","1","0","1","Eng, French","33","","odd","505465","NA","NA","NA","NA","NA","NA","19392","NA","19393","19392","380270","492821","537892","536389","538723","510736","505461","NA","NA","322064","369725","NA","505236","NA","505465","NA","537892","537892","515447","515444","536385","NAP perception","8","11035","9","yes","1024"
"90","yes","90","1193.7","1193.7","white","no","xpyriment","Ich habe die obigen Informationen gelesen und verstanden.","legacy","legacy","0","uniform","1","0","NA","undefined","undefined","1","f","0","0","NA","NA","NA","NA","NA","0","0","0","0","0","0","9","9","9","0","0","NA","NA","0","0","0","0","NA","0","0","9","9","9","9","9","Sat Oct 28 10:54:57 2017","Forced-choice identification task with a practice and an experimental phase","yes","NAP_GER_AA_4blocks_noglides.osexp","/Users/aviadalbert/Documents/Academisch/UoC/Dissertation/Experiment/OpenSesame/NAP-FC/NAP_GER_AA_4blocks_noglides","yes","no","sans","no","20","no","black","no","Weiter","yes","768","legacy","9","9","0","/Users/aviadalbert/Documents/Academisch/UoC/Dissertation/Experiment/OpenSesame/NAP-FC/NAP_GER_AA_4blocks_noglides/subject-33.csv","xpyriment","Jazzy James","3.1.9","yes","yes","59a800d99ad5a1025d81bb03","59a801616c613b0251691de0","yes","no","0","f","f","NA","NA","space","space","f","902","5270","NA","NA","112547","12354","902","2","legacy","1024","1","44100","-16","experiment","vlal","2","0","1","0","1","Eng, French","33","","odd","505465","NA","NA","NA","NA","NA","NA","19392","NA","19393","19392","380270","492821","540492","538985","541395","510736","505461","NA","NA","322064","369725","NA","505236","NA","505465","NA","540492","540492","515447","515444","538981","NAP perception","9","11937","10","yes","1024"
"100","yes","100","1096","1096","white","no","xpyriment","Ich habe die obigen Informationen gelesen und verstanden.","legacy","legacy","0","uniform","1","0","0","undefined","undefined","1","j","2","1","NA","0","1","0","0","0","0","0","0","0","0","10","10","10","0","0","0","NA","0","0","2","0","0","0","2","10","10","10","10","10","Sat Oct 28 10:54:57 2017","Forced-choice identification task with a practice and an experimental phase","yes","NAP_GER_AA_4blocks_noglides.osexp","/Users/aviadalbert/Documents/Academisch/UoC/Dissertation/Experiment/OpenSesame/NAP-FC/NAP_GER_AA_4blocks_noglides","yes","no","sans","no","20","no","black","no","Weiter","yes","768","legacy","0","9","0","/Users/aviadalbert/Documents/Academisch/UoC/Dissertation/Experiment/OpenSesame/NAP-FC/NAP_GER_AA_4blocks_noglides/subject-33.csv","xpyriment","Jazzy James","3.1.9","yes","yes","59a800d99ad5a1025d81bb03","59a801616c613b0251691de0","no","no","0","j","j","space","NA","space","space","j","1096","2217","26999","NA","112547","12354","1096","2","legacy","1024","1","44100","-16","experiment","venal","2","0","1","0","1","Eng, French","33","","odd","570633","543118","NA","NA","572851","570629","NA","19392","570172","19393","19392","380270","492821","574568","573061","575665","510736","505461","543118","NA","322064","369725","541458","505236","570633","505465","NA","574567","574567","515447","515444","573058","NAP perception","1","1096","1","yes","1024"
"100","yes","100","902","902","white","no","xpyriment","Ich habe die obigen Informationen gelesen und verstanden.","legacy","legacy","0","uniform","1","0","0","undefined","undefined","1","f","2","1","NA","0","1","0","0","0","0","0","0","0","0","11","11","11","0","0","0","NA","0","0","2","0","0","0","2","11","11","11","11","11","Sat Oct 28 10:54:57 2017","Forced-choice identification task with a practice and an experimental phase","yes","NAP_GER_AA_4blocks_noglides.osexp","/Users/aviadalbert/Documents/Academisch/UoC/Dissertation/Experiment/OpenSesame/NAP-FC/NAP_GER_AA_4blocks_noglides","yes","no","sans","no","20","no","black","no","Weiter","yes","768","legacy","1","9","0","/Users/aviadalbert/Documents/Academisch/UoC/Dissertation/Experiment/OpenSesame/NAP-FC/NAP_GER_AA_4blocks_noglides/subject-33.csv","xpyriment","Jazzy James","3.1.9","yes","yes","59a800d99ad5a1025d81bb03","59a801616c613b0251691de0","no","no","0","f","j","space","NA","space","space","f","708","2217","26999","NA","112547","12354","708","2","legacy","1024","1","44100","-16","experiment","fsal","2","0","1","0","1","Eng, French","33","","odd","570633","543118","NA","NA","572851","570629","NA","19392","570172","19393","19392","380270","492821","577450","575946","578159","510736","505461","543118","NA","322064","369725","541458","505236","570633","505465","NA","577449","577449","515447","515444","575942","NAP perception","2","1804","2","yes","1024"
"100","yes","100","820.333333333","820.333333333","white","no","xpyriment","Ich habe die obigen Informationen gelesen und verstanden.","legacy","legacy","0","uniform","1","0","0","undefined","undefined","1","j","2","1","NA","0","1","0","0","0","0","0","0","0","0","12","12","12","0","0","0","NA","0","0","2","0","0","0","2","12","12","12","12","12","Sat Oct 28 10:54:57 2017","Forced-choice identification task with a practice and an experimental phase","yes","NAP_GER_AA_4blocks_noglides.osexp","/Users/aviadalbert/Documents/Academisch/UoC/Dissertation/Experiment/OpenSesame/NAP-FC/NAP_GER_AA_4blocks_noglides","yes","no","sans","no","20","no","black","no","Weiter","yes","768","legacy","2","9","0","/Users/aviadalbert/Documents/Academisch/UoC/Dissertation/Experiment/OpenSesame/NAP-FC/NAP_GER_AA_4blocks_noglides/subject-33.csv","xpyriment","Jazzy James","3.1.9","yes","yes","59a800d99ad5a1025d81bb03","59a801616c613b0251691de0","no","no","0","j","j","space","NA","space","space","j","657","2217","26999","NA","112547","12354","657","2","legacy","1024","1","44100","-16","experiment","espal","2","0","1","0","1","Eng, French","33","","odd","570633","543118","NA","NA","572851","570629","NA","19392","570172","19393","19392","380270","492821","579955","578452","580613","510736","505461","543118","NA","322064","369725","541458","505236","570633","505465","NA","579955","579955","515447","515444","578448","NAP perception","3","2461","3","yes","1024"
"100","yes","100","998.25","998.25","white","no","xpyriment","Ich habe die obigen Informationen gelesen und verstanden.","legacy","legacy","0","uniform","1","0","0","undefined","undefined","1","f","2","1","NA","0","1","0","0","0","0","0","0","0","0","13","13","13","0","0","0","NA","0","0","2","0","0","0","2","13","13","13","13","13","Sat Oct 28 10:54:57 2017","Forced-choice identification task with a practice and an experimental phase","yes","NAP_GER_AA_4blocks_noglides.osexp","/Users/aviadalbert/Documents/Academisch/UoC/Dissertation/Experiment/OpenSesame/NAP-FC/NAP_GER_AA_4blocks_noglides","yes","no","sans","no","20","no","black","no","Weiter","yes","768","legacy","3","9","0","/Users/aviadalbert/Documents/Academisch/UoC/Dissertation/Experiment/OpenSesame/NAP-FC/NAP_GER_AA_4blocks_noglides/subject-33.csv","xpyriment","Jazzy James","3.1.9","yes","yes","59a800d99ad5a1025d81bb03","59a801616c613b0251691de0","no","no","0","f","j","space","NA","space","space","f","1532","2217","26999","NA","112547","12354","1532","2","legacy","1024","1","44100","-16","experiment","npal","2","0","1","0","1","Eng, French","33","","odd","570633","543118","NA","NA","572851","570629","NA","19392","570172","19393","19392","380270","492821","582394","580887","583928","510736","505461","543118","NA","322064","369725","541458","505236","570633","505465","NA","582393","582393","515447","515444","580883","NAP perception","4","3993","4","yes","1024"
"100","yes","100","973","973","white","no","xpyriment","Ich habe die obigen Informationen gelesen und verstanden.","legacy","legacy","0","uniform","1","0","0","undefined","undefined","1","f","2","1","NA","0","1","0","0","0","0","0","0","0","0","14","14","14","0","0","0","NA","0","0","2","0","0","0","2","14","14","14","14","14","Sat Oct 28 10:54:57 2017","Forced-choice identification task with a practice and an experimental phase","yes","NAP_GER_AA_4blocks_noglides.osexp","/Users/aviadalbert/Documents/Academisch/UoC/Dissertation/Experiment/OpenSesame/NAP-FC/NAP_GER_AA_4blocks_noglides","yes","no","sans","no","20","no","black","no","Weiter","yes","768","legacy","4","9","0","/Users/aviadalbert/Documents/Academisch/UoC/Dissertation/Experiment/OpenSesame/NAP-FC/NAP_GER_AA_4blocks_noglides/subject-33.csv","xpyriment","Jazzy James","3.1.9","yes","yes","59a800d99ad5a1025d81bb03","59a801616c613b0251691de0","no","no","0","f","j","space","NA","space","space","f","872","2217","26999","NA","112547","12354","872","2","legacy","1024","1","44100","-16","experiment","mnal","2","0","1","0","1","Eng, French","33","","odd","570633","543118","NA","NA","572851","570629","NA","19392","570172","19393","19392","380270","492821","585718","584211","586592","510736","505461","543118","NA","322064","369725","541458","505236","570633","505465","NA","585718","585718","515447","515444","584207","NAP perception","5","4865","5","yes","1024"
"100","yes","100","1049.66666667","1049.66666667","white","no","xpyriment","Ich habe die obigen Informationen gelesen und verstanden.","legacy","legacy","0","uniform","1","0","0","undefined","undefined","1","j","2","1","NA","0","1","0","0","0","0","0","0","0","0","15","15","15","0","0","0","NA","0","0","2","0","0","0","2","15","15","15","15","15","Sat Oct 28 10:54:57 2017","Forced-choice identification task with a practice and an experimental phase","yes","NAP_GER_AA_4blocks_noglides.osexp","/Users/aviadalbert/Documents/Academisch/UoC/Dissertation/Experiment/OpenSesame/NAP-FC/NAP_GER_AA_4blocks_noglides","yes","no","sans","no","20","no","black","no","Weiter","yes","768","legacy","5","9","0","/Users/aviadalbert/Documents/Academisch/UoC/Dissertation/Experiment/OpenSesame/NAP-FC/NAP_GER_AA_4blocks_noglides/subject-33.csv","xpyriment","Jazzy James","3.1.9","yes","yes","59a800d99ad5a1025d81bb03","59a801616c613b0251691de0","no","no","0","j","j","space","NA","space","space","j","1433","2217","26999","NA","112547","12354","1433","2","legacy","1024","1","44100","-16","experiment","mezal","2","0","1","0","1","Eng, French","33","","odd","570633","543118","NA","NA","572851","570629","NA","19392","570172","19393","19392","380270","492821","588375","586868","589810","510736","505461","543118","NA","322064","369725","541458","505236","570633","505465","NA","588375","588375","515447","515444","586864","NAP perception","6","6298","6","yes","1024"
"100","yes","100","1039.57142857","1039.57142857","white","no","xpyriment","Ich habe die obigen Informationen gelesen und verstanden.","legacy","legacy","0","uniform","1","0","0","undefined","undefined","1","f","2","1","NA","0","1","0","0","0","0","0","0","0","0","16","16","16","0","0","0","NA","0","0","2","0","0","0","2","16","16","16","16","16","Sat Oct 28 10:54:57 2017","Forced-choice identification task with a practice and an experimental phase","yes","NAP_GER_AA_4blocks_noglides.osexp","/Users/aviadalbert/Documents/Academisch/UoC/Dissertation/Experiment/OpenSesame/NAP-FC/NAP_GER_AA_4blocks_noglides","yes","no","sans","no","20","no","black","no","Weiter","yes","768","legacy","6","9","0","/Users/aviadalbert/Documents/Academisch/UoC/Dissertation/Experiment/OpenSesame/NAP-FC/NAP_GER_AA_4blocks_noglides/subject-33.csv","xpyriment","Jazzy James","3.1.9","yes","yes","59a800d99ad5a1025d81bb03","59a801616c613b0251691de0","no","no","0","f","j","space","NA","space","space","f","979","2217","26999","NA","112547","12354","979","2","legacy","1024","1","44100","-16","experiment","nfal","2","0","1","0","1","Eng, French","33","","odd","570633","543118","NA","NA","572851","570629","NA","19392","570172","19393","19392","380270","492821","591580","590076","592561","510736","505461","543118","NA","322064","369725","541458","505236","570633","505465","NA","591580","591580","515447","515444","590072","NAP perception","7","7277","7","yes","1024"
"100","yes","100","1072.875","1072.875","white","no","xpyriment","Ich habe die obigen Informationen gelesen und verstanden.","legacy","legacy","0","uniform","1","0","0","undefined","undefined","1","j","2","1","NA","0","1","0","0","0","0","0","0","0","0","17","17","17","0","0","0","NA","0","0","2","0","0","0","2","17","17","17","17","17","Sat Oct 28 10:54:57 2017","Forced-choice identification task with a practice and an experimental phase","yes","NAP_GER_AA_4blocks_noglides.osexp","/Users/aviadalbert/Documents/Academisch/UoC/Dissertation/Experiment/OpenSesame/NAP-FC/NAP_GER_AA_4blocks_noglides","yes","no","sans","no","20","no","black","no","Weiter","yes","768","legacy","7","9","0","/Users/aviadalbert/Documents/Academisch/UoC/Dissertation/Experiment/OpenSesame/NAP-FC/NAP_GER_AA_4blocks_noglides/subject-33.csv","xpyriment","Jazzy James","3.1.9","yes","yes","59a800d99ad5a1025d81bb03","59a801616c613b0251691de0","no","no","0","j","j","space","NA","space","space","j","1306","2217","26999","NA","112547","12354","1306","2","legacy","1024","1","44100","-16","experiment","ʃefal","2","0","1","0","1","Eng, French","33","","odd","570633","543118","NA","NA","572851","570629","NA","19392","570172","19393","19392","380270","492821","594335","592832","595642","510736","505461","543118","NA","322064","369725","541458","505236","570633","505465","NA","594335","594335","515447","515444","592829","NAP perception","8","8583","8","yes","1024"
"100","yes","100","1044.88888889","1044.88888889","white","no","xpyriment","Ich habe die obigen Informationen gelesen und verstanden.","legacy","legacy","0","uniform","1","0","0","undefined","undefined","1","j","2","1","NA","0","1","0","0","0","0","0","0","0","0","18","18","18","0","0","0","NA","0","0","2","0","0","0","2","18","18","18","18","18","Sat Oct 28 10:54:57 2017","Forced-choice identification task with a practice and an experimental phase","yes","NAP_GER_AA_4blocks_noglides.osexp","/Users/aviadalbert/Documents/Academisch/UoC/Dissertation/Experiment/OpenSesame/NAP-FC/NAP_GER_AA_4blocks_noglides","yes","no","sans","no","20","no","black","no","Weiter","yes","768","legacy","8","9","0","/Users/aviadalbert/Documents/Academisch/UoC/Dissertation/Experiment/OpenSesame/NAP-FC/NAP_GER_AA_4blocks_noglides/subject-33.csv","xpyriment","Jazzy James","3.1.9","yes","yes","59a800d99ad5a1025d81bb03","59a801616c613b0251691de0","no","no","0","j","j","space","NA","space","space","j","821","2217","26999","NA","112547","12354","821","2","legacy","1024","1","44100","-16","experiment","semal","2","0","1","0","1","Eng, French","33","","odd","570633","543118","NA","NA","572851","570629","NA","19392","570172","19393","19392","380270","492821","597418","595912","598240","510736","505461","543118","NA","322064","369725","541458","505236","570633","505465","NA","597417","597418","515447","515444","595908","NAP perception","9","9404","9","yes","1024"
"100","yes","100","1016.6","1016.6","white","no","xpyriment","Ich habe die obigen Informationen gelesen und verstanden.","legacy","legacy","0","uniform","1","0","0","undefined","undefined","1","j","2","1","NA","0","1","0","0","0","0","0","0","0","0","19","19","19","0","0","0","NA","0","0","2","0","0","0","2","19","19","19","19","19","Sat Oct 28 10:54:57 2017","Forced-choice identification task with a practice and an experimental phase","yes","NAP_GER_AA_4blocks_noglides.osexp","/Users/aviadalbert/Documents/Academisch/UoC/Dissertation/Experiment/OpenSesame/NAP-FC/NAP_GER_AA_4blocks_noglides","yes","no","sans","no","20","no","black","no","Weiter","yes","768","legacy","9","9","0","/Users/aviadalbert/Documents/Academisch/UoC/Dissertation/Experiment/OpenSesame/NAP-FC/NAP_GER_AA_4blocks_noglides/subject-33.csv","xpyriment","Jazzy James","3.1.9","yes","yes","59a800d99ad5a1025d81bb03","59a801616c613b0251691de0","no","no","0","j","j","space","NA","space","space","j","762","2217","26999","NA","112547","12354","762","2","legacy","1024","1","44100","-16","experiment","elpal","2","0","1","0","1","Eng, French","33","","odd","570633","543118","NA","NA","572851","570629","NA","19392","570172","19393","19392","380270","492821","600017","598513","600780","510736","505461","543118","NA","322064","369725","541458","505236","570633","505465","NA","600017","600017","515447","515444","598509","NAP perception","10","10166","10","yes","1024"
"100","yes","100","995.636363636","995.636363636","white","no","xpyriment","Ich habe die obigen Informationen gelesen und verstanden.","legacy","legacy","0","uniform","1","0","0","undefined","undefined","1","j","2","1","NA","0","1","0","0","0","0","0","0","0","0","20","20","20","0","0","0","NA","0","0","2","0","0","0","2","20","20","20","20","20","Sat Oct 28 10:54:57 2017","Forced-choice identification task with a practice and an experimental phase","yes","NAP_GER_AA_4blocks_noglides.osexp","/Users/aviadalbert/Documents/Academisch/UoC/Dissertation/Experiment/OpenSesame/NAP-FC/NAP_GER_AA_4blocks_noglides","yes","no","sans","no","20","no","black","no","Weiter","yes","768","legacy","10","9","0","/Users/aviadalbert/Documents/Academisch/UoC/Dissertation/Experiment/OpenSesame/NAP-FC/NAP_GER_AA_4blocks_noglides/subject-33.csv","xpyriment","Jazzy James","3.1.9","yes","yes","59a800d99ad5a1025d81bb03","59a801616c613b0251691de0","no","no","0","j","j","space","NA","space","space","j","786","2217","26999","NA","112547","12354","786","2","legacy","1024","1","44100","-16","experiment","enval","2","0","1","0","1","Eng, French","33","","odd","570633","543118","NA","NA","572851","570629","NA","19392","570172","19393","19392","380270","492821","602562","601057","603349","510736","505461","543118","NA","322064","369725","541458","505236","570633","505465","NA","602561","602561","515447","515444","601052","NAP perception","11","10952","11","yes","1024"
"100","yes","100","974","974","white","no","xpyriment","Ich habe die obigen Informationen gelesen und verstanden.","legacy","legacy","0","uniform","1","0","0","undefined","undefined","1","j","2","1","NA","0","1","0","0","0","0","0","0","0","0","21","21","21","0","0","0","NA","0","0","2","0","0","0","2","21","21","21","21","21","Sat Oct 28 10:54:57 2017","Forced-choice identification task with a practice and an experimental phase","yes","NAP_GER_AA_4blocks_noglides.osexp","/Users/aviadalbert/Documents/Academisch/UoC/Dissertation/Experiment/OpenSesame/NAP-FC/NAP_GER_AA_4blocks_noglides","yes","no","sans","no","20","no","black","no","Weiter","yes","768","legacy","11","9","0","/Users/aviadalbert/Documents/Academisch/UoC/Dissertation/Experiment/OpenSesame/NAP-FC/NAP_GER_AA_4blocks_noglides/subject-33.csv","xpyriment","Jazzy James","3.1.9","yes","yes","59a800d99ad5a1025d81bb03","59a801616c613b0251691de0","no","no","0","j","j","space","NA","space","space","j","736","2217","26999","NA","112547","12354","736","2","legacy","1024","1","44100","-16","experiment","efsal","2","0","1","0","1","Eng, French","33","","odd","570633","543118","NA","NA","572851","570629","NA","19392","570172","19393","19392","380270","492821","605120","603616","605857","510736","505461","543118","NA","322064","369725","541458","505236","570633","505465","NA","605120","605120","515447","515444","603612","NAP perception","12","11688","12","yes","1024"
"100","yes","100","958.307692308","958.307692308","white","no","xpyriment","Ich habe die obigen Informationen gelesen und verstanden.","legacy","legacy","0","uniform","1","0","0","undefined","undefined","1","f","2","1","NA","0","1","0","0","0","0","0","0","0","0","22","22","22","0","0","0","NA","0","0","2","0","0","0","2","22","22","22","22","22","Sat Oct 28 10:54:57 2017","Forced-choice identification task with a practice and an experimental phase","yes","NAP_GER_AA_4blocks_noglides.osexp","/Users/aviadalbert/Documents/Academisch/UoC/Dissertation/Experiment/OpenSesame/NAP-FC/NAP_GER_AA_4blocks_noglides","yes","no","sans","no","20","no","black","no","Weiter","yes","768","legacy","12","9","0","/Users/aviadalbert/Documents/Academisch/UoC/Dissertation/Experiment/OpenSesame/NAP-FC/NAP_GER_AA_4blocks_noglides/subject-33.csv","xpyriment","Jazzy James","3.1.9","yes","yes","59a800d99ad5a1025d81bb03","59a801616c613b0251691de0","no","no","0","f","j","space","NA","space","space","f","770","2217","26999","NA","112547","12354","770","2","legacy","1024","1","44100","-16","experiment","mlal","2","0","1","0","1","Eng, French","33","","odd","570633","543118","NA","NA","572851","570629","NA","19392","570172","19393","19392","380270","492821","607646","606143","608417","510736","505461","543118","NA","322064","369725","541458","505236","570633","505465","NA","607646","607646","515447","515444","606140","NAP perception","13","12458","13","yes","1024"
"100","yes","100","973.5","973.5","white","no","xpyriment","Ich habe die obigen Informationen gelesen und verstanden.","legacy","legacy","0","uniform","1","0","0","undefined","undefined","1","j","2","1","NA","0","1","0","0","0","0","0","0","0","0","23","23","23","0","0","0","NA","0","0","2","0","0","0","2","23","23","23","23","23","Sat Oct 28 10:54:57 2017","Forced-choice identification task with a practice and an experimental phase","yes","NAP_GER_AA_4blocks_noglides.osexp","/Users/aviadalbert/Documents/Academisch/UoC/Dissertation/Experiment/OpenSesame/NAP-FC/NAP_GER_AA_4blocks_noglides","yes","no","sans","no","20","no","black","no","Weiter","yes","768","legacy","13","9","0","/Users/aviadalbert/Documents/Academisch/UoC/Dissertation/Experiment/OpenSesame/NAP-FC/NAP_GER_AA_4blocks_noglides/subject-33.csv","xpyriment","Jazzy James","3.1.9","yes","yes","59a800d99ad5a1025d81bb03","59a801616c613b0251691de0","no","no","0","j","j","space","NA","space","space","j","1171","2217","26999","NA","112547","12354","1171","2","legacy","1024","1","44100","-16","experiment","evnal","2","0","1","0","1","Eng, French","33","","odd","570633","543118","NA","NA","572851","570629","NA","19392","570172","19393","19392","380270","492821","610200","608693","611372","510736","505461","543118","NA","322064","369725","541458","505236","570633","505465","NA","610200","610200","515447","515444","608689","NAP perception","14","13629","14","yes","1024"
"100","yes","100","954.066666667","954.066666667","white","no","xpyriment","Ich habe die obigen Informationen gelesen und verstanden.","legacy","legacy","0","uniform","1","0","0","undefined","undefined","1","j","2","1","NA","0","1","0","0","0","0","0","0","0","0","24","24","24","0","0","0","NA","0","0","2","0","0","0","2","24","24","24","24","24","Sat Oct 28 10:54:57 2017","Forced-choice identification task with a practice and an experimental phase","yes","NAP_GER_AA_4blocks_noglides.osexp","/Users/aviadalbert/Documents/Academisch/UoC/Dissertation/Experiment/OpenSesame/NAP-FC/NAP_GER_AA_4blocks_noglides","yes","no","sans","no","20","no","black","no","Weiter","yes","768","legacy","14","9","0","/Users/aviadalbert/Documents/Academisch/UoC/Dissertation/Experiment/OpenSesame/NAP-FC/NAP_GER_AA_4blocks_noglides/subject-33.csv","xpyriment","Jazzy James","3.1.9","yes","yes","59a800d99ad5a1025d81bb03","59a801616c613b0251691de0","no","no","0","j","j","space","NA","space","space","j","682","2217","26999","NA","112547","12354","682","2","legacy","1024","1","44100","-16","experiment","eʃmal","2","0","1","0","1","Eng, French","33","","odd","570633","543118","NA","NA","572851","570629","NA","19392","570172","19393","19392","380270","492821","613153","611648","613836","510736","505461","543118","NA","322064","369725","541458","505236","570633","505465","NA","613152","613153","515447","515444","611645","NAP perception","15","14311","15","yes","1024"
"100","yes","100","945.5625","945.5625","white","no","xpyriment","Ich habe die obigen Informationen gelesen und verstanden.","legacy","legacy","0","uniform","1","0","0","undefined","undefined","1","f","2","1","NA","0","1","0","0","0","0","0","0","0","0","25","25","25","0","0","0","NA","0","0","2","0","0","0","2","25","25","25","25","25","Sat Oct 28 10:54:57 2017","Forced-choice identification task with a practice and an experimental phase","yes","NAP_GER_AA_4blocks_noglides.osexp","/Users/aviadalbert/Documents/Academisch/UoC/Dissertation/Experiment/OpenSesame/NAP-FC/NAP_GER_AA_4blocks_noglides","yes","no","sans","no","20","no","black","no","Weiter","yes","768","legacy","15","9","0","/Users/aviadalbert/Documents/Academisch/UoC/Dissertation/Experiment/OpenSesame/NAP-FC/NAP_GER_AA_4blocks_noglides/subject-33.csv","xpyriment","Jazzy James","3.1.9","yes","yes","59a800d99ad5a1025d81bb03","59a801616c613b0251691de0","no","no","0","f","j","space","NA","space","space","f","818","2217","26999","NA","112547","12354","818","2","legacy","1024","1","44100","-16","experiment","flal","2","0","1","0","1","Eng, French","33","","odd","570633","543118","NA","NA","572851","570629","NA","19392","570172","19393","19392","380270","492821","615611","614106","616430","510736","505461","543118","NA","322064","369725","541458","505236","570633","505465","NA","615611","615611","515447","515444","614102","NAP perception","16","15129","16","yes","1024"
"100","yes","100","948.058823529","948.058823529","white","no","xpyriment","Ich habe die obigen Informationen gelesen und verstanden.","legacy","legacy","0","uniform","1","0","0","undefined","undefined","1","f","2","1","NA","0","1","0","0","0","0","0","0","0","0","26","26","26","0","0","0","NA","0","0","2","0","0","0","2","26","26","26","26","26","Sat Oct 28 10:54:57 2017","Forced-choice identification task with a practice and an experimental phase","yes","NAP_GER_AA_4blocks_noglides.osexp","/Users/aviadalbert/Documents/Academisch/UoC/Dissertation/Experiment/OpenSesame/NAP-FC/NAP_GER_AA_4blocks_noglides","yes","no","sans","no","20","no","black","no","Weiter","yes","768","legacy","16","9","0","/Users/aviadalbert/Documents/Academisch/UoC/Dissertation/Experiment/OpenSesame/NAP-FC/NAP_GER_AA_4blocks_noglides/subject-33.csv","xpyriment","Jazzy James","3.1.9","yes","yes","59a800d99ad5a1025d81bb03","59a801616c613b0251691de0","no","no","0","f","j","space","NA","space","space","f","988","2217","26999","NA","112547","12354","988","2","legacy","1024","1","44100","-16","experiment","vlal","2","0","1","0","1","Eng, French","33","","odd","570633","543118","NA","NA","572851","570629","NA","19392","570172","19393","19392","380270","492821","618205","616701","619195","510736","505461","543118","NA","322064","369725","541458","505236","570633","505465","NA","618205","618205","515447","515444","616697","NAP perception","17","16117","17","yes","1024"
"100","yes","100","941.666666667","941.666666667","white","no","xpyriment","Ich habe die obigen Informationen gelesen und verstanden.","legacy","legacy","0","uniform","1","0","0","undefined","undefined","1","j","2","1","NA","0","1","0","0","0","0","0","0","0","0","27","27","27","0","0","0","NA","0","0","2","0","0","0","2","27","27","27","27","27","Sat Oct 28 10:54:57 2017","Forced-choice identification task with a practice and an experimental phase","yes","NAP_GER_AA_4blocks_noglides.osexp","/Users/aviadalbert/Documents/Academisch/UoC/Dissertation/Experiment/OpenSesame/NAP-FC/NAP_GER_AA_4blocks_noglides","yes","no","sans","no","20","no","black","no","Weiter","yes","768","legacy","17","9","0","/Users/aviadalbert/Documents/Academisch/UoC/Dissertation/Experiment/OpenSesame/NAP-FC/NAP_GER_AA_4blocks_noglides/subject-33.csv","xpyriment","Jazzy James","3.1.9","yes","yes","59a800d99ad5a1025d81bb03","59a801616c613b0251691de0","no","no","0","j","j","space","NA","space","space","j","833","2217","26999","NA","112547","12354","833","2","legacy","1024","1","44100","-16","experiment","nefal","2","0","1","0","1","Eng, French","33","","odd","570633","543118","NA","NA","572851","570629","NA","19392","570172","19393","19392","380270","492821","620963","619459","621797","510736","505461","543118","NA","322064","369725","541458","505236","570633","505465","NA","620963","620963","515447","515444","619456","NAP perception","18","16950","18","yes","1024"
"100","yes","100","926.947368421","926.947368421","white","no","xpyriment","Ich habe die obigen Informationen gelesen und verstanden.","legacy","legacy","0","uniform","1","0","0","undefined","undefined","1","j","2","1","NA","0","1","0","0","0","0","0","0","0","0","28","28","28","0","0","0","NA","0","0","2","0","0","0","2","28","28","28","28","28","Sat Oct 28 10:54:57 2017","Forced-choice identification task with a practice and an experimental phase","yes","NAP_GER_AA_4blocks_noglides.osexp","/Users/aviadalbert/Documents/Academisch/UoC/Dissertation/Experiment/OpenSesame/NAP-FC/NAP_GER_AA_4blocks_noglides","yes","no","sans","no","20","no","black","no","Weiter","yes","768","legacy","18","9","0","/Users/aviadalbert/Documents/Academisch/UoC/Dissertation/Experiment/OpenSesame/NAP-FC/NAP_GER_AA_4blocks_noglides/subject-33.csv","xpyriment","Jazzy James","3.1.9","yes","yes","59a800d99ad5a1025d81bb03","59a801616c613b0251691de0","no","no","0","j","j","space","NA","space","space","j","662","2217","26999","NA","112547","12354","662","2","legacy","1024","1","44100","-16","experiment","elmal","2","0","1","0","1","Eng, French","33","","odd","570633","543118","NA","NA","572851","570629","NA","19392","570172","19393","19392","380270","492821","623577","622073","624240","510736","505461","543118","NA","322064","369725","541458","505236","570633","505465","NA","623576","623576","515447","515444","622069","NAP perception","19","17612","19","yes","1024"
"100","yes","100","910.05","910.05","white","no","xpyriment","Ich habe die obigen Informationen gelesen und verstanden.","legacy","legacy","0","uniform","1","0","0","undefined","undefined","1","f","2","1","NA","0","1","0","0","0","0","0","0","0","0","29","29","29","0","0","0","NA","0","0","2","0","0","0","2","29","29","29","29","29","Sat Oct 28 10:54:57 2017","Forced-choice identification task with a practice and an experimental phase","yes","NAP_GER_AA_4blocks_noglides.osexp","/Users/aviadalbert/Documents/Academisch/UoC/Dissertation/Experiment/OpenSesame/NAP-FC/NAP_GER_AA_4blocks_noglides","yes","no","sans","no","20","no","black","no","Weiter","yes","768","legacy","19","9","0","/Users/aviadalbert/Documents/Academisch/UoC/Dissertation/Experiment/OpenSesame/NAP-FC/NAP_GER_AA_4blocks_noglides/subject-33.csv","xpyriment","Jazzy James","3.1.9","yes","yes","59a800d99ad5a1025d81bb03","59a801616c613b0251691de0","no","no","0","f","j","space","NA","space","space","f","589","2217","26999","NA","112547","12354","589","2","legacy","1024","1","44100","-16","experiment","spal","2","0","1","0","1","Eng, French","33","","odd","570633","543118","NA","NA","572851","570629","NA","19392","570172","19393","19392","380270","492821","626012","624507","626602","510736","505461","543118","NA","322064","369725","541458","505236","570633","505465","NA","626012","626012","515447","515444","624503","NAP perception","20","18201","20","yes","1024"
"100","yes","100","900.80952381","900.80952381","white","no","xpyriment","Ich habe die obigen Informationen gelesen und verstanden.","legacy","legacy","0","uniform","1","0","0","undefined","undefined","1","j","2","1","NA","0","1","0","0","0","0","0","0","0","0","30","30","30","0","0","0","NA","0","0","2","0","0","0","2","30","30","30","30","30","Sat Oct 28 10:54:57 2017","Forced-choice identification task with a practice and an experimental phase","yes","NAP_GER_AA_4blocks_noglides.osexp","/Users/aviadalbert/Documents/Academisch/UoC/Dissertation/Experiment/OpenSesame/NAP-FC/NAP_GER_AA_4blocks_noglides","yes","no","sans","no","20","no","black","no","Weiter","yes","768","legacy","20","9","0","/Users/aviadalbert/Documents/Academisch/UoC/Dissertation/Experiment/OpenSesame/NAP-FC/NAP_GER_AA_4blocks_noglides/subject-33.csv","xpyriment","Jazzy James","3.1.9","yes","yes","59a800d99ad5a1025d81bb03","59a801616c613b0251691de0","no","no","0","j","j","space","NA","space","space","j","716","2217","26999","NA","112547","12354","716","2","legacy","1024","1","44100","-16","experiment","fetal","2","0","1","0","1","Eng, French","33","","odd","570633","543118","NA","NA","572851","570629","NA","19392","570172","19393","19392","380270","492821","628371","626867","629088","510736","505461","543118","NA","322064","369725","541458","505236","570633","505465","NA","628371","628371","515447","515444","626863","NAP perception","21","18917","21","yes","1024"
"100","yes","100","899.727272727","899.727272727","white","no","xpyriment","Ich habe die obigen Informationen gelesen und verstanden.","legacy","legacy","0","uniform","1","0","0","undefined","undefined","1","f","2","1","NA","0","1","0","0","0","0","0","0","0","0","31","31","31","0","0","0","NA","0","0","2","0","0","0","2","31","31","31","31","31","Sat Oct 28 10:54:57 2017","Forced-choice identification task with a practice and an experimental phase","yes","NAP_GER_AA_4blocks_noglides.osexp","/Users/aviadalbert/Documents/Academisch/UoC/Dissertation/Experiment/OpenSesame/NAP-FC/NAP_GER_AA_4blocks_noglides","yes","no","sans","no","20","no","black","no","Weiter","yes","768","legacy","21","9","0","/Users/aviadalbert/Documents/Academisch/UoC/Dissertation/Experiment/OpenSesame/NAP-FC/NAP_GER_AA_4blocks_noglides/subject-33.csv","xpyriment","Jazzy James","3.1.9","yes","yes","59a800d99ad5a1025d81bb03","59a801616c613b0251691de0","no","no","0","f","j","space","NA","space","space","f","877","2217","26999","NA","112547","12354","877","2","legacy","1024","1","44100","-16","experiment","lmal","2","0","1","0","1","Eng, French","33","","odd","570633","543118","NA","NA","572851","570629","NA","19392","570172","19393","19392","380270","492821","630870","629367","631749","510736","505461","543118","NA","322064","369725","541458","505236","570633","505465","NA","630870","630870","515447","515444","629363","NAP perception","22","19794","22","yes","1024"
"100","yes","100","894.608695652","894.608695652","white","no","xpyriment","Ich habe die obigen Informationen gelesen und verstanden.","legacy","legacy","0","uniform","1","0","0","undefined","undefined","1","j","2","1","NA","0","1","0","0","0","0","0","0","0","0","32","32","32","0","0","0","NA","0","0","2","0","0","0","2","32","32","32","32","32","Sat Oct 28 10:54:57 2017","Forced-choice identification task with a practice and an experimental phase","yes","NAP_GER_AA_4blocks_noglides.osexp","/Users/aviadalbert/Documents/Academisch/UoC/Dissertation/Experiment/OpenSesame/NAP-FC/NAP_GER_AA_4blocks_noglides","yes","no","sans","no","20","no","black","no","Weiter","yes","768","legacy","22","9","0","/Users/aviadalbert/Documents/Academisch/UoC/Dissertation/Experiment/OpenSesame/NAP-FC/NAP_GER_AA_4blocks_noglides/subject-33.csv","xpyriment","Jazzy James","3.1.9","yes","yes","59a800d99ad5a1025d81bb03","59a801616c613b0251691de0","no","no","0","j","j","space","NA","space","space","j","782","2217","26999","NA","112547","12354","782","2","legacy","1024","1","44100","-16","experiment","emtal","2","0","1","0","1","Eng, French","33","","odd","570633","543118","NA","NA","572851","570629","NA","19392","570172","19393","19392","380270","492821","633528","632023","634312","510736","505461","543118","NA","322064","369725","541458","505236","570633","505465","NA","633528","633528","515447","515444","632019","NAP perception","23","20576","23","yes","1024"
"100","yes","100","890.083333333","890.083333333","white","no","xpyriment","Ich habe die obigen Informationen gelesen und verstanden.","legacy","legacy","0","uniform","1","0","0","undefined","undefined","1","j","2","1","NA","0","1","0","0","0","0","0","0","0","0","33","33","33","0","0","0","NA","0","0","2","0","0","0","2","33","33","33","33","33","Sat Oct 28 10:54:57 2017","Forced-choice identification task with a practice and an experimental phase","yes","NAP_GER_AA_4blocks_noglides.osexp","/Users/aviadalbert/Documents/Academisch/UoC/Dissertation/Experiment/OpenSesame/NAP-FC/NAP_GER_AA_4blocks_noglides","yes","no","sans","no","20","no","black","no","Weiter","yes","768","legacy","23","9","0","/Users/aviadalbert/Documents/Academisch/UoC/Dissertation/Experiment/OpenSesame/NAP-FC/NAP_GER_AA_4blocks_noglides/subject-33.csv","xpyriment","Jazzy James","3.1.9","yes","yes","59a800d99ad5a1025d81bb03","59a801616c613b0251691de0","no","no","0","j","j","space","NA","space","space","j","786","2217","26999","NA","112547","12354","786","2","legacy","1024","1","44100","-16","experiment","lepal","2","0","1","0","1","Eng, French","33","","odd","570633","543118","NA","NA","572851","570629","NA","19392","570172","19393","19392","380270","492821","636091","634587","636879","510736","505461","543118","NA","322064","369725","541458","505236","570633","505465","NA","636091","636091","515447","515444","634584","NAP perception","24","21362","24","yes","1024"
"100","yes","100","890.2","890.2","white","no","xpyriment","Ich habe die obigen Informationen gelesen und verstanden.","legacy","legacy","0","uniform","1","0","0","undefined","undefined","1","j","2","1","NA","0","1","0","0","0","0","0","0","0","0","34","34","34","0","0","0","NA","0","0","2","0","0","0","2","34","34","34","34","34","Sat Oct 28 10:54:57 2017","Forced-choice identification task with a practice and an experimental phase","yes","NAP_GER_AA_4blocks_noglides.osexp","/Users/aviadalbert/Documents/Academisch/UoC/Dissertation/Experiment/OpenSesame/NAP-FC/NAP_GER_AA_4blocks_noglides","yes","no","sans","no","20","no","black","no","Weiter","yes","768","legacy","24","9","0","/Users/aviadalbert/Documents/Academisch/UoC/Dissertation/Experiment/OpenSesame/NAP-FC/NAP_GER_AA_4blocks_noglides/subject-33.csv","xpyriment","Jazzy James","3.1.9","yes","yes","59a800d99ad5a1025d81bb03","59a801616c613b0251691de0","no","no","0","j","j","space","NA","space","space","j","893","2217","26999","NA","112547","12354","893","2","legacy","1024","1","44100","-16","experiment","velal","2","0","1","0","1","Eng, French","33","","odd","570633","543118","NA","NA","572851","570629","NA","19392","570172","19393","19392","380270","492821","638637","637133","639532","510736","505461","543118","NA","322064","369725","541458","505236","570633","505465","NA","638637","638637","515447","515444","637130","NAP perception","25","22255","25","yes","1024"
"100","yes","100","884.730769231","884.730769231","white","no","xpyriment","Ich habe die obigen Informationen gelesen und verstanden.","legacy","legacy","0","uniform","1","0","0","undefined","undefined","1","f","2","1","NA","0","1","0","0","0","0","0","0","0","0","35","35","35","0","0","0","NA","0","0","2","0","0","0","2","35","35","35","35","35","Sat Oct 28 10:54:57 2017","Forced-choice identification task with a practice and an experimental phase","yes","NAP_GER_AA_4blocks_noglides.osexp","/Users/aviadalbert/Documents/Academisch/UoC/Dissertation/Experiment/OpenSesame/NAP-FC/NAP_GER_AA_4blocks_noglides","yes","no","sans","no","20","no","black","no","Weiter","yes","768","legacy","25","9","0","/Users/aviadalbert/Documents/Academisch/UoC/Dissertation/Experiment/OpenSesame/NAP-FC/NAP_GER_AA_4blocks_noglides/subject-33.csv","xpyriment","Jazzy James","3.1.9","yes","yes","59a800d99ad5a1025d81bb03","59a801616c613b0251691de0","no","no","0","f","j","space","NA","space","space","f","748","2217","26999","NA","112547","12354","748","2","legacy","1024","1","44100","-16","experiment","ʃmal","2","0","1","0","1","Eng, French","33","","odd","570633","543118","NA","NA","572851","570629","NA","19392","570172","19393","19392","380270","492821","641316","639813","642065","510736","505461","543118","NA","322064","369725","541458","505236","570633","505465","NA","641316","641316","515447","515444","639809","NAP perception","26","23003","26","yes","1024"
"100","yes","100","875.814814815","875.814814815","white","no","xpyriment","Ich habe die obigen Informationen gelesen und verstanden.","legacy","legacy","0","uniform","1","0","0","undefined","undefined","1","j","2","1","NA","0","1","0","0","0","0","0","0","0","0","36","36","36","0","0","0","NA","0","0","2","0","0","0","2","36","36","36","36","36","Sat Oct 28 10:54:57 2017","Forced-choice identification task with a practice and an experimental phase","yes","NAP_GER_AA_4blocks_noglides.osexp","/Users/aviadalbert/Documents/Academisch/UoC/Dissertation/Experiment/OpenSesame/NAP-FC/NAP_GER_AA_4blocks_noglides","yes","no","sans","no","20","no","black","no","Weiter","yes","768","legacy","26","9","0","/Users/aviadalbert/Documents/Academisch/UoC/Dissertation/Experiment/OpenSesame/NAP-FC/NAP_GER_AA_4blocks_noglides/subject-33.csv","xpyriment","Jazzy James","3.1.9","yes","yes","59a800d99ad5a1025d81bb03","59a801616c613b0251691de0","no","no","0","j","j","space","NA","space","space","j","644","2217","26999","NA","112547","12354","644","2","legacy","1024","1","44100","-16","experiment","lekal","2","0","1","0","1","Eng, French","33","","odd","570633","543118","NA","NA","572851","570629","NA","19392","570172","19393","19392","380270","492821","643859","642353","644505","510736","505461","543118","NA","322064","369725","541458","505236","570633","505465","NA","643859","643859","515447","515444","642350","NAP perception","27","23647","27","yes","1024"
"100","yes","100","866.428571429","866.428571429","white","no","xpyriment","Ich habe die obigen Informationen gelesen und verstanden.","legacy","legacy","0","uniform","1","0","0","undefined","undefined","1","j","2","1","NA","0","1","0","0","0","0","0","0","0","0","37","37","37","0","0","0","NA","0","0","2","0","0","0","2","37","37","37","37","37","Sat Oct 28 10:54:57 2017","Forced-choice identification task with a practice and an experimental phase","yes","NAP_GER_AA_4blocks_noglides.osexp","/Users/aviadalbert/Documents/Academisch/UoC/Dissertation/Experiment/OpenSesame/NAP-FC/NAP_GER_AA_4blocks_noglides","yes","no","sans","no","20","no","black","no","Weiter","yes","768","legacy","27","9","0","/Users/aviadalbert/Documents/Academisch/UoC/Dissertation/Experiment/OpenSesame/NAP-FC/NAP_GER_AA_4blocks_noglides/subject-33.csv","xpyriment","Jazzy James","3.1.9","yes","yes","59a800d99ad5a1025d81bb03","59a801616c613b0251691de0","no","no","0","j","j","space","NA","space","space","j","613","2217","26999","NA","112547","12354","613","2","legacy","1024","1","44100","-16","experiment","nepal","2","0","1","0","1","Eng, French","33","","odd","570633","543118","NA","NA","572851","570629","NA","19392","570172","19393","19392","380270","492821","646274","644769","646888","510736","505461","543118","NA","322064","369725","541458","505236","570633","505465","NA","646273","646273","515447","515444","644765","NAP perception","28","24260","28","yes","1024"
"96.5517241379","yes","96.5517241379","866.793103448","866.793103448","white","no","xpyriment","Ich habe die obigen Informationen gelesen und verstanden.","legacy","legacy","0","uniform","0","0","0","undefined","undefined","0","j","2","1","NA","0","1","0","0","0","0","0","0","0","0","38","38","38","0","0","0","NA","0","0","2","0","0","0","2","38","38","38","38","38","Sat Oct 28 10:54:57 2017","Forced-choice identification task with a practice and an experimental phase","yes","NAP_GER_AA_4blocks_noglides.osexp","/Users/aviadalbert/Documents/Academisch/UoC/Dissertation/Experiment/OpenSesame/NAP-FC/NAP_GER_AA_4blocks_noglides","yes","no","sans","no","20","no","black","no","Weiter","yes","768","legacy","28","9","0","/Users/aviadalbert/Documents/Academisch/UoC/Dissertation/Experiment/OpenSesame/NAP-FC/NAP_GER_AA_4blocks_noglides/subject-33.csv","xpyriment","Jazzy James","3.1.9","yes","yes","59a800d99ad5a1025d81bb03","59a801616c613b0251691de0","no","no","0","f","j","space","NA","space","space","f","877","2217","26999","NA","112547","12354","877","2","legacy","1024","1","44100","-16","experiment","enpal","2","0","1","0","1","Eng, French","33","","odd","570633","543118","NA","NA","572851","570629","NA","19392","570172","19393","19392","380270","492821","648654","647147","649532","510736","505461","543118","NA","322064","369725","541458","505236","570633","505465","NA","648654","648654","515447","515444","647143","NAP perception","28","25137","29","yes","1024"
"96.6666666667","yes","96.6666666667","879.733333333","879.733333333","white","no","xpyriment","Ich habe die obigen Informationen gelesen und verstanden.","legacy","legacy","0","uniform","1","0","0","undefined","undefined","1","j","2","1","NA","0","1","0","0","0","0","0","0","0","0","39","39","39","0","0","0","NA","0","0","2","0","0","0","2","39","39","39","39","39","Sat Oct 28 10:54:57 2017","Forced-choice identification task with a practice and an experimental phase","yes","NAP_GER_AA_4blocks_noglides.osexp","/Users/aviadalbert/Documents/Academisch/UoC/Dissertation/Experiment/OpenSesame/NAP-FC/NAP_GER_AA_4blocks_noglides","yes","no","sans","no","20","no","black","no","Weiter","yes","768","legacy","29","9","0","/Users/aviadalbert/Documents/Academisch/UoC/Dissertation/Experiment/OpenSesame/NAP-FC/NAP_GER_AA_4blocks_noglides/subject-33.csv","xpyriment","Jazzy James","3.1.9","yes","yes","59a800d99ad5a1025d81bb03","59a801616c613b0251691de0","no","no","0","j","j","space","NA","space","space","j","1255","2217","26999","NA","112547","12354","1255","2","legacy","1024","1","44100","-16","experiment","ezmal","2","0","1","0","1","Eng, French","33","","odd","570633","543118","NA","NA","572851","570629","NA","19392","570172","19393","19392","380270","492821","651308","649805","652564","510736","505461","543118","NA","322064","369725","541458","505236","570633","505465","NA","651308","651308","515447","515444","649801","NAP perception","29","26392","30","yes","1024"
"96.7741935484","yes","96.7741935484","877.451612903","877.451612903","white","no","xpyriment","Ich habe die obigen Informationen gelesen und verstanden.","legacy","legacy","0","uniform","1","0","0","undefined","undefined","1","j","2","1","NA","0","1","0","0","0","0","0","0","0","0","40","40","40","0","0","0","NA","0","0","2","0","0","0","2","40","40","40","40","40","Sat Oct 28 10:54:57 2017","Forced-choice identification task with a practice and an experimental phase","yes","NAP_GER_AA_4blocks_noglides.osexp","/Users/aviadalbert/Documents/Academisch/UoC/Dissertation/Experiment/OpenSesame/NAP-FC/NAP_GER_AA_4blocks_noglides","yes","no","sans","no","20","no","black","no","Weiter","yes","768","legacy","30","9","0","/Users/aviadalbert/Documents/Academisch/UoC/Dissertation/Experiment/OpenSesame/NAP-FC/NAP_GER_AA_4blocks_noglides/subject-33.csv","xpyriment","Jazzy James","3.1.9","yes","yes","59a800d99ad5a1025d81bb03","59a801616c613b0251691de0","no","no","0","j","j","space","NA","space","space","j","809","2217","26999","NA","112547","12354","809","2","legacy","1024","1","44100","-16","experiment","eʃfal","2","0","1","0","1","Eng, French","33","","odd","570633","543118","NA","NA","572851","570629","NA","19392","570172","19393","19392","380270","492821","654326","652822","655136","510736","505461","543118","NA","322064","369725","541458","505236","570633","505465","NA","654325","654326","515447","515444","652818","NAP perception","30","27201","31","yes","1024"
"96.875","yes","96.875","873.09375","873.09375","white","no","xpyriment","Ich habe die obigen Informationen gelesen und verstanden.","legacy","legacy","0","uniform","1","0","0","undefined","undefined","1","f","2","1","NA","0","1","0","0","0","0","0","0","0","0","41","41","41","0","0","0","NA","0","0","2","0","0","0","2","41","41","41","41","41","Sat Oct 28 10:54:57 2017","Forced-choice identification task with a practice and an experimental phase","yes","NAP_GER_AA_4blocks_noglides.osexp","/Users/aviadalbert/Documents/Academisch/UoC/Dissertation/Experiment/OpenSesame/NAP-FC/NAP_GER_AA_4blocks_noglides","yes","no","sans","no","20","no","black","no","Weiter","yes","768","legacy","31","9","0","/Users/aviadalbert/Documents/Academisch/UoC/Dissertation/Experiment/OpenSesame/NAP-FC/NAP_GER_AA_4blocks_noglides/subject-33.csv","xpyriment","Jazzy James","3.1.9","yes","yes","59a800d99ad5a1025d81bb03","59a801616c613b0251691de0","no","no","0","f","j","space","NA","space","space","f","738","2217","26999","NA","112547","12354","738","2","legacy","1024","1","44100","-16","experiment","ʃfal","2","0","1","0","1","Eng, French","33","","odd","570633","543118","NA","NA","572851","570629","NA","19392","570172","19393","19392","380270","492821","656923","655420","657662","510736","505461","543118","NA","322064","369725","541458","505236","570633","505465","NA","656923","656923","515447","515444","655416","NAP perception","31","27939","32","yes","1024"
"96.9696969697","yes","96.9696969697","871.090909091","871.090909091","white","no","xpyriment","Ich habe die obigen Informationen gelesen und verstanden.","legacy","legacy","0","uniform","1","0","0","undefined","undefined","1","j","2","1","NA","0","1","0","0","0","0","0","0","0","0","42","42","42","0","0","0","NA","0","0","2","0","0","0","2","42","42","42","42","42","Sat Oct 28 10:54:57 2017","Forced-choice identification task with a practice and an experimental phase","yes","NAP_GER_AA_4blocks_noglides.osexp","/Users/aviadalbert/Documents/Academisch/UoC/Dissertation/Experiment/OpenSesame/NAP-FC/NAP_GER_AA_4blocks_noglides","yes","no","sans","no","20","no","black","no","Weiter","yes","768","legacy","32","9","0","/Users/aviadalbert/Documents/Academisch/UoC/Dissertation/Experiment/OpenSesame/NAP-FC/NAP_GER_AA_4blocks_noglides/subject-33.csv","xpyriment","Jazzy James","3.1.9","yes","yes","59a800d99ad5a1025d81bb03","59a801616c613b0251691de0","no","no","0","j","j","space","NA","space","space","j","807","2217","26999","NA","112547","12354","807","2","legacy","1024","1","44100","-16","experiment","evlal","2","0","1","0","1","Eng, French","33","","odd","570633","543118","NA","NA","572851","570629","NA","19392","570172","19393","19392","380270","492821","659448","657941","660257","510736","505461","543118","NA","322064","369725","541458","505236","570633","505465","NA","659448","659448","515447","515444","657937","NAP perception","32","28746","33","yes","1024"
"97.0588235294","yes","97.0588235294","864.970588235","864.970588235","white","no","xpyriment","Ich habe die obigen Informationen gelesen und verstanden.","legacy","legacy","0","uniform","1","0","0","undefined","undefined","1","f","2","1","NA","0","1","0","0","0","0","0","0","0","0","43","43","43","0","0","0","NA","0","0","2","0","0","0","2","43","43","43","43","43","Sat Oct 28 10:54:57 2017","Forced-choice identification task with a practice and an experimental phase","yes","NAP_GER_AA_4blocks_noglides.osexp","/Users/aviadalbert/Documents/Academisch/UoC/Dissertation/Experiment/OpenSesame/NAP-FC/NAP_GER_AA_4blocks_noglides","yes","no","sans","no","20","no","black","no","Weiter","yes","768","legacy","33","9","0","/Users/aviadalbert/Documents/Academisch/UoC/Dissertation/Experiment/OpenSesame/NAP-FC/NAP_GER_AA_4blocks_noglides/subject-33.csv","xpyriment","Jazzy James","3.1.9","yes","yes","59a800d99ad5a1025d81bb03","59a801616c613b0251691de0","no","no","0","f","j","space","NA","space","space","f","663","2217","26999","NA","112547","12354","663","2","legacy","1024","1","44100","-16","experiment","mlal","2","0","1","0","1","Eng, French","33","","odd","570633","543118","NA","NA","572851","570629","NA","19392","570172","19393","19392","380270","492821","662030","660527","662694","510736","505461","543118","NA","322064","369725","541458","505236","570633","505465","NA","662030","662030","515447","515444","660523","NAP perception","33","29409","34","yes","1024"
"97.1428571429","yes","97.1428571429","870.314285714","870.314285714","white","no","xpyriment","Ich habe die obigen Informationen gelesen und verstanden.","legacy","legacy","0","uniform","1","0","0","undefined","undefined","1","j","2","1","NA","0","1","0","0","0","0","0","0","0","0","44","44","44","0","0","0","NA","0","0","2","0","0","0","2","44","44","44","44","44","Sat Oct 28 10:54:57 2017","Forced-choice identification task with a practice and an experimental phase","yes","NAP_GER_AA_4blocks_noglides.osexp","/Users/aviadalbert/Documents/Academisch/UoC/Dissertation/Experiment/OpenSesame/NAP-FC/NAP_GER_AA_4blocks_noglides","yes","no","sans","no","20","no","black","no","Weiter","yes","768","legacy","34","9","0","/Users/aviadalbert/Documents/Academisch/UoC/Dissertation/Experiment/OpenSesame/NAP-FC/NAP_GER_AA_4blocks_noglides/subject-33.csv","xpyriment","Jazzy James","3.1.9","yes","yes","59a800d99ad5a1025d81bb03","59a801616c613b0251691de0","no","no","0","j","j","space","NA","space","space","j","1052","2217","26999","NA","112547","12354","1052","2","legacy","1024","1","44100","-16","experiment","nemal","2","0","1","0","1","Eng, French","33","","odd","570633","543118","NA","NA","572851","570629","NA","19392","570172","19393","19392","380270","492821","664479","662975","665532","510736","505461","543118","NA","322064","369725","541458","505236","570633","505465","NA","664479","664479","515447","515444","662971","NAP perception","34","30461","35","yes","1024"
"97.2222222222","yes","97.2222222222","883.25","883.25","white","no","xpyriment","Ich habe die obigen Informationen gelesen und verstanden.","legacy","legacy","0","uniform","1","0","0","undefined","undefined","1","j","2","1","NA","0","1","0","0","0","0","0","0","0","0","45","45","45","0","0","0","NA","0","0","2","0","0","0","2","45","45","45","45","45","Sat Oct 28 10:54:57 2017","Forced-choice identification task with a practice and an experimental phase","yes","NAP_GER_AA_4blocks_noglides.osexp","/Users/aviadalbert/Documents/Academisch/UoC/Dissertation/Experiment/OpenSesame/NAP-FC/NAP_GER_AA_4blocks_noglides","yes","no","sans","no","20","no","black","no","Weiter","yes","768","legacy","35","9","0","/Users/aviadalbert/Documents/Academisch/UoC/Dissertation/Experiment/OpenSesame/NAP-FC/NAP_GER_AA_4blocks_noglides/subject-33.csv","xpyriment","Jazzy James","3.1.9","yes","yes","59a800d99ad5a1025d81bb03","59a801616c613b0251691de0","no","no","0","j","j","space","NA","space","space","j","1336","2217","26999","NA","112547","12354","1336","2","legacy","1024","1","44100","-16","experiment","elval","2","0","1","0","1","Eng, French","33","","odd","570633","543118","NA","NA","572851","570629","NA","19392","570172","19393","19392","380270","492821","667305","665802","668642","510736","505461","543118","NA","322064","369725","541458","505236","570633","505465","NA","667305","667305","515447","515444","665798","NAP perception","35","31797","36","yes","1024"
"97.2972972973","yes","97.2972972973","878.783783784","878.783783784","white","no","xpyriment","Ich habe die obigen Informationen gelesen und verstanden.","legacy","legacy","0","uniform","1","0","0","undefined","undefined","1","j","2","1","NA","0","1","0","0","0","0","0","0","0","0","46","46","46","0","0","0","NA","0","0","2","0","0","0","2","46","46","46","46","46","Sat Oct 28 10:54:57 2017","Forced-choice identification task with a practice and an experimental phase","yes","NAP_GER_AA_4blocks_noglides.osexp","/Users/aviadalbert/Documents/Academisch/UoC/Dissertation/Experiment/OpenSesame/NAP-FC/NAP_GER_AA_4blocks_noglides","yes","no","sans","no","20","no","black","no","Weiter","yes","768","legacy","36","9","0","/Users/aviadalbert/Documents/Academisch/UoC/Dissertation/Experiment/OpenSesame/NAP-FC/NAP_GER_AA_4blocks_noglides/subject-33.csv","xpyriment","Jazzy James","3.1.9","yes","yes","59a800d99ad5a1025d81bb03","59a801616c613b0251691de0","no","no","0","j","j","space","NA","space","space","j","718","2217","26999","NA","112547","12354","718","2","legacy","1024","1","44100","-16","experiment","lemal","2","0","1","0","1","Eng, French","33","","odd","570633","543118","NA","NA","572851","570629","NA","19392","570172","19393","19392","380270","492821","670423","668918","671143","510736","505461","543118","NA","322064","369725","541458","505236","570633","505465","NA","670423","670423","515447","515444","668915","NAP perception","36","32515","37","yes","1024"
"97.3684210526","yes","97.3684210526","879.894736842","879.894736842","white","no","xpyriment","Ich habe die obigen Informationen gelesen und verstanden.","legacy","legacy","0","uniform","1","0","0","undefined","undefined","1","f","2","1","NA","0","1","0","0","0","0","0","0","0","0","47","47","47","0","0","0","NA","0","0","2","0","0","0","2","47","47","47","47","47","Sat Oct 28 10:54:57 2017","Forced-choice identification task with a practice and an experimental phase","yes","NAP_GER_AA_4blocks_noglides.osexp","/Users/aviadalbert/Documents/Academisch/UoC/Dissertation/Experiment/OpenSesame/NAP-FC/NAP_GER_AA_4blocks_noglides","yes","no","sans","no","20","no","black","no","Weiter","yes","768","legacy","37","9","0","/Users/aviadalbert/Documents/Academisch/UoC/Dissertation/Experiment/OpenSesame/NAP-FC/NAP_GER_AA_4blocks_noglides/subject-33.csv","xpyriment","Jazzy James","3.1.9","yes","yes","59a800d99ad5a1025d81bb03","59a801616c613b0251691de0","no","no","0","f","j","space","NA","space","space","f","921","2217","26999","NA","112547","12354","921","2","legacy","1024","1","44100","-16","experiment","fnal","2","0","1","0","1","Eng, French","33","","odd","570633","543118","NA","NA","572851","570629","NA","19392","570172","19393","19392","380270","492821","672912","671409","673834","510736","505461","543118","NA","322064","369725","541458","505236","570633","505465","NA","672912","672912","515447","515444","671405","NAP perception","37","33436","38","yes","1024"
"97.4358974359","yes","97.4358974359","880.384615385","880.384615385","white","no","xpyriment","Ich habe die obigen Informationen gelesen und verstanden.","legacy","legacy","0","uniform","1","0","0","undefined","undefined","1","j","2","1","NA","0","1","0","0","0","0","0","0","0","0","48","48","48","0","0","0","NA","0","0","2","0","0","0","2","48","48","48","48","48","Sat Oct 28 10:54:57 2017","Forced-choice identification task with a practice and an experimental phase","yes","NAP_GER_AA_4blocks_noglides.osexp","/Users/aviadalbert/Documents/Academisch/UoC/Dissertation/Experiment/OpenSesame/NAP-FC/NAP_GER_AA_4blocks_noglides","yes","no","sans","no","20","no","black","no","Weiter","yes","768","legacy","38","9","0","/Users/aviadalbert/Documents/Academisch/UoC/Dissertation/Experiment/OpenSesame/NAP-FC/NAP_GER_AA_4blocks_noglides/subject-33.csv","xpyriment","Jazzy James","3.1.9","yes","yes","59a800d99ad5a1025d81bb03","59a801616c613b0251691de0","no","no","0","j","j","space","NA","space","space","j","899","2217","26999","NA","112547","12354","899","2","legacy","1024","1","44100","-16","experiment","evzal","2","0","1","0","1","Eng, French","33","","odd","570633","543118","NA","NA","572851","570629","NA","19392","570172","19393","19392","380270","492821","675617","674113","676517","510736","505461","543118","NA","322064","369725","541458","505236","570633","505465","NA","675616","675617","515447","515444","674109","NAP perception","38","34335","39","yes","1024"
"97.5","yes","97.5","873.625","873.625","white","no","xpyriment","Ich habe die obigen Informationen gelesen und verstanden.","legacy","legacy","0","uniform","1","0","0","undefined","undefined","1","f","2","1","NA","0","1","0","0","0","0","0","0","0","0","49","49","49","0","0","0","NA","0","0","2","0","0","0","2","49","49","49","49","49","Sat Oct 28 10:54:57 2017","Forced-choice identification task with a practice and an experimental phase","yes","NAP_GER_AA_4blocks_noglides.osexp","/Users/aviadalbert/Documents/Academisch/UoC/Dissertation/Experiment/OpenSesame/NAP-FC/NAP_GER_AA_4blocks_noglides","yes","no","sans","no","20","no","black","no","Weiter","yes","768","legacy","39","9","0","/Users/aviadalbert/Documents/Academisch/UoC/Dissertation/Experiment/OpenSesame/NAP-FC/NAP_GER_AA_4blocks_noglides/subject-33.csv","xpyriment","Jazzy James","3.1.9","yes","yes","59a800d99ad5a1025d81bb03","59a801616c613b0251691de0","no","no","0","f","j","space","NA","space","space","f","610","2217","26999","NA","112547","12354","610","2","legacy","1024","1","44100","-16","experiment","ʃpal","2","0","1","0","1","Eng, French","33","","odd","570633","543118","NA","NA","572851","570629","NA","19392","570172","19393","19392","380270","492821","678295","676791","678907","510736","505461","543118","NA","322064","369725","541458","505236","570633","505465","NA","678295","678295","515447","515444","676787","NAP perception","39","34945","40","yes","1024"
"97.5609756098","yes","97.5609756098","866.902439024","866.902439024","white","no","xpyriment","Ich habe die obigen Informationen gelesen und verstanden.","legacy","legacy","0","uniform","1","0","0","undefined","undefined","1","f","2","1","NA","0","1","0","0","0","0","0","0","0","0","50","50","50","0","0","0","NA","0","0","2","0","0","0","2","50","50","50","50","50","Sat Oct 28 10:54:57 2017","Forced-choice identification task with a practice and an experimental phase","yes","NAP_GER_AA_4blocks_noglides.osexp","/Users/aviadalbert/Documents/Academisch/UoC/Dissertation/Experiment/OpenSesame/NAP-FC/NAP_GER_AA_4blocks_noglides","yes","no","sans","no","20","no","black","no","Weiter","yes","768","legacy","40","9","0","/Users/aviadalbert/Documents/Academisch/UoC/Dissertation/Experiment/OpenSesame/NAP-FC/NAP_GER_AA_4blocks_noglides/subject-33.csv","xpyriment","Jazzy James","3.1.9","yes","yes","59a800d99ad5a1025d81bb03","59a801616c613b0251691de0","no","no","0","f","j","space","NA","space","space","f","598","2217","26999","NA","112547","12354","598","2","legacy","1024","1","44100","-16","experiment","msal","2","0","1","0","1","Eng, French","33","","odd","570633","543118","NA","NA","572851","570629","NA","19392","570172","19393","19392","380270","492821","680694","679190","681294","510736","505461","543118","NA","322064","369725","541458","505236","570633","505465","NA","680693","680693","515447","515444","679186","NAP perception","40","35543","41","yes","1024"
"97.619047619","yes","97.619047619","862.19047619","862.19047619","white","no","xpyriment","Ich habe die obigen Informationen gelesen und verstanden.","legacy","legacy","0","uniform","1","0","0","undefined","undefined","1","f","2","1","NA","0","1","0","0","0","0","0","0","0","0","51","51","51","0","0","0","NA","0","0","2","0","0","0","2","51","51","51","51","51","Sat Oct 28 10:54:57 2017","Forced-choice identification task with a practice and an experimental phase","yes","NAP_GER_AA_4blocks_noglides.osexp","/Users/aviadalbert/Documents/Academisch/UoC/Dissertation/Experiment/OpenSesame/NAP-FC/NAP_GER_AA_4blocks_noglides","yes","no","sans","no","20","no","black","no","Weiter","yes","768","legacy","41","9","0","/Users/aviadalbert/Documents/Academisch/UoC/Dissertation/Experiment/OpenSesame/NAP-FC/NAP_GER_AA_4blocks_noglides/subject-33.csv","xpyriment","Jazzy James","3.1.9","yes","yes","59a800d99ad5a1025d81bb03","59a801616c613b0251691de0","no","no","0","f","j","space","NA","space","space","f","669","2217","26999","NA","112547","12354","669","2","legacy","1024","1","44100","-16","experiment","lval","2","0","1","0","1","Eng, French","33","","odd","570633","543118","NA","NA","572851","570629","NA","19392","570172","19393","19392","380270","492821","683080","681577","683751","510736","505461","543118","NA","322064","369725","541458","505236","570633","505465","NA","683080","683080","515447","515444","681573","NAP perception","41","36212","42","yes","1024"
"97.6744186047","yes","97.6744186047","862.23255814","862.23255814","white","no","xpyriment","Ich habe die obigen Informationen gelesen und verstanden.","legacy","legacy","0","uniform","1","0","0","undefined","undefined","1","j","2","1","NA","0","1","0","0","0","0","0","0","0","0","52","52","52","0","0","0","NA","0","0","2","0","0","0","2","52","52","52","52","52","Sat Oct 28 10:54:57 2017","Forced-choice identification task with a practice and an experimental phase","yes","NAP_GER_AA_4blocks_noglides.osexp","/Users/aviadalbert/Documents/Academisch/UoC/Dissertation/Experiment/OpenSesame/NAP-FC/NAP_GER_AA_4blocks_noglides","yes","no","sans","no","20","no","black","no","Weiter","yes","768","legacy","42","9","0","/Users/aviadalbert/Documents/Academisch/UoC/Dissertation/Experiment/OpenSesame/NAP-FC/NAP_GER_AA_4blocks_noglides/subject-33.csv","xpyriment","Jazzy James","3.1.9","yes","yes","59a800d99ad5a1025d81bb03","59a801616c613b0251691de0","no","no","0","j","j","space","NA","space","space","j","864","2217","26999","NA","112547","12354","864","2","legacy","1024","1","44100","-16","experiment","elkal","2","0","1","0","1","Eng, French","33","","odd","570633","543118","NA","NA","572851","570629","NA","19392","570172","19393","19392","380270","492821","685517","684014","686383","510736","505461","543118","NA","322064","369725","541458","505236","570633","505465","NA","685517","685517","515447","515444","684010","NAP perception","42","37076","43","yes","1024"
"95.4545454545","yes","95.4545454545","868.090909091","868.090909091","white","no","xpyriment","Ich habe die obigen Informationen gelesen und verstanden.","legacy","legacy","0","uniform","0","0","0","undefined","undefined","0","j","2","1","NA","0","1","0","0","0","0","0","0","0","0","53","53","53","0","0","0","NA","0","0","2","0","0","0","2","53","53","53","53","53","Sat Oct 28 10:54:57 2017","Forced-choice identification task with a practice and an experimental phase","yes","NAP_GER_AA_4blocks_noglides.osexp","/Users/aviadalbert/Documents/Academisch/UoC/Dissertation/Experiment/OpenSesame/NAP-FC/NAP_GER_AA_4blocks_noglides","yes","no","sans","no","20","no","black","no","Weiter","yes","768","legacy","43","9","0","/Users/aviadalbert/Documents/Academisch/UoC/Dissertation/Experiment/OpenSesame/NAP-FC/NAP_GER_AA_4blocks_noglides/subject-33.csv","xpyriment","Jazzy James","3.1.9","yes","yes","59a800d99ad5a1025d81bb03","59a801616c613b0251691de0","no","no","0","f","j","space","NA","space","space","f","1120","2217","26999","NA","112547","12354","1120","2","legacy","1024","1","44100","-16","experiment","enmal","2","0","1","0","1","Eng, French","33","","odd","570633","543118","NA","NA","572851","570629","NA","19392","570172","19393","19392","380270","492821","688152","686647","689274","510736","505461","543118","NA","322064","369725","541458","505236","570633","505465","NA","688151","688152","515447","515444","686643","NAP perception","42","38196","44","yes","1024"
"95.5555555556","yes","95.5555555556","862.6","862.6","white","no","xpyriment","Ich habe die obigen Informationen gelesen und verstanden.","legacy","legacy","0","uniform","1","0","0","undefined","undefined","1","f","2","1","NA","0","1","0","0","0","0","0","0","0","0","54","54","54","0","0","0","NA","0","0","2","0","0","0","2","54","54","54","54","54","Sat Oct 28 10:54:57 2017","Forced-choice identification task with a practice and an experimental phase","yes","NAP_GER_AA_4blocks_noglides.osexp","/Users/aviadalbert/Documents/Academisch/UoC/Dissertation/Experiment/OpenSesame/NAP-FC/NAP_GER_AA_4blocks_noglides","yes","no","sans","no","20","no","black","no","Weiter","yes","768","legacy","44","9","0","/Users/aviadalbert/Documents/Academisch/UoC/Dissertation/Experiment/OpenSesame/NAP-FC/NAP_GER_AA_4blocks_noglides/subject-33.csv","xpyriment","Jazzy James","3.1.9","yes","yes","59a800d99ad5a1025d81bb03","59a801616c613b0251691de0","no","no","0","f","j","space","NA","space","space","f","621","2217","26999","NA","112547","12354","621","2","legacy","1024","1","44100","-16","experiment","vzal","2","0","1","0","1","Eng, French","33","","odd","570633","543118","NA","NA","572851","570629","NA","19392","570172","19393","19392","380270","492821","691042","689538","691664","510736","505461","543118","NA","322064","369725","541458","505236","570633","505465","NA","691041","691041","515447","515444","689534","NAP perception","43","38817","45","yes","1024"
"95.652173913","yes","95.652173913","858.152173913","858.152173913","white","no","xpyriment","Ich habe die obigen Informationen gelesen und verstanden.","legacy","legacy","0","uniform","1","0","0","undefined","undefined","1","j","2","1","NA","0","1","0","0","0","0","0","0","0","0","55","55","55","0","0","0","NA","0","0","2","0","0","0","2","55","55","55","55","55","Sat Oct 28 10:54:57 2017","Forced-choice identification task with a practice and an experimental phase","yes","NAP_GER_AA_4blocks_noglides.osexp","/Users/aviadalbert/Documents/Academisch/UoC/Dissertation/Experiment/OpenSesame/NAP-FC/NAP_GER_AA_4blocks_noglides","yes","no","sans","no","20","no","black","no","Weiter","yes","768","legacy","45","9","0","/Users/aviadalbert/Documents/Academisch/UoC/Dissertation/Experiment/OpenSesame/NAP-FC/NAP_GER_AA_4blocks_noglides/subject-33.csv","xpyriment","Jazzy James","3.1.9","yes","yes","59a800d99ad5a1025d81bb03","59a801616c613b0251691de0","no","no","0","j","j","space","NA","space","space","j","658","2217","26999","NA","112547","12354","658","2","legacy","1024","1","44100","-16","experiment","leval","2","0","1","0","1","Eng, French","33","","odd","570633","543118","NA","NA","572851","570629","NA","19392","570172","19393","19392","380270","492821","693448","691945","694108","510736","505461","543118","NA","322064","369725","541458","505236","570633","505465","NA","693448","693448","515447","515444","691941","NAP perception","44","39475","46","yes","1024"
"95.7446808511","yes","95.7446808511","859.787234043","859.787234043","white","no","xpyriment","Ich habe die obigen Informationen gelesen und verstanden.","legacy","legacy","0","uniform","1","0","0","undefined","undefined","1","j","2","1","NA","0","1","0","0","0","0","0","0","0","0","56","56","56","0","0","0","NA","0","0","2","0","0","0","2","56","56","56","56","56","Sat Oct 28 10:54:57 2017","Forced-choice identification task with a practice and an experimental phase","yes","NAP_GER_AA_4blocks_noglides.osexp","/Users/aviadalbert/Documents/Academisch/UoC/Dissertation/Experiment/OpenSesame/NAP-FC/NAP_GER_AA_4blocks_noglides","yes","no","sans","no","20","no","black","no","Weiter","yes","768","legacy","46","9","0","/Users/aviadalbert/Documents/Academisch/UoC/Dissertation/Experiment/OpenSesame/NAP-FC/NAP_GER_AA_4blocks_noglides/subject-33.csv","xpyriment","Jazzy James","3.1.9","yes","yes","59a800d99ad5a1025d81bb03","59a801616c613b0251691de0","no","no","0","j","j","space","NA","space","space","j","935","2217","26999","NA","112547","12354","935","2","legacy","1024","1","44100","-16","experiment","emsal","2","0","1","0","1","Eng, French","33","","odd","570633","543118","NA","NA","572851","570629","NA","19392","570172","19393","19392","380270","492821","695885","694380","696821","510736","505461","543118","NA","322064","369725","541458","505236","570633","505465","NA","695885","695885","515447","515444","694376","NAP perception","45","40410","47","yes","1024"
"95.8333333333","yes","95.8333333333","853.583333333","853.583333333","white","no","xpyriment","Ich habe die obigen Informationen gelesen und verstanden.","legacy","legacy","0","uniform","1","0","0","undefined","undefined","1","f","2","1","NA","0","1","0","0","0","0","0","0","0","0","57","57","57","0","0","0","NA","0","0","2","0","0","0","2","57","57","57","57","57","Sat Oct 28 10:54:57 2017","Forced-choice identification task with a practice and an experimental phase","yes","NAP_GER_AA_4blocks_noglides.osexp","/Users/aviadalbert/Documents/Academisch/UoC/Dissertation/Experiment/OpenSesame/NAP-FC/NAP_GER_AA_4blocks_noglides","yes","no","sans","no","20","no","black","no","Weiter","yes","768","legacy","47","9","0","/Users/aviadalbert/Documents/Academisch/UoC/Dissertation/Experiment/OpenSesame/NAP-FC/NAP_GER_AA_4blocks_noglides/subject-33.csv","xpyriment","Jazzy James","3.1.9","yes","yes","59a800d99ad5a1025d81bb03","59a801616c613b0251691de0","no","no","0","f","j","space","NA","space","space","f","562","2217","26999","NA","112547","12354","562","2","legacy","1024","1","44100","-16","experiment","lkal","2","0","1","0","1","Eng, French","33","","odd","570633","543118","NA","NA","572851","570629","NA","19392","570172","19393","19392","380270","492821","698601","697097","699164","510736","505461","543118","NA","322064","369725","541458","505236","570633","505465","NA","698601","698601","515447","515444","697093","NAP perception","46","40972","48","yes","1024"
"95.9183673469","yes","95.9183673469","851.571428571","851.571428571","white","no","xpyriment","Ich habe die obigen Informationen gelesen und verstanden.","legacy","legacy","0","uniform","1","0","0","undefined","undefined","1","f","2","1","NA","0","1","0","0","0","0","0","0","0","0","58","58","58","0","0","0","NA","0","0","2","0","0","0","2","58","58","58","58","58","Sat Oct 28 10:54:57 2017","Forced-choice identification task with a practice and an experimental phase","yes","NAP_GER_AA_4blocks_noglides.osexp","/Users/aviadalbert/Documents/Academisch/UoC/Dissertation/Experiment/OpenSesame/NAP-FC/NAP_GER_AA_4blocks_noglides","yes","no","sans","no","20","no","black","no","Weiter","yes","768","legacy","48","9","0","/Users/aviadalbert/Documents/Academisch/UoC/Dissertation/Experiment/OpenSesame/NAP-FC/NAP_GER_AA_4blocks_noglides/subject-33.csv","xpyriment","Jazzy James","3.1.9","yes","yes","59a800d99ad5a1025d81bb03","59a801616c613b0251691de0","no","no","0","f","j","space","NA","space","space","f","755","2217","26999","NA","112547","12354","755","2","legacy","1024","1","44100","-16","experiment","mtal","2","0","1","0","1","Eng, French","33","","odd","570633","543118","NA","NA","572851","570629","NA","19392","570172","19393","19392","380270","492821","700939","699435","701695","510736","505461","543118","NA","322064","369725","541458","505236","570633","505465","NA","700939","700939","515447","515444","699432","NAP perception","47","41727","49","yes","1024"
"96","yes","96","850.44","850.44","white","no","xpyriment","Ich habe die obigen Informationen gelesen und verstanden.","legacy","legacy","0","uniform","1","0","0","undefined","undefined","1","j","2","1","NA","0","1","0","0","0","0","0","0","0","0","59","59","59","0","0","0","NA","0","0","2","0","0","0","2","59","59","59","59","59","Sat Oct 28 10:54:57 2017","Forced-choice identification task with a practice and an experimental phase","yes","NAP_GER_AA_4blocks_noglides.osexp","/Users/aviadalbert/Documents/Academisch/UoC/Dissertation/Experiment/OpenSesame/NAP-FC/NAP_GER_AA_4blocks_noglides","yes","no","sans","no","20","no","black","no","Weiter","yes","768","legacy","49","9","0","/Users/aviadalbert/Documents/Academisch/UoC/Dissertation/Experiment/OpenSesame/NAP-FC/NAP_GER_AA_4blocks_noglides/subject-33.csv","xpyriment","Jazzy James","3.1.9","yes","yes","59a800d99ad5a1025d81bb03","59a801616c613b0251691de0","no","no","0","j","j","space","NA","space","space","j","795","2217","26999","NA","112547","12354","795","2","legacy","1024","1","44100","-16","experiment","zemal","2","0","1","0","1","Eng, French","33","","odd","570633","543118","NA","NA","572851","570629","NA","19392","570172","19393","19392","380270","492821","703477","701971","704273","510736","505461","543118","NA","322064","369725","541458","505236","570633","505465","NA","703477","703477","515447","515444","701967","NAP perception","48","42522","50","yes","1024"
"96.0784313725","yes","96.0784313725","848.941176471","848.941176471","white","no","xpyriment","Ich habe die obigen Informationen gelesen und verstanden.","legacy","legacy","0","uniform","1","0","0","undefined","undefined","1","f","2","1","NA","0","1","0","0","0","0","0","0","0","0","60","60","60","0","0","0","NA","0","0","2","0","0","0","2","60","60","60","60","60","Sat Oct 28 10:54:57 2017","Forced-choice identification task with a practice and an experimental phase","yes","NAP_GER_AA_4blocks_noglides.osexp","/Users/aviadalbert/Documents/Academisch/UoC/Dissertation/Experiment/OpenSesame/NAP-FC/NAP_GER_AA_4blocks_noglides","yes","no","sans","no","20","no","black","no","Weiter","yes","768","legacy","50","9","0","/Users/aviadalbert/Documents/Academisch/UoC/Dissertation/Experiment/OpenSesame/NAP-FC/NAP_GER_AA_4blocks_noglides/subject-33.csv","xpyriment","Jazzy James","3.1.9","yes","yes","59a800d99ad5a1025d81bb03","59a801616c613b0251691de0","no","no","0","f","j","space","NA","space","space","f","774","2217","26999","NA","112547","12354","774","2","legacy","1024","1","44100","-16","experiment","zval","2","0","1","0","1","Eng, French","33","","odd","570633","543118","NA","NA","572851","570629","NA","19392","570172","19393","19392","380270","492821","706049","704545","706824","510736","505461","543118","NA","322064","369725","541458","505236","570633","505465","NA","706048","706049","515447","515444","704541","NAP perception","49","43296","51","yes","1024"
"96.1538461538","yes","96.1538461538","850.057692308","850.057692308","white","no","xpyriment","Ich habe die obigen Informationen gelesen und verstanden.","legacy","legacy","0","uniform","1","0","0","undefined","undefined","1","j","2","1","NA","0","1","0","0","0","0","0","0","0","0","61","61","61","0","0","0","NA","0","0","2","0","0","0","2","61","61","61","61","61","Sat Oct 28 10:54:57 2017","Forced-choice identification task with a practice and an experimental phase","yes","NAP_GER_AA_4blocks_noglides.osexp","/Users/aviadalbert/Documents/Academisch/UoC/Dissertation/Experiment/OpenSesame/NAP-FC/NAP_GER_AA_4blocks_noglides","yes","no","sans","no","20","no","black","no","Weiter","yes","768","legacy","51","9","0","/Users/aviadalbert/Documents/Academisch/UoC/Dissertation/Experiment/OpenSesame/NAP-FC/NAP_GER_AA_4blocks_noglides/subject-33.csv","xpyriment","Jazzy James","3.1.9","yes","yes","59a800d99ad5a1025d81bb03","59a801616c613b0251691de0","no","no","0","j","j","space","NA","space","space","j","907","2217","26999","NA","112547","12354","907","2","legacy","1024","1","44100","-16","experiment","menal","2","0","1","0","1","Eng, French","33","","odd","570633","543118","NA","NA","572851","570629","NA","19392","570172","19393","19392","380270","492821","708597","707091","709506","510736","505461","543118","NA","322064","369725","541458","505236","570633","505465","NA","708597","708597","515447","515444","707087","NAP perception","50","44203","52","yes","1024"
"96.2264150943","yes","96.2264150943","847","847","white","no","xpyriment","Ich habe die obigen Informationen gelesen und verstanden.","legacy","legacy","0","uniform","1","0","0","undefined","undefined","1","j","2","1","NA","0","1","0","0","0","0","0","0","0","0","62","62","62","0","0","0","NA","0","0","2","0","0","0","2","62","62","62","62","62","Sat Oct 28 10:54:57 2017","Forced-choice identification task with a practice and an experimental phase","yes","NAP_GER_AA_4blocks_noglides.osexp","/Users/aviadalbert/Documents/Academisch/UoC/Dissertation/Experiment/OpenSesame/NAP-FC/NAP_GER_AA_4blocks_noglides","yes","no","sans","no","20","no","black","no","Weiter","yes","768","legacy","52","9","0","/Users/aviadalbert/Documents/Academisch/UoC/Dissertation/Experiment/OpenSesame/NAP-FC/NAP_GER_AA_4blocks_noglides/subject-33.csv","xpyriment","Jazzy James","3.1.9","yes","yes","59a800d99ad5a1025d81bb03","59a801616c613b0251691de0","no","no","0","j","j","space","NA","space","space","j","688","2217","26999","NA","112547","12354","688","2","legacy","1024","1","44100","-16","experiment","ʃepal","2","0","1","0","1","Eng, French","33","","odd","570633","543118","NA","NA","572851","570629","NA","19392","570172","19393","19392","380270","492821","711291","709787","711980","510736","505461","543118","NA","322064","369725","541458","505236","570633","505465","NA","711291","711291","515447","515444","709783","NAP perception","51","44891","53","yes","1024"
"96.2962962963","yes","96.2962962963","843.666666667","843.666666667","white","no","xpyriment","Ich habe die obigen Informationen gelesen und verstanden.","legacy","legacy","0","uniform","1","0","0","undefined","undefined","1","f","2","1","NA","0","1","0","0","0","0","0","0","0","0","63","63","63","0","0","0","NA","0","0","2","0","0","0","2","63","63","63","63","63","Sat Oct 28 10:54:57 2017","Forced-choice identification task with a practice and an experimental phase","yes","NAP_GER_AA_4blocks_noglides.osexp","/Users/aviadalbert/Documents/Academisch/UoC/Dissertation/Experiment/OpenSesame/NAP-FC/NAP_GER_AA_4blocks_noglides","yes","no","sans","no","20","no","black","no","Weiter","yes","768","legacy","53","9","0","/Users/aviadalbert/Documents/Academisch/UoC/Dissertation/Experiment/OpenSesame/NAP-FC/NAP_GER_AA_4blocks_noglides/subject-33.csv","xpyriment","Jazzy James","3.1.9","yes","yes","59a800d99ad5a1025d81bb03","59a801616c613b0251691de0","no","no","0","f","j","space","NA","space","space","f","667","2217","26999","NA","112547","12354","667","2","legacy","1024","1","44100","-16","experiment","npal","2","0","1","0","1","Eng, French","33","","odd","570633","543118","NA","NA","572851","570629","NA","19392","570172","19393","19392","380270","492821","713752","712246","714420","510736","505461","543118","NA","322064","369725","541458","505236","570633","505465","NA","713752","713752","515447","515444","712242","NAP perception","52","45558","54","yes","1024"
"96.3636363636","yes","96.3636363636","843.2","843.2","white","no","xpyriment","Ich habe die obigen Informationen gelesen und verstanden.","legacy","legacy","0","uniform","1","0","0","undefined","undefined","1","f","2","1","NA","0","1","0","0","0","0","0","0","0","0","64","64","64","0","0","0","NA","0","0","2","0","0","0","2","64","64","64","64","64","Sat Oct 28 10:54:57 2017","Forced-choice identification task with a practice and an experimental phase","yes","NAP_GER_AA_4blocks_noglides.osexp","/Users/aviadalbert/Documents/Academisch/UoC/Dissertation/Experiment/OpenSesame/NAP-FC/NAP_GER_AA_4blocks_noglides","yes","no","sans","no","20","no","black","no","Weiter","yes","768","legacy","54","9","0","/Users/aviadalbert/Documents/Academisch/UoC/Dissertation/Experiment/OpenSesame/NAP-FC/NAP_GER_AA_4blocks_noglides/subject-33.csv","xpyriment","Jazzy James","3.1.9","yes","yes","59a800d99ad5a1025d81bb03","59a801616c613b0251691de0","no","no","0","f","j","space","NA","space","space","f","818","2217","26999","NA","112547","12354","818","2","legacy","1024","1","44100","-16","experiment","smal","2","0","1","0","1","Eng, French","33","","odd","570633","543118","NA","NA","572851","570629","NA","19392","570172","19393","19392","380270","492821","716208","714705","717028","510736","505461","543118","NA","322064","369725","541458","505236","570633","505465","NA","716208","716208","515447","515444","714701","NAP perception","53","46376","55","yes","1024"
"96.4285714286","yes","96.4285714286","840.625","840.625","white","no","xpyriment","Ich habe die obigen Informationen gelesen und verstanden.","legacy","legacy","0","uniform","1","0","0","undefined","undefined","1","f","2","1","NA","0","1","0","0","0","0","0","0","0","0","65","65","65","0","0","0","NA","0","0","2","0","0","0","2","65","65","65","65","65","Sat Oct 28 10:54:57 2017","Forced-choice identification task with a practice and an experimental phase","yes","NAP_GER_AA_4blocks_noglides.osexp","/Users/aviadalbert/Documents/Academisch/UoC/Dissertation/Experiment/OpenSesame/NAP-FC/NAP_GER_AA_4blocks_noglides","yes","no","sans","no","20","no","black","no","Weiter","yes","768","legacy","55","9","0","/Users/aviadalbert/Documents/Academisch/UoC/Dissertation/Experiment/OpenSesame/NAP-FC/NAP_GER_AA_4blocks_noglides/subject-33.csv","xpyriment","Jazzy James","3.1.9","yes","yes","59a800d99ad5a1025d81bb03","59a801616c613b0251691de0","no","no","0","f","j","space","NA","space","space","f","699","2217","26999","NA","112547","12354","699","2","legacy","1024","1","44100","-16","experiment","vnal","2","0","1","0","1","Eng, French","33","","odd","570633","543118","NA","NA","572851","570629","NA","19392","570172","19393","19392","380270","492821","718814","717307","719515","510736","505461","543118","NA","322064","369725","541458","505236","570633","505465","NA","718814","718814","515447","515444","717304","NAP perception","54","47075","56","yes","1024"
