"acc","accept_status","accuracy","average_response_time","avg_rt","background","bidi","canvas_backend","checkbox_status","clock_backend","color_backend","compensation","coordinates","correct","correct_block_activation","correct_block_exit","correct_instructions_1","correct_instructions_2","correct_keyboard_response","correct_response","count_block_activation","count_block_exit","count_block_info_QA","count_cont_e_block_message","count_e_block_loop","count_e_block_sequence","count_end_of_experiment","count_experiment","count_experimental_loop","count_form_consent","count_info_forms","count_instructions_1","count_instructions_2","count_keyboard_response","count_listen_message","count_logger","count_p_block_loop","count_p_block_sequence","count_p_feedback","count_pause_feedback","count_personal_details_form_1","count_personal_details_form_2","count_post_loop_blank","count_practice_loop","count_pre_e_block_message","count_pre_p_block_message","count_reset_feedback","count_stimulus_image","count_stimulus_sound","count_timeout_message","count_timeout_sound","count_trial_sequence","datetime","description","disable_garbage_collection","experiment_file","experiment_path","expyriment_opengl","font_bold","font_family","font_italic","font_size","font_underline","foreground","form_clicks","form_response","fullscreen","height","keyboard_backend","live_row","live_row_p_block_loop","live_row_practice_loop","logfile","mouse_backend","opensesame_codename","opensesame_version","osf_always_upload_data","osf_always_upload_experiment","osf_datanode_id","osf_id","practice","pygame_doublebuf","repeat_cycle","response","response_block_activation","response_block_exit","response_block_info_QA","response_instructions_1","response_instructions_2","response_keyboard_response","response_time","response_time_block_activation","response_time_block_exit","response_time_block_info_QA","response_time_instructions_1","response_time_instructions_2","response_time_keyboard_response","round_decimals","sampler_backend","sound_buf_size","sound_channels","sound_freq","sound_sample_size","start","stimulus","subject_age","subject_education","subject_gender","subject_german_native","subject_handedness","subject_language_other","subject_nr","subject_other_native_lang","subject_parity","time_block_activation","time_block_exit","time_block_info_QA","time_cont_e_block_message","time_e_block_loop","time_e_block_sequence","time_end_of_experiment","time_experiment","time_experimental_loop","time_form_consent","time_info_forms","time_instructions_1","time_instructions_2","time_keyboard_response","time_listen_message","time_logger","time_p_block_loop","time_p_block_sequence","time_p_feedback","time_pause_feedback","time_personal_details_form_1","time_personal_details_form_2","time_post_loop_blank","time_practice_loop","time_pre_e_block_message","time_pre_p_block_message","time_reset_feedback","time_stimulus_image","time_stimulus_sound","time_timeout_message","time_timeout_sound","time_trial_sequence","title","total_correct","total_response_time","total_responses","uniform_coordinates","width"
"100","yes","100","1486","1486","white","no","xpyriment","Ich habe die obigen Informationen gelesen und verstanden.","legacy","legacy","0","uniform","1","0","NA","undefined","undefined","1","f","0","0","NA","NA","NA","NA","NA","0","0","0","0","0","0","0","0","0","0","0","NA","NA","0","0","0","0","NA","0","0","0","0","0","0","0","Mon Nov  6 11:54:44 2017","Forced-choice identification task with a practice and an experimental phase","yes","NAP_GER_AA_4blocks_noglides.osexp","/Users/aviadalbert/Documents/Academisch/UoC/Dissertation/Experiment/OpenSesame/NAP-FC/NAP_GER_AA_4blocks_noglides","yes","no","sans","no","20","no","black","no","Weiter","yes","768","legacy","0","0","0","/Users/aviadalbert/Documents/Academisch/UoC/Dissertation/Experiment/OpenSesame/NAP-FC/NAP_GER_AA_4blocks_noglides/subject-44.csv","xpyriment","Jazzy James","3.1.9","yes","yes","59a800d99ad5a1025d81bb03","59a801616c613b0251691de0","yes","no","0","f","f","NA","NA","space","space","f","1486","3488","NA","NA","42446","10499","1486","2","legacy","1024","1","44100","-16","experiment","flal","4","1","0","0","1","engl","44","","even","167760","NA","NA","NA","NA","NA","NA","1774","NA","1775","1774","114499","156950","172998","171494","174485","171249","167756","NA","NA","59941","88413","NA","167516","NA","167760","NA","172998","172998","NA","NA","171490","NAP perception","1","1486","1","yes","1024"
"100","yes","100","1218","1218","white","no","xpyriment","Ich habe die obigen Informationen gelesen und verstanden.","legacy","legacy","0","uniform","1","0","NA","undefined","undefined","1","j","0","0","NA","NA","NA","NA","NA","0","0","0","0","0","0","1","1","1","0","0","NA","NA","0","0","0","0","NA","0","0","1","1","1","1","1","Mon Nov  6 11:54:44 2017","Forced-choice identification task with a practice and an experimental phase","yes","NAP_GER_AA_4blocks_noglides.osexp","/Users/aviadalbert/Documents/Academisch/UoC/Dissertation/Experiment/OpenSesame/NAP-FC/NAP_GER_AA_4blocks_noglides","yes","no","sans","no","20","no","black","no","Weiter","yes","768","legacy","1","1","0","/Users/aviadalbert/Documents/Academisch/UoC/Dissertation/Experiment/OpenSesame/NAP-FC/NAP_GER_AA_4blocks_noglides/subject-44.csv","xpyriment","Jazzy James","3.1.9","yes","yes","59a800d99ad5a1025d81bb03","59a801616c613b0251691de0","yes","no","0","j","f","NA","NA","space","space","j","950","3488","NA","NA","42446","10499","950","2","legacy","1024","1","44100","-16","experiment","lepal","4","1","0","0","1","engl","44","","even","167760","NA","NA","NA","NA","NA","NA","1774","NA","1775","1774","114499","156950","176280","174777","177231","171249","167756","NA","NA","59941","88413","NA","167516","NA","167760","NA","176280","176280","NA","NA","174773","NAP perception","2","2436","2","yes","1024"
"100","yes","100","1131","1131","white","no","xpyriment","Ich habe die obigen Informationen gelesen und verstanden.","legacy","legacy","0","uniform","1","0","NA","undefined","undefined","1","j","0","0","NA","NA","NA","NA","NA","0","0","0","0","0","0","2","2","2","0","0","NA","NA","0","0","0","0","NA","0","0","2","2","2","2","2","Mon Nov  6 11:54:44 2017","Forced-choice identification task with a practice and an experimental phase","yes","NAP_GER_AA_4blocks_noglides.osexp","/Users/aviadalbert/Documents/Academisch/UoC/Dissertation/Experiment/OpenSesame/NAP-FC/NAP_GER_AA_4blocks_noglides","yes","no","sans","no","20","no","black","no","Weiter","yes","768","legacy","2","2","0","/Users/aviadalbert/Documents/Academisch/UoC/Dissertation/Experiment/OpenSesame/NAP-FC/NAP_GER_AA_4blocks_noglides/subject-44.csv","xpyriment","Jazzy James","3.1.9","yes","yes","59a800d99ad5a1025d81bb03","59a801616c613b0251691de0","yes","no","0","j","f","NA","NA","space","space","j","957","3488","NA","NA","42446","10499","957","2","legacy","1024","1","44100","-16","experiment","emtal","4","1","0","0","1","engl","44","","even","167760","NA","NA","NA","NA","NA","NA","1774","NA","1775","1774","114499","156950","179036","177532","179994","171249","167756","NA","NA","59941","88413","NA","167516","NA","167760","NA","179035","179036","NA","NA","177528","NAP perception","3","3393","3","yes","1024"
"100","yes","100","1356.5","1356.5","white","no","xpyriment","Ich habe die obigen Informationen gelesen und verstanden.","legacy","legacy","0","uniform","1","0","NA","undefined","undefined","1","f","0","0","NA","NA","NA","NA","NA","0","0","0","0","0","0","3","3","3","0","0","NA","NA","0","0","0","0","NA","0","0","3","3","3","3","3","Mon Nov  6 11:54:44 2017","Forced-choice identification task with a practice and an experimental phase","yes","NAP_GER_AA_4blocks_noglides.osexp","/Users/aviadalbert/Documents/Academisch/UoC/Dissertation/Experiment/OpenSesame/NAP-FC/NAP_GER_AA_4blocks_noglides","yes","no","sans","no","20","no","black","no","Weiter","yes","768","legacy","3","3","0","/Users/aviadalbert/Documents/Academisch/UoC/Dissertation/Experiment/OpenSesame/NAP-FC/NAP_GER_AA_4blocks_noglides/subject-44.csv","xpyriment","Jazzy James","3.1.9","yes","yes","59a800d99ad5a1025d81bb03","59a801616c613b0251691de0","yes","no","0","f","f","NA","NA","space","space","f","2033","3488","NA","NA","42446","10499","2033","2","legacy","1024","1","44100","-16","experiment","ʃpal","4","1","0","0","1","engl","44","","even","167760","NA","NA","NA","NA","NA","NA","1774","NA","1775","1774","114499","156950","181790","180283","183824","171249","167756","NA","NA","59941","88413","NA","167516","NA","167760","NA","181790","181790","NA","NA","180279","NAP perception","4","5426","4","yes","1024"
"100","yes","100","1473.8","1473.8","white","no","xpyriment","Ich habe die obigen Informationen gelesen und verstanden.","legacy","legacy","0","uniform","1","0","NA","undefined","undefined","1","j","0","0","NA","NA","NA","NA","NA","0","0","0","0","0","0","4","4","4","0","0","NA","NA","0","0","0","0","NA","0","0","4","4","4","4","4","Mon Nov  6 11:54:44 2017","Forced-choice identification task with a practice and an experimental phase","yes","NAP_GER_AA_4blocks_noglides.osexp","/Users/aviadalbert/Documents/Academisch/UoC/Dissertation/Experiment/OpenSesame/NAP-FC/NAP_GER_AA_4blocks_noglides","yes","no","sans","no","20","no","black","no","Weiter","yes","768","legacy","4","4","0","/Users/aviadalbert/Documents/Academisch/UoC/Dissertation/Experiment/OpenSesame/NAP-FC/NAP_GER_AA_4blocks_noglides/subject-44.csv","xpyriment","Jazzy James","3.1.9","yes","yes","59a800d99ad5a1025d81bb03","59a801616c613b0251691de0","yes","no","0","j","f","NA","NA","space","space","j","1943","3488","NA","NA","42446","10499","1943","2","legacy","1024","1","44100","-16","experiment","nefal","4","1","0","0","1","engl","44","","even","167760","NA","NA","NA","NA","NA","NA","1774","NA","1775","1774","114499","156950","185620","184115","187565","171249","167756","NA","NA","59941","88413","NA","167516","NA","167760","NA","185620","185620","NA","NA","184111","NAP perception","5","7369","5","yes","1024"
"100","yes","100","1396","1396","white","no","xpyriment","Ich habe die obigen Informationen gelesen und verstanden.","legacy","legacy","0","uniform","1","0","NA","undefined","undefined","1","f","0","0","NA","NA","NA","NA","NA","0","0","0","0","0","0","5","5","5","0","0","NA","NA","0","0","0","0","NA","0","0","5","5","5","5","5","Mon Nov  6 11:54:44 2017","Forced-choice identification task with a practice and an experimental phase","yes","NAP_GER_AA_4blocks_noglides.osexp","/Users/aviadalbert/Documents/Academisch/UoC/Dissertation/Experiment/OpenSesame/NAP-FC/NAP_GER_AA_4blocks_noglides","yes","no","sans","no","20","no","black","no","Weiter","yes","768","legacy","5","5","0","/Users/aviadalbert/Documents/Academisch/UoC/Dissertation/Experiment/OpenSesame/NAP-FC/NAP_GER_AA_4blocks_noglides/subject-44.csv","xpyriment","Jazzy James","3.1.9","yes","yes","59a800d99ad5a1025d81bb03","59a801616c613b0251691de0","yes","no","0","f","f","NA","NA","space","space","f","1007","3488","NA","NA","42446","10499","1007","2","legacy","1024","1","44100","-16","experiment","sfal","4","1","0","0","1","engl","44","","even","167760","NA","NA","NA","NA","NA","NA","1774","NA","1775","1774","114499","156950","189375","187870","190383","171249","167756","NA","NA","59941","88413","NA","167516","NA","167760","NA","189375","189375","NA","NA","187866","NAP perception","6","8376","6","yes","1024"
"85.7142857143","yes","85.7142857143","1315.42857143","1315.42857143","white","no","xpyriment","Ich habe die obigen Informationen gelesen und verstanden.","legacy","legacy","0","uniform","0","0","NA","undefined","undefined","0","f","0","0","NA","NA","NA","NA","NA","0","0","0","0","0","0","6","6","6","0","0","NA","NA","0","0","0","0","NA","0","0","6","6","6","6","6","Mon Nov  6 11:54:44 2017","Forced-choice identification task with a practice and an experimental phase","yes","NAP_GER_AA_4blocks_noglides.osexp","/Users/aviadalbert/Documents/Academisch/UoC/Dissertation/Experiment/OpenSesame/NAP-FC/NAP_GER_AA_4blocks_noglides","yes","no","sans","no","20","no","black","no","Weiter","yes","768","legacy","6","6","0","/Users/aviadalbert/Documents/Academisch/UoC/Dissertation/Experiment/OpenSesame/NAP-FC/NAP_GER_AA_4blocks_noglides/subject-44.csv","xpyriment","Jazzy James","3.1.9","yes","yes","59a800d99ad5a1025d81bb03","59a801616c613b0251691de0","yes","no","0","j","f","NA","NA","space","space","j","832","3488","NA","NA","42446","10499","832","2","legacy","1024","1","44100","-16","experiment","zmal","4","1","0","0","1","engl","44","","even","167760","NA","NA","NA","NA","NA","NA","1774","NA","1775","1774","114499","156950","192187","190683","193020","171249","167756","NA","NA","59941","88413","NA","167516","NA","167760","NA","192186","192187","NA","NA","190679","NAP perception","6","9208","7","yes","1024"
"87.5","yes","87.5","1257.625","1257.625","white","no","xpyriment","Ich habe die obigen Informationen gelesen und verstanden.","legacy","legacy","0","uniform","1","0","NA","undefined","undefined","1","j","0","0","NA","NA","NA","NA","NA","0","0","0","0","0","0","7","7","7","0","0","NA","NA","0","0","0","0","NA","0","0","7","7","7","7","7","Mon Nov  6 11:54:44 2017","Forced-choice identification task with a practice and an experimental phase","yes","NAP_GER_AA_4blocks_noglides.osexp","/Users/aviadalbert/Documents/Academisch/UoC/Dissertation/Experiment/OpenSesame/NAP-FC/NAP_GER_AA_4blocks_noglides","yes","no","sans","no","20","no","black","no","Weiter","yes","768","legacy","7","7","0","/Users/aviadalbert/Documents/Academisch/UoC/Dissertation/Experiment/OpenSesame/NAP-FC/NAP_GER_AA_4blocks_noglides/subject-44.csv","xpyriment","Jazzy James","3.1.9","yes","yes","59a800d99ad5a1025d81bb03","59a801616c613b0251691de0","yes","no","0","j","f","NA","NA","space","space","j","853","3488","NA","NA","42446","10499","853","2","legacy","1024","1","44100","-16","experiment","mesal","4","1","0","0","1","engl","44","","even","167760","NA","NA","NA","NA","NA","NA","1774","NA","1775","1774","114499","156950","194821","193314","195675","171249","167756","NA","NA","59941","88413","NA","167516","NA","167760","NA","194821","194821","NA","NA","193310","NAP perception","7","10061","8","yes","1024"
"88.8888888889","yes","88.8888888889","1195.66666667","1195.66666667","white","no","xpyriment","Ich habe die obigen Informationen gelesen und verstanden.","legacy","legacy","0","uniform","1","0","NA","undefined","undefined","1","j","0","0","NA","NA","NA","NA","NA","0","0","0","0","0","0","8","8","8","0","0","NA","NA","0","0","0","0","NA","0","0","8","8","8","8","8","Mon Nov  6 11:54:44 2017","Forced-choice identification task with a practice and an experimental phase","yes","NAP_GER_AA_4blocks_noglides.osexp","/Users/aviadalbert/Documents/Academisch/UoC/Dissertation/Experiment/OpenSesame/NAP-FC/NAP_GER_AA_4blocks_noglides","yes","no","sans","no","20","no","black","no","Weiter","yes","768","legacy","8","8","0","/Users/aviadalbert/Documents/Academisch/UoC/Dissertation/Experiment/OpenSesame/NAP-FC/NAP_GER_AA_4blocks_noglides/subject-44.csv","xpyriment","Jazzy James","3.1.9","yes","yes","59a800d99ad5a1025d81bb03","59a801616c613b0251691de0","yes","no","0","j","f","NA","NA","space","space","j","700","3488","NA","NA","42446","10499","700","2","legacy","1024","1","44100","-16","experiment","enval","4","1","0","0","1","engl","44","","even","167760","NA","NA","NA","NA","NA","NA","1774","NA","1775","1774","114499","156950","197469","195963","198170","171249","167756","NA","NA","59941","88413","NA","167516","NA","167760","NA","197469","197469","NA","NA","195959","NAP perception","8","10761","9","yes","1024"
"90","yes","90","1204.2","1204.2","white","no","xpyriment","Ich habe die obigen Informationen gelesen und verstanden.","legacy","legacy","0","uniform","1","0","NA","undefined","undefined","1","f","0","0","NA","NA","NA","NA","NA","0","0","0","0","0","0","9","9","9","0","0","NA","NA","0","0","0","0","NA","0","0","9","9","9","9","9","Mon Nov  6 11:54:44 2017","Forced-choice identification task with a practice and an experimental phase","yes","NAP_GER_AA_4blocks_noglides.osexp","/Users/aviadalbert/Documents/Academisch/UoC/Dissertation/Experiment/OpenSesame/NAP-FC/NAP_GER_AA_4blocks_noglides","yes","no","sans","no","20","no","black","no","Weiter","yes","768","legacy","9","9","0","/Users/aviadalbert/Documents/Academisch/UoC/Dissertation/Experiment/OpenSesame/NAP-FC/NAP_GER_AA_4blocks_noglides/subject-44.csv","xpyriment","Jazzy James","3.1.9","yes","yes","59a800d99ad5a1025d81bb03","59a801616c613b0251691de0","yes","no","0","f","f","NA","NA","space","space","f","1281","3488","NA","NA","42446","10499","1281","2","legacy","1024","1","44100","-16","experiment","vlal","4","1","0","0","1","engl","44","","even","167760","NA","NA","NA","NA","NA","NA","1774","NA","1775","1774","114499","156950","199968","198464","201250","171249","167756","NA","NA","59941","88413","NA","167516","NA","167760","NA","199968","199968","NA","NA","198460","NAP perception","9","12042","10","yes","1024"
"100","yes","100","1145","1145","white","no","xpyriment","Ich habe die obigen Informationen gelesen und verstanden.","legacy","legacy","0","uniform","1","0","0","undefined","undefined","1","j","2","1","NA","0","1","0","0","0","0","0","0","0","0","10","10","10","0","0","0","NA","0","0","2","0","0","0","2","10","10","10","10","10","Mon Nov  6 11:54:44 2017","Forced-choice identification task with a practice and an experimental phase","yes","NAP_GER_AA_4blocks_noglides.osexp","/Users/aviadalbert/Documents/Academisch/UoC/Dissertation/Experiment/OpenSesame/NAP-FC/NAP_GER_AA_4blocks_noglides","yes","no","sans","no","20","no","black","no","Weiter","yes","768","legacy","0","9","0","/Users/aviadalbert/Documents/Academisch/UoC/Dissertation/Experiment/OpenSesame/NAP-FC/NAP_GER_AA_4blocks_noglides/subject-44.csv","xpyriment","Jazzy James","3.1.9","yes","yes","59a800d99ad5a1025d81bb03","59a801616c613b0251691de0","no","no","0","j","f","space","NA","space","space","j","1145","1882","15156","NA","42446","10499","1145","2","legacy","1024","1","44100","-16","experiment","eʃpal","4","1","0","0","1","engl","44","","even","218692","202972","NA","NA","220575","218688","NA","1774","218184","1775","1774","114499","156950","222297","220794","223443","171249","167756","202971","NA","59941","88413","201311","167516","218691","167760","NA","222297","222297","NA","NA","220790","NAP perception","1","1145","1","yes","1024"
"100","yes","100","1058.5","1058.5","white","no","xpyriment","Ich habe die obigen Informationen gelesen und verstanden.","legacy","legacy","0","uniform","1","0","0","undefined","undefined","1","f","2","1","NA","0","1","0","0","0","0","0","0","0","0","11","11","11","0","0","0","NA","0","0","2","0","0","0","2","11","11","11","11","11","Mon Nov  6 11:54:44 2017","Forced-choice identification task with a practice and an experimental phase","yes","NAP_GER_AA_4blocks_noglides.osexp","/Users/aviadalbert/Documents/Academisch/UoC/Dissertation/Experiment/OpenSesame/NAP-FC/NAP_GER_AA_4blocks_noglides","yes","no","sans","no","20","no","black","no","Weiter","yes","768","legacy","1","9","0","/Users/aviadalbert/Documents/Academisch/UoC/Dissertation/Experiment/OpenSesame/NAP-FC/NAP_GER_AA_4blocks_noglides/subject-44.csv","xpyriment","Jazzy James","3.1.9","yes","yes","59a800d99ad5a1025d81bb03","59a801616c613b0251691de0","no","no","0","f","f","space","NA","space","space","f","972","1882","15156","NA","42446","10499","972","2","legacy","1024","1","44100","-16","experiment","sfal","4","1","0","0","1","engl","44","","even","218692","202972","NA","NA","220575","218688","NA","1774","218184","1775","1774","114499","156950","225223","223720","226196","171249","167756","202971","NA","59941","88413","201311","167516","218691","167760","NA","225223","225223","NA","NA","223716","NAP perception","2","2117","2","yes","1024"
"100","yes","100","964","964","white","no","xpyriment","Ich habe die obigen Informationen gelesen und verstanden.","legacy","legacy","0","uniform","1","0","0","undefined","undefined","1","j","2","1","NA","0","1","0","0","0","0","0","0","0","0","12","12","12","0","0","0","NA","0","0","2","0","0","0","2","12","12","12","12","12","Mon Nov  6 11:54:44 2017","Forced-choice identification task with a practice and an experimental phase","yes","NAP_GER_AA_4blocks_noglides.osexp","/Users/aviadalbert/Documents/Academisch/UoC/Dissertation/Experiment/OpenSesame/NAP-FC/NAP_GER_AA_4blocks_noglides","yes","no","sans","no","20","no","black","no","Weiter","yes","768","legacy","2","9","0","/Users/aviadalbert/Documents/Academisch/UoC/Dissertation/Experiment/OpenSesame/NAP-FC/NAP_GER_AA_4blocks_noglides/subject-44.csv","xpyriment","Jazzy James","3.1.9","yes","yes","59a800d99ad5a1025d81bb03","59a801616c613b0251691de0","no","no","0","j","f","space","NA","space","space","j","775","1882","15156","NA","42446","10499","775","2","legacy","1024","1","44100","-16","experiment","enfal","4","1","0","0","1","engl","44","","even","218692","202972","NA","NA","220575","218688","NA","1774","218184","1775","1774","114499","156950","227984","226480","228760","171249","167756","202971","NA","59941","88413","201311","167516","218691","167760","NA","227983","227983","NA","NA","226476","NAP perception","3","2892","3","yes","1024"
"100","yes","100","924.5","924.5","white","no","xpyriment","Ich habe die obigen Informationen gelesen und verstanden.","legacy","legacy","0","uniform","1","0","0","undefined","undefined","1","j","2","1","NA","0","1","0","0","0","0","0","0","0","0","13","13","13","0","0","0","NA","0","0","2","0","0","0","2","13","13","13","13","13","Mon Nov  6 11:54:44 2017","Forced-choice identification task with a practice and an experimental phase","yes","NAP_GER_AA_4blocks_noglides.osexp","/Users/aviadalbert/Documents/Academisch/UoC/Dissertation/Experiment/OpenSesame/NAP-FC/NAP_GER_AA_4blocks_noglides","yes","no","sans","no","20","no","black","no","Weiter","yes","768","legacy","3","9","0","/Users/aviadalbert/Documents/Academisch/UoC/Dissertation/Experiment/OpenSesame/NAP-FC/NAP_GER_AA_4blocks_noglides/subject-44.csv","xpyriment","Jazzy James","3.1.9","yes","yes","59a800d99ad5a1025d81bb03","59a801616c613b0251691de0","no","no","0","j","f","space","NA","space","space","j","806","1882","15156","NA","42446","10499","806","2","legacy","1024","1","44100","-16","experiment","ezmal","4","1","0","0","1","engl","44","","even","218692","202972","NA","NA","220575","218688","NA","1774","218184","1775","1774","114499","156950","230569","229062","231376","171249","167756","202971","NA","59941","88413","201311","167516","218691","167760","NA","230569","230569","NA","NA","229058","NAP perception","4","3698","4","yes","1024"
"100","yes","100","905.4","905.4","white","no","xpyriment","Ich habe die obigen Informationen gelesen und verstanden.","legacy","legacy","0","uniform","1","0","0","undefined","undefined","1","j","2","1","NA","0","1","0","0","0","0","0","0","0","0","14","14","14","0","0","0","NA","0","0","2","0","0","0","2","14","14","14","14","14","Mon Nov  6 11:54:44 2017","Forced-choice identification task with a practice and an experimental phase","yes","NAP_GER_AA_4blocks_noglides.osexp","/Users/aviadalbert/Documents/Academisch/UoC/Dissertation/Experiment/OpenSesame/NAP-FC/NAP_GER_AA_4blocks_noglides","yes","no","sans","no","20","no","black","no","Weiter","yes","768","legacy","4","9","0","/Users/aviadalbert/Documents/Academisch/UoC/Dissertation/Experiment/OpenSesame/NAP-FC/NAP_GER_AA_4blocks_noglides/subject-44.csv","xpyriment","Jazzy James","3.1.9","yes","yes","59a800d99ad5a1025d81bb03","59a801616c613b0251691de0","no","no","0","j","f","space","NA","space","space","j","829","1882","15156","NA","42446","10499","829","2","legacy","1024","1","44100","-16","experiment","fesal","4","1","0","0","1","engl","44","","even","218692","202972","NA","NA","220575","218688","NA","1774","218184","1775","1774","114499","156950","233182","231677","234012","171249","167756","202971","NA","59941","88413","201311","167516","218691","167760","NA","233182","233182","NA","NA","231673","NAP perception","5","4527","5","yes","1024"
"83.3333333333","yes","83.3333333333","1049.5","1049.5","white","no","xpyriment","Ich habe die obigen Informationen gelesen und verstanden.","legacy","legacy","0","uniform","0","0","0","undefined","undefined","0","f","2","1","NA","0","1","0","0","0","0","0","0","0","0","15","15","15","0","0","0","NA","0","0","2","0","0","0","2","15","15","15","15","15","Mon Nov  6 11:54:44 2017","Forced-choice identification task with a practice and an experimental phase","yes","NAP_GER_AA_4blocks_noglides.osexp","/Users/aviadalbert/Documents/Academisch/UoC/Dissertation/Experiment/OpenSesame/NAP-FC/NAP_GER_AA_4blocks_noglides","yes","no","sans","no","20","no","black","no","Weiter","yes","768","legacy","5","9","0","/Users/aviadalbert/Documents/Academisch/UoC/Dissertation/Experiment/OpenSesame/NAP-FC/NAP_GER_AA_4blocks_noglides/subject-44.csv","xpyriment","Jazzy James","3.1.9","yes","yes","59a800d99ad5a1025d81bb03","59a801616c613b0251691de0","no","no","0","j","f","space","NA","space","space","j","1770","1882","15156","NA","42446","10499","1770","2","legacy","1024","1","44100","-16","experiment","lpal","4","1","0","0","1","engl","44","","even","218692","202972","NA","NA","220575","218688","NA","1774","218184","1775","1774","114499","156950","235817","234310","237588","171249","167756","202971","NA","59941","88413","201311","167516","218691","167760","NA","235816","235817","NA","NA","234306","NAP perception","5","6297","6","yes","1024"
"85.7142857143","yes","85.7142857143","1041.85714286","1041.85714286","white","no","xpyriment","Ich habe die obigen Informationen gelesen und verstanden.","legacy","legacy","0","uniform","1","0","0","undefined","undefined","1","j","2","1","NA","0","1","0","0","0","0","0","0","0","0","16","16","16","0","0","0","NA","0","0","2","0","0","0","2","16","16","16","16","16","Mon Nov  6 11:54:44 2017","Forced-choice identification task with a practice and an experimental phase","yes","NAP_GER_AA_4blocks_noglides.osexp","/Users/aviadalbert/Documents/Academisch/UoC/Dissertation/Experiment/OpenSesame/NAP-FC/NAP_GER_AA_4blocks_noglides","yes","no","sans","no","20","no","black","no","Weiter","yes","768","legacy","6","9","0","/Users/aviadalbert/Documents/Academisch/UoC/Dissertation/Experiment/OpenSesame/NAP-FC/NAP_GER_AA_4blocks_noglides/subject-44.csv","xpyriment","Jazzy James","3.1.9","yes","yes","59a800d99ad5a1025d81bb03","59a801616c613b0251691de0","no","no","0","j","f","space","NA","space","space","j","996","1882","15156","NA","42446","10499","996","2","legacy","1024","1","44100","-16","experiment","espal","4","1","0","0","1","engl","44","","even","218692","202972","NA","NA","220575","218688","NA","1774","218184","1775","1774","114499","156950","239380","237875","240377","171249","167756","202971","NA","59941","88413","201311","167516","218691","167760","NA","239380","239380","NA","NA","237871","NAP perception","6","7293","7","yes","1024"
"87.5","yes","87.5","1095.625","1095.625","white","no","xpyriment","Ich habe die obigen Informationen gelesen und verstanden.","legacy","legacy","0","uniform","1","0","0","undefined","undefined","1","f","2","1","NA","0","1","0","0","0","0","0","0","0","0","17","17","17","0","0","0","NA","0","0","2","0","0","0","2","17","17","17","17","17","Mon Nov  6 11:54:44 2017","Forced-choice identification task with a practice and an experimental phase","yes","NAP_GER_AA_4blocks_noglides.osexp","/Users/aviadalbert/Documents/Academisch/UoC/Dissertation/Experiment/OpenSesame/NAP-FC/NAP_GER_AA_4blocks_noglides","yes","no","sans","no","20","no","black","no","Weiter","yes","768","legacy","7","9","0","/Users/aviadalbert/Documents/Academisch/UoC/Dissertation/Experiment/OpenSesame/NAP-FC/NAP_GER_AA_4blocks_noglides/subject-44.csv","xpyriment","Jazzy James","3.1.9","yes","yes","59a800d99ad5a1025d81bb03","59a801616c613b0251691de0","no","no","0","f","f","space","NA","space","space","f","1472","1882","15156","NA","42446","10499","1472","2","legacy","1024","1","44100","-16","experiment","ftal","4","1","0","0","1","engl","44","","even","218692","202972","NA","NA","220575","218688","NA","1774","218184","1775","1774","114499","156950","242155","240650","243628","171249","167756","202971","NA","59941","88413","201311","167516","218691","167760","NA","242155","242155","NA","NA","240647","NAP perception","7","8765","8","yes","1024"
"77.7777777778","yes","77.7777777778","1168.77777778","1168.77777778","white","no","xpyriment","Ich habe die obigen Informationen gelesen und verstanden.","legacy","legacy","0","uniform","0","0","0","undefined","undefined","0","f","2","1","NA","0","1","0","0","0","0","0","0","0","0","18","18","18","0","0","0","NA","0","0","2","0","0","0","2","18","18","18","18","18","Mon Nov  6 11:54:44 2017","Forced-choice identification task with a practice and an experimental phase","yes","NAP_GER_AA_4blocks_noglides.osexp","/Users/aviadalbert/Documents/Academisch/UoC/Dissertation/Experiment/OpenSesame/NAP-FC/NAP_GER_AA_4blocks_noglides","yes","no","sans","no","20","no","black","no","Weiter","yes","768","legacy","8","9","0","/Users/aviadalbert/Documents/Academisch/UoC/Dissertation/Experiment/OpenSesame/NAP-FC/NAP_GER_AA_4blocks_noglides/subject-44.csv","xpyriment","Jazzy James","3.1.9","yes","yes","59a800d99ad5a1025d81bb03","59a801616c613b0251691de0","no","no","0","j","f","space","NA","space","space","j","1754","1882","15156","NA","42446","10499","1754","2","legacy","1024","1","44100","-16","experiment","mzal","4","1","0","0","1","engl","44","","even","218692","202972","NA","NA","220575","218688","NA","1774","218184","1775","1774","114499","156950","245408","243905","247163","171249","167756","202971","NA","59941","88413","201311","167516","218691","167760","NA","245408","245408","NA","NA","243901","NAP perception","7","10519","9","yes","1024"
"80","yes","80","1220.7","1220.7","white","no","xpyriment","Ich habe die obigen Informationen gelesen und verstanden.","legacy","legacy","0","uniform","1","0","0","undefined","undefined","1","j","2","1","NA","0","1","0","0","0","0","0","0","0","0","19","19","19","0","0","0","NA","0","0","2","0","0","0","2","19","19","19","19","19","Mon Nov  6 11:54:44 2017","Forced-choice identification task with a practice and an experimental phase","yes","NAP_GER_AA_4blocks_noglides.osexp","/Users/aviadalbert/Documents/Academisch/UoC/Dissertation/Experiment/OpenSesame/NAP-FC/NAP_GER_AA_4blocks_noglides","yes","no","sans","no","20","no","black","no","Weiter","yes","768","legacy","9","9","0","/Users/aviadalbert/Documents/Academisch/UoC/Dissertation/Experiment/OpenSesame/NAP-FC/NAP_GER_AA_4blocks_noglides/subject-44.csv","xpyriment","Jazzy James","3.1.9","yes","yes","59a800d99ad5a1025d81bb03","59a801616c613b0251691de0","no","no","0","j","f","space","NA","space","space","j","1688","1882","15156","NA","42446","10499","1688","2","legacy","1024","1","44100","-16","experiment","sepal","4","1","0","0","1","engl","44","","even","218692","202972","NA","NA","220575","218688","NA","1774","218184","1775","1774","114499","156950","248960","247452","250650","171249","167756","202971","NA","59941","88413","201311","167516","218691","167760","NA","248960","248960","NA","NA","247448","NAP perception","8","12207","10","yes","1024"
"81.8181818182","yes","81.8181818182","1185.36363636","1185.36363636","white","no","xpyriment","Ich habe die obigen Informationen gelesen und verstanden.","legacy","legacy","0","uniform","1","0","0","undefined","undefined","1","f","2","1","NA","0","1","0","0","0","0","0","0","0","0","20","20","20","0","0","0","NA","0","0","2","0","0","0","2","20","20","20","20","20","Mon Nov  6 11:54:44 2017","Forced-choice identification task with a practice and an experimental phase","yes","NAP_GER_AA_4blocks_noglides.osexp","/Users/aviadalbert/Documents/Academisch/UoC/Dissertation/Experiment/OpenSesame/NAP-FC/NAP_GER_AA_4blocks_noglides","yes","no","sans","no","20","no","black","no","Weiter","yes","768","legacy","10","9","0","/Users/aviadalbert/Documents/Academisch/UoC/Dissertation/Experiment/OpenSesame/NAP-FC/NAP_GER_AA_4blocks_noglides/subject-44.csv","xpyriment","Jazzy James","3.1.9","yes","yes","59a800d99ad5a1025d81bb03","59a801616c613b0251691de0","no","no","0","f","f","space","NA","space","space","f","832","1882","15156","NA","42446","10499","832","2","legacy","1024","1","44100","-16","experiment","ʃfal","4","1","0","0","1","engl","44","","even","218692","202972","NA","NA","220575","218688","NA","1774","218184","1775","1774","114499","156950","252446","250940","253280","171249","167756","202971","NA","59941","88413","201311","167516","218691","167760","NA","252446","252446","NA","NA","250937","NAP perception","9","13039","11","yes","1024"
"83.3333333333","yes","83.3333333333","1193.58333333","1193.58333333","white","no","xpyriment","Ich habe die obigen Informationen gelesen und verstanden.","legacy","legacy","0","uniform","1","0","0","undefined","undefined","1","f","2","1","NA","0","1","0","0","0","0","0","0","0","0","21","21","21","0","0","0","NA","0","0","2","0","0","0","2","21","21","21","21","21","Mon Nov  6 11:54:44 2017","Forced-choice identification task with a practice and an experimental phase","yes","NAP_GER_AA_4blocks_noglides.osexp","/Users/aviadalbert/Documents/Academisch/UoC/Dissertation/Experiment/OpenSesame/NAP-FC/NAP_GER_AA_4blocks_noglides","yes","no","sans","no","20","no","black","no","Weiter","yes","768","legacy","11","9","0","/Users/aviadalbert/Documents/Academisch/UoC/Dissertation/Experiment/OpenSesame/NAP-FC/NAP_GER_AA_4blocks_noglides/subject-44.csv","xpyriment","Jazzy James","3.1.9","yes","yes","59a800d99ad5a1025d81bb03","59a801616c613b0251691de0","no","no","0","f","f","space","NA","space","space","f","1284","1882","15156","NA","42446","10499","1284","2","legacy","1024","1","44100","-16","experiment","vlal","4","1","0","0","1","engl","44","","even","218692","202972","NA","NA","220575","218688","NA","1774","218184","1775","1774","114499","156950","255069","253565","256355","171249","167756","202971","NA","59941","88413","201311","167516","218691","167760","NA","255069","255069","NA","NA","253561","NAP perception","10","14323","12","yes","1024"
"84.6153846154","yes","84.6153846154","1167.92307692","1167.92307692","white","no","xpyriment","Ich habe die obigen Informationen gelesen und verstanden.","legacy","legacy","0","uniform","1","0","0","undefined","undefined","1","j","2","1","NA","0","1","0","0","0","0","0","0","0","0","22","22","22","0","0","0","NA","0","0","2","0","0","0","2","22","22","22","22","22","Mon Nov  6 11:54:44 2017","Forced-choice identification task with a practice and an experimental phase","yes","NAP_GER_AA_4blocks_noglides.osexp","/Users/aviadalbert/Documents/Academisch/UoC/Dissertation/Experiment/OpenSesame/NAP-FC/NAP_GER_AA_4blocks_noglides","yes","no","sans","no","20","no","black","no","Weiter","yes","768","legacy","12","9","0","/Users/aviadalbert/Documents/Academisch/UoC/Dissertation/Experiment/OpenSesame/NAP-FC/NAP_GER_AA_4blocks_noglides/subject-44.csv","xpyriment","Jazzy James","3.1.9","yes","yes","59a800d99ad5a1025d81bb03","59a801616c613b0251691de0","no","no","0","j","f","space","NA","space","space","j","860","1882","15156","NA","42446","10499","860","2","legacy","1024","1","44100","-16","experiment","emtal","4","1","0","0","1","engl","44","","even","218692","202972","NA","NA","220575","218688","NA","1774","218184","1775","1774","114499","156950","258154","256648","259015","171249","167756","202971","NA","59941","88413","201311","167516","218691","167760","NA","258154","258154","NA","NA","256644","NAP perception","11","15183","13","yes","1024"
"85.7142857143","yes","85.7142857143","1154","1154","white","no","xpyriment","Ich habe die obigen Informationen gelesen und verstanden.","legacy","legacy","0","uniform","1","0","0","undefined","undefined","1","f","2","1","NA","0","1","0","0","0","0","0","0","0","0","23","23","23","0","0","0","NA","0","0","2","0","0","0","2","23","23","23","23","23","Mon Nov  6 11:54:44 2017","Forced-choice identification task with a practice and an experimental phase","yes","NAP_GER_AA_4blocks_noglides.osexp","/Users/aviadalbert/Documents/Academisch/UoC/Dissertation/Experiment/OpenSesame/NAP-FC/NAP_GER_AA_4blocks_noglides","yes","no","sans","no","20","no","black","no","Weiter","yes","768","legacy","13","9","0","/Users/aviadalbert/Documents/Academisch/UoC/Dissertation/Experiment/OpenSesame/NAP-FC/NAP_GER_AA_4blocks_noglides/subject-44.csv","xpyriment","Jazzy James","3.1.9","yes","yes","59a800d99ad5a1025d81bb03","59a801616c613b0251691de0","no","no","0","f","f","space","NA","space","space","f","973","1882","15156","NA","42446","10499","973","2","legacy","1024","1","44100","-16","experiment","nfal","4","1","0","0","1","engl","44","","even","218692","202972","NA","NA","220575","218688","NA","1774","218184","1775","1774","114499","156950","260819","259316","261793","171249","167756","202971","NA","59941","88413","201311","167516","218691","167760","NA","260819","260819","NA","NA","259312","NAP perception","12","16156","14","yes","1024"
"86.6666666667","yes","86.6666666667","1145.26666667","1145.26666667","white","no","xpyriment","Ich habe die obigen Informationen gelesen und verstanden.","legacy","legacy","0","uniform","1","0","0","undefined","undefined","1","f","2","1","NA","0","1","0","0","0","0","0","0","0","0","24","24","24","0","0","0","NA","0","0","2","0","0","0","2","24","24","24","24","24","Mon Nov  6 11:54:44 2017","Forced-choice identification task with a practice and an experimental phase","yes","NAP_GER_AA_4blocks_noglides.osexp","/Users/aviadalbert/Documents/Academisch/UoC/Dissertation/Experiment/OpenSesame/NAP-FC/NAP_GER_AA_4blocks_noglides","yes","no","sans","no","20","no","black","no","Weiter","yes","768","legacy","14","9","0","/Users/aviadalbert/Documents/Academisch/UoC/Dissertation/Experiment/OpenSesame/NAP-FC/NAP_GER_AA_4blocks_noglides/subject-44.csv","xpyriment","Jazzy James","3.1.9","yes","yes","59a800d99ad5a1025d81bb03","59a801616c613b0251691de0","no","no","0","f","f","space","NA","space","space","f","1023","1882","15156","NA","42446","10499","1023","2","legacy","1024","1","44100","-16","experiment","ʃpal","4","1","0","0","1","engl","44","","even","218692","202972","NA","NA","220575","218688","NA","1774","218184","1775","1774","114499","156950","263582","262078","264606","171249","167756","202971","NA","59941","88413","201311","167516","218691","167760","NA","263582","263582","NA","NA","262074","NAP perception","13","17179","15","yes","1024"
"87.5","yes","87.5","1126.375","1126.375","white","no","xpyriment","Ich habe die obigen Informationen gelesen und verstanden.","legacy","legacy","0","uniform","1","0","0","undefined","undefined","1","j","2","1","NA","0","1","0","0","0","0","0","0","0","0","25","25","25","0","0","0","NA","0","0","2","0","0","0","2","25","25","25","25","25","Mon Nov  6 11:54:44 2017","Forced-choice identification task with a practice and an experimental phase","yes","NAP_GER_AA_4blocks_noglides.osexp","/Users/aviadalbert/Documents/Academisch/UoC/Dissertation/Experiment/OpenSesame/NAP-FC/NAP_GER_AA_4blocks_noglides","yes","no","sans","no","20","no","black","no","Weiter","yes","768","legacy","15","9","0","/Users/aviadalbert/Documents/Academisch/UoC/Dissertation/Experiment/OpenSesame/NAP-FC/NAP_GER_AA_4blocks_noglides/subject-44.csv","xpyriment","Jazzy James","3.1.9","yes","yes","59a800d99ad5a1025d81bb03","59a801616c613b0251691de0","no","no","0","j","f","space","NA","space","space","j","843","1882","15156","NA","42446","10499","843","2","legacy","1024","1","44100","-16","experiment","vezal","4","1","0","0","1","engl","44","","even","218692","202972","NA","NA","220575","218688","NA","1774","218184","1775","1774","114499","156950","266403","264899","267247","171249","167756","202971","NA","59941","88413","201311","167516","218691","167760","NA","266403","266403","NA","NA","264895","NAP perception","14","18022","16","yes","1024"
"88.2352941176","yes","88.2352941176","1135.52941176","1135.52941176","white","no","xpyriment","Ich habe die obigen Informationen gelesen und verstanden.","legacy","legacy","0","uniform","1","0","0","undefined","undefined","1","j","2","1","NA","0","1","0","0","0","0","0","0","0","0","26","26","26","0","0","0","NA","0","0","2","0","0","0","2","26","26","26","26","26","Mon Nov  6 11:54:44 2017","Forced-choice identification task with a practice and an experimental phase","yes","NAP_GER_AA_4blocks_noglides.osexp","/Users/aviadalbert/Documents/Academisch/UoC/Dissertation/Experiment/OpenSesame/NAP-FC/NAP_GER_AA_4blocks_noglides","yes","no","sans","no","20","no","black","no","Weiter","yes","768","legacy","16","9","0","/Users/aviadalbert/Documents/Academisch/UoC/Dissertation/Experiment/OpenSesame/NAP-FC/NAP_GER_AA_4blocks_noglides/subject-44.csv","xpyriment","Jazzy James","3.1.9","yes","yes","59a800d99ad5a1025d81bb03","59a801616c613b0251691de0","no","no","0","j","f","space","NA","space","space","j","1282","1882","15156","NA","42446","10499","1282","2","legacy","1024","1","44100","-16","experiment","eʃmal","4","1","0","0","1","engl","44","","even","218692","202972","NA","NA","220575","218688","NA","1774","218184","1775","1774","114499","156950","269057","267552","270340","171249","167756","202971","NA","59941","88413","201311","167516","218691","167760","NA","269057","269057","NA","NA","267548","NAP perception","15","19304","17","yes","1024"
"88.8888888889","yes","88.8888888889","1138.94444444","1138.94444444","white","no","xpyriment","Ich habe die obigen Informationen gelesen und verstanden.","legacy","legacy","0","uniform","1","0","0","undefined","undefined","1","j","2","1","NA","0","1","0","0","0","0","0","0","0","0","27","27","27","0","0","0","NA","0","0","2","0","0","0","2","27","27","27","27","27","Mon Nov  6 11:54:44 2017","Forced-choice identification task with a practice and an experimental phase","yes","NAP_GER_AA_4blocks_noglides.osexp","/Users/aviadalbert/Documents/Academisch/UoC/Dissertation/Experiment/OpenSesame/NAP-FC/NAP_GER_AA_4blocks_noglides","yes","no","sans","no","20","no","black","no","Weiter","yes","768","legacy","17","9","0","/Users/aviadalbert/Documents/Academisch/UoC/Dissertation/Experiment/OpenSesame/NAP-FC/NAP_GER_AA_4blocks_noglides/subject-44.csv","xpyriment","Jazzy James","3.1.9","yes","yes","59a800d99ad5a1025d81bb03","59a801616c613b0251691de0","no","no","0","j","f","space","NA","space","space","j","1197","1882","15156","NA","42446","10499","1197","2","legacy","1024","1","44100","-16","experiment","ezval","4","1","0","0","1","engl","44","","even","218692","202972","NA","NA","220575","218688","NA","1774","218184","1775","1774","114499","156950","272145","270640","273343","171249","167756","202971","NA","59941","88413","201311","167516","218691","167760","NA","272145","272145","NA","NA","270636","NAP perception","16","20501","18","yes","1024"
"89.4736842105","yes","89.4736842105","1153","1153","white","no","xpyriment","Ich habe die obigen Informationen gelesen und verstanden.","legacy","legacy","0","uniform","1","0","0","undefined","undefined","1","j","2","1","NA","0","1","0","0","0","0","0","0","0","0","28","28","28","0","0","0","NA","0","0","2","0","0","0","2","28","28","28","28","28","Mon Nov  6 11:54:44 2017","Forced-choice identification task with a practice and an experimental phase","yes","NAP_GER_AA_4blocks_noglides.osexp","/Users/aviadalbert/Documents/Academisch/UoC/Dissertation/Experiment/OpenSesame/NAP-FC/NAP_GER_AA_4blocks_noglides","yes","no","sans","no","20","no","black","no","Weiter","yes","768","legacy","18","9","0","/Users/aviadalbert/Documents/Academisch/UoC/Dissertation/Experiment/OpenSesame/NAP-FC/NAP_GER_AA_4blocks_noglides/subject-44.csv","xpyriment","Jazzy James","3.1.9","yes","yes","59a800d99ad5a1025d81bb03","59a801616c613b0251691de0","no","no","0","j","f","space","NA","space","space","j","1406","1882","15156","NA","42446","10499","1406","2","legacy","1024","1","44100","-16","experiment","elmal","4","1","0","0","1","engl","44","","even","218692","202972","NA","NA","220575","218688","NA","1774","218184","1775","1774","114499","156950","275130","273625","276537","171249","167756","202971","NA","59941","88413","201311","167516","218691","167760","NA","275129","275130","NA","NA","273621","NAP perception","17","21907","19","yes","1024"
"90","yes","90","1137.5","1137.5","white","no","xpyriment","Ich habe die obigen Informationen gelesen und verstanden.","legacy","legacy","0","uniform","1","0","0","undefined","undefined","1","f","2","1","NA","0","1","0","0","0","0","0","0","0","0","29","29","29","0","0","0","NA","0","0","2","0","0","0","2","29","29","29","29","29","Mon Nov  6 11:54:44 2017","Forced-choice identification task with a practice and an experimental phase","yes","NAP_GER_AA_4blocks_noglides.osexp","/Users/aviadalbert/Documents/Academisch/UoC/Dissertation/Experiment/OpenSesame/NAP-FC/NAP_GER_AA_4blocks_noglides","yes","no","sans","no","20","no","black","no","Weiter","yes","768","legacy","19","9","0","/Users/aviadalbert/Documents/Academisch/UoC/Dissertation/Experiment/OpenSesame/NAP-FC/NAP_GER_AA_4blocks_noglides/subject-44.csv","xpyriment","Jazzy James","3.1.9","yes","yes","59a800d99ad5a1025d81bb03","59a801616c613b0251691de0","no","no","0","f","f","space","NA","space","space","f","843","1882","15156","NA","42446","10499","843","2","legacy","1024","1","44100","-16","experiment","npal","4","1","0","0","1","engl","44","","even","218692","202972","NA","NA","220575","218688","NA","1774","218184","1775","1774","114499","156950","278344","276838","279188","171249","167756","202971","NA","59941","88413","201311","167516","218691","167760","NA","278344","278344","NA","NA","276834","NAP perception","18","22750","20","yes","1024"
"90.4761904762","yes","90.4761904762","1134.33333333","1134.33333333","white","no","xpyriment","Ich habe die obigen Informationen gelesen und verstanden.","legacy","legacy","0","uniform","1","0","0","undefined","undefined","1","j","2","1","NA","0","1","0","0","0","0","0","0","0","0","30","30","30","0","0","0","NA","0","0","2","0","0","0","2","30","30","30","30","30","Mon Nov  6 11:54:44 2017","Forced-choice identification task with a practice and an experimental phase","yes","NAP_GER_AA_4blocks_noglides.osexp","/Users/aviadalbert/Documents/Academisch/UoC/Dissertation/Experiment/OpenSesame/NAP-FC/NAP_GER_AA_4blocks_noglides","yes","no","sans","no","20","no","black","no","Weiter","yes","768","legacy","20","9","0","/Users/aviadalbert/Documents/Academisch/UoC/Dissertation/Experiment/OpenSesame/NAP-FC/NAP_GER_AA_4blocks_noglides/subject-44.csv","xpyriment","Jazzy James","3.1.9","yes","yes","59a800d99ad5a1025d81bb03","59a801616c613b0251691de0","no","no","0","j","f","space","NA","space","space","j","1071","1882","15156","NA","42446","10499","1071","2","legacy","1024","1","44100","-16","experiment","fetal","4","1","0","0","1","engl","44","","even","218692","202972","NA","NA","220575","218688","NA","1774","218184","1775","1774","114499","156950","280981","279473","282054","171249","167756","202971","NA","59941","88413","201311","167516","218691","167760","NA","280981","280981","NA","NA","279469","NAP perception","19","23821","21","yes","1024"
"90.9090909091","yes","90.9090909091","1129.45454545","1129.45454545","white","no","xpyriment","Ich habe die obigen Informationen gelesen und verstanden.","legacy","legacy","0","uniform","1","0","0","undefined","undefined","1","j","2","1","NA","0","1","0","0","0","0","0","0","0","0","31","31","31","0","0","0","NA","0","0","2","0","0","0","2","31","31","31","31","31","Mon Nov  6 11:54:44 2017","Forced-choice identification task with a practice and an experimental phase","yes","NAP_GER_AA_4blocks_noglides.osexp","/Users/aviadalbert/Documents/Academisch/UoC/Dissertation/Experiment/OpenSesame/NAP-FC/NAP_GER_AA_4blocks_noglides","yes","no","sans","no","20","no","black","no","Weiter","yes","768","legacy","21","9","0","/Users/aviadalbert/Documents/Academisch/UoC/Dissertation/Experiment/OpenSesame/NAP-FC/NAP_GER_AA_4blocks_noglides/subject-44.csv","xpyriment","Jazzy James","3.1.9","yes","yes","59a800d99ad5a1025d81bb03","59a801616c613b0251691de0","no","no","0","j","f","space","NA","space","space","j","1027","1882","15156","NA","42446","10499","1027","2","legacy","1024","1","44100","-16","experiment","zeval","4","1","0","0","1","engl","44","","even","218692","202972","NA","NA","220575","218688","NA","1774","218184","1775","1774","114499","156950","283849","282343","284878","171249","167756","202971","NA","59941","88413","201311","167516","218691","167760","NA","283849","283849","NA","NA","282339","NAP perception","20","24848","22","yes","1024"
"86.9565217391","yes","86.9565217391","1163.86956522","1163.86956522","white","no","xpyriment","Ich habe die obigen Informationen gelesen und verstanden.","legacy","legacy","0","uniform","0","0","0","undefined","undefined","0","f","2","1","NA","0","1","0","0","0","0","0","0","0","0","32","32","32","0","0","0","NA","0","0","2","0","0","0","2","32","32","32","32","32","Mon Nov  6 11:54:44 2017","Forced-choice identification task with a practice and an experimental phase","yes","NAP_GER_AA_4blocks_noglides.osexp","/Users/aviadalbert/Documents/Academisch/UoC/Dissertation/Experiment/OpenSesame/NAP-FC/NAP_GER_AA_4blocks_noglides","yes","no","sans","no","20","no","black","no","Weiter","yes","768","legacy","22","9","0","/Users/aviadalbert/Documents/Academisch/UoC/Dissertation/Experiment/OpenSesame/NAP-FC/NAP_GER_AA_4blocks_noglides/subject-44.csv","xpyriment","Jazzy James","3.1.9","yes","yes","59a800d99ad5a1025d81bb03","59a801616c613b0251691de0","no","no","0","j","f","space","NA","space","space","j","1921","1882","15156","NA","42446","10499","1921","2","legacy","1024","1","44100","-16","experiment","msal","4","1","0","0","1","engl","44","","even","218692","202972","NA","NA","220575","218688","NA","1774","218184","1775","1774","114499","156950","286683","285175","288606","171249","167756","202971","NA","59941","88413","201311","167516","218691","167760","NA","286683","286683","NA","NA","285171","NAP perception","20","26769","23","yes","1024"
"87.5","yes","87.5","1153.625","1153.625","white","no","xpyriment","Ich habe die obigen Informationen gelesen und verstanden.","legacy","legacy","0","uniform","1","0","0","undefined","undefined","1","f","2","1","NA","0","1","0","0","0","0","0","0","0","0","33","33","33","0","0","0","NA","0","0","2","0","0","0","2","33","33","33","33","33","Mon Nov  6 11:54:44 2017","Forced-choice identification task with a practice and an experimental phase","yes","NAP_GER_AA_4blocks_noglides.osexp","/Users/aviadalbert/Documents/Academisch/UoC/Dissertation/Experiment/OpenSesame/NAP-FC/NAP_GER_AA_4blocks_noglides","yes","no","sans","no","20","no","black","no","Weiter","yes","768","legacy","23","9","0","/Users/aviadalbert/Documents/Academisch/UoC/Dissertation/Experiment/OpenSesame/NAP-FC/NAP_GER_AA_4blocks_noglides/subject-44.csv","xpyriment","Jazzy James","3.1.9","yes","yes","59a800d99ad5a1025d81bb03","59a801616c613b0251691de0","no","no","0","f","f","space","NA","space","space","f","918","1882","15156","NA","42446","10499","918","2","legacy","1024","1","44100","-16","experiment","npal","4","1","0","0","1","engl","44","","even","218692","202972","NA","NA","220575","218688","NA","1774","218184","1775","1774","114499","156950","290400","288894","291320","171249","167756","202971","NA","59941","88413","201311","167516","218691","167760","NA","290400","290400","NA","NA","288890","NAP perception","21","27687","24","yes","1024"
"88","yes","88","1155.4","1155.4","white","no","xpyriment","Ich habe die obigen Informationen gelesen und verstanden.","legacy","legacy","0","uniform","1","0","0","undefined","undefined","1","j","2","1","NA","0","1","0","0","0","0","0","0","0","0","34","34","34","0","0","0","NA","0","0","2","0","0","0","2","34","34","34","34","34","Mon Nov  6 11:54:44 2017","Forced-choice identification task with a practice and an experimental phase","yes","NAP_GER_AA_4blocks_noglides.osexp","/Users/aviadalbert/Documents/Academisch/UoC/Dissertation/Experiment/OpenSesame/NAP-FC/NAP_GER_AA_4blocks_noglides","yes","no","sans","no","20","no","black","no","Weiter","yes","768","legacy","24","9","0","/Users/aviadalbert/Documents/Academisch/UoC/Dissertation/Experiment/OpenSesame/NAP-FC/NAP_GER_AA_4blocks_noglides/subject-44.csv","xpyriment","Jazzy James","3.1.9","yes","yes","59a800d99ad5a1025d81bb03","59a801616c613b0251691de0","no","no","0","j","f","space","NA","space","space","j","1198","1882","15156","NA","42446","10499","1198","2","legacy","1024","1","44100","-16","experiment","evzal","4","1","0","0","1","engl","44","","even","218692","202972","NA","NA","220575","218688","NA","1774","218184","1775","1774","114499","156950","293105","291602","294305","171249","167756","202971","NA","59941","88413","201311","167516","218691","167760","NA","293105","293105","NA","NA","291598","NAP perception","22","28885","25","yes","1024"
"88.4615384615","yes","88.4615384615","1143.92307692","1143.92307692","white","no","xpyriment","Ich habe die obigen Informationen gelesen und verstanden.","legacy","legacy","0","uniform","1","0","0","undefined","undefined","1","f","2","1","NA","0","1","0","0","0","0","0","0","0","0","35","35","35","0","0","0","NA","0","0","2","0","0","0","2","35","35","35","35","35","Mon Nov  6 11:54:44 2017","Forced-choice identification task with a practice and an experimental phase","yes","NAP_GER_AA_4blocks_noglides.osexp","/Users/aviadalbert/Documents/Academisch/UoC/Dissertation/Experiment/OpenSesame/NAP-FC/NAP_GER_AA_4blocks_noglides","yes","no","sans","no","20","no","black","no","Weiter","yes","768","legacy","25","9","0","/Users/aviadalbert/Documents/Academisch/UoC/Dissertation/Experiment/OpenSesame/NAP-FC/NAP_GER_AA_4blocks_noglides/subject-44.csv","xpyriment","Jazzy James","3.1.9","yes","yes","59a800d99ad5a1025d81bb03","59a801616c613b0251691de0","no","no","0","f","f","space","NA","space","space","f","857","1882","15156","NA","42446","10499","857","2","legacy","1024","1","44100","-16","experiment","nmal","4","1","0","0","1","engl","44","","even","218692","202972","NA","NA","220575","218688","NA","1774","218184","1775","1774","114499","156950","296096","294590","296955","171249","167756","202971","NA","59941","88413","201311","167516","218691","167760","NA","296096","296096","NA","NA","294586","NAP perception","23","29742","26","yes","1024"
"88.8888888889","yes","88.8888888889","1143.62962963","1143.62962963","white","no","xpyriment","Ich habe die obigen Informationen gelesen und verstanden.","legacy","legacy","0","uniform","1","0","0","undefined","undefined","1","f","2","1","NA","0","1","0","0","0","0","0","0","0","0","36","36","36","0","0","0","NA","0","0","2","0","0","0","2","36","36","36","36","36","Mon Nov  6 11:54:44 2017","Forced-choice identification task with a practice and an experimental phase","yes","NAP_GER_AA_4blocks_noglides.osexp","/Users/aviadalbert/Documents/Academisch/UoC/Dissertation/Experiment/OpenSesame/NAP-FC/NAP_GER_AA_4blocks_noglides","yes","no","sans","no","20","no","black","no","Weiter","yes","768","legacy","26","9","0","/Users/aviadalbert/Documents/Academisch/UoC/Dissertation/Experiment/OpenSesame/NAP-FC/NAP_GER_AA_4blocks_noglides/subject-44.csv","xpyriment","Jazzy James","3.1.9","yes","yes","59a800d99ad5a1025d81bb03","59a801616c613b0251691de0","no","no","0","f","f","space","NA","space","space","f","1136","1882","15156","NA","42446","10499","1136","2","legacy","1024","1","44100","-16","experiment","vzal","4","1","0","0","1","engl","44","","even","218692","202972","NA","NA","220575","218688","NA","1774","218184","1775","1774","114499","156950","298757","297249","299894","171249","167756","202971","NA","59941","88413","201311","167516","218691","167760","NA","298757","298757","NA","NA","297245","NAP perception","24","30878","27","yes","1024"
"89.2857142857","yes","89.2857142857","1135.64285714","1135.64285714","white","no","xpyriment","Ich habe die obigen Informationen gelesen und verstanden.","legacy","legacy","0","uniform","1","0","0","undefined","undefined","1","f","2","1","NA","0","1","0","0","0","0","0","0","0","0","37","37","37","0","0","0","NA","0","0","2","0","0","0","2","37","37","37","37","37","Mon Nov  6 11:54:44 2017","Forced-choice identification task with a practice and an experimental phase","yes","NAP_GER_AA_4blocks_noglides.osexp","/Users/aviadalbert/Documents/Academisch/UoC/Dissertation/Experiment/OpenSesame/NAP-FC/NAP_GER_AA_4blocks_noglides","yes","no","sans","no","20","no","black","no","Weiter","yes","768","legacy","27","9","0","/Users/aviadalbert/Documents/Academisch/UoC/Dissertation/Experiment/OpenSesame/NAP-FC/NAP_GER_AA_4blocks_noglides/subject-44.csv","xpyriment","Jazzy James","3.1.9","yes","yes","59a800d99ad5a1025d81bb03","59a801616c613b0251691de0","no","no","0","f","f","space","NA","space","space","f","920","1882","15156","NA","42446","10499","920","2","legacy","1024","1","44100","-16","experiment","zval","4","1","0","0","1","engl","44","","even","218692","202972","NA","NA","220575","218688","NA","1774","218184","1775","1774","114499","156950","301671","300168","302593","171249","167756","202971","NA","59941","88413","201311","167516","218691","167760","NA","301671","301671","NA","NA","300164","NAP perception","25","31798","28","yes","1024"
"89.6551724138","yes","89.6551724138","1127.86206897","1127.86206897","white","no","xpyriment","Ich habe die obigen Informationen gelesen und verstanden.","legacy","legacy","0","uniform","1","0","0","undefined","undefined","1","f","2","1","NA","0","1","0","0","0","0","0","0","0","0","38","38","38","0","0","0","NA","0","0","2","0","0","0","2","38","38","38","38","38","Mon Nov  6 11:54:44 2017","Forced-choice identification task with a practice and an experimental phase","yes","NAP_GER_AA_4blocks_noglides.osexp","/Users/aviadalbert/Documents/Academisch/UoC/Dissertation/Experiment/OpenSesame/NAP-FC/NAP_GER_AA_4blocks_noglides","yes","no","sans","no","20","no","black","no","Weiter","yes","768","legacy","28","9","0","/Users/aviadalbert/Documents/Academisch/UoC/Dissertation/Experiment/OpenSesame/NAP-FC/NAP_GER_AA_4blocks_noglides/subject-44.csv","xpyriment","Jazzy James","3.1.9","yes","yes","59a800d99ad5a1025d81bb03","59a801616c613b0251691de0","no","no","0","f","f","space","NA","space","space","f","910","1882","15156","NA","42446","10499","910","2","legacy","1024","1","44100","-16","experiment","lfal","4","1","0","0","1","engl","44","","even","218692","202972","NA","NA","220575","218688","NA","1774","218184","1775","1774","114499","156950","304381","302876","305292","171249","167756","202971","NA","59941","88413","201311","167516","218691","167760","NA","304381","304381","NA","NA","302872","NAP perception","26","32708","29","yes","1024"
"90","yes","90","1112.53333333","1112.53333333","white","no","xpyriment","Ich habe die obigen Informationen gelesen und verstanden.","legacy","legacy","0","uniform","1","0","0","undefined","undefined","1","j","2","1","NA","0","1","0","0","0","0","0","0","0","0","39","39","39","0","0","0","NA","0","0","2","0","0","0","2","39","39","39","39","39","Mon Nov  6 11:54:44 2017","Forced-choice identification task with a practice and an experimental phase","yes","NAP_GER_AA_4blocks_noglides.osexp","/Users/aviadalbert/Documents/Academisch/UoC/Dissertation/Experiment/OpenSesame/NAP-FC/NAP_GER_AA_4blocks_noglides","yes","no","sans","no","20","no","black","no","Weiter","yes","768","legacy","29","9","0","/Users/aviadalbert/Documents/Academisch/UoC/Dissertation/Experiment/OpenSesame/NAP-FC/NAP_GER_AA_4blocks_noglides/subject-44.csv","xpyriment","Jazzy James","3.1.9","yes","yes","59a800d99ad5a1025d81bb03","59a801616c613b0251691de0","no","no","0","j","f","space","NA","space","space","j","668","1882","15156","NA","42446","10499","668","2","legacy","1024","1","44100","-16","experiment","velal","4","1","0","0","1","engl","44","","even","218692","202972","NA","NA","220575","218688","NA","1774","218184","1775","1774","114499","156950","307104","305598","307773","171249","167756","202971","NA","59941","88413","201311","167516","218691","167760","NA","307104","307104","NA","NA","305594","NAP perception","27","33376","30","yes","1024"
"90.3225806452","yes","90.3225806452","1099.67741935","1099.67741935","white","no","xpyriment","Ich habe die obigen Informationen gelesen und verstanden.","legacy","legacy","0","uniform","1","0","0","undefined","undefined","1","j","2","1","NA","0","1","0","0","0","0","0","0","0","0","40","40","40","0","0","0","NA","0","0","2","0","0","0","2","40","40","40","40","40","Mon Nov  6 11:54:44 2017","Forced-choice identification task with a practice and an experimental phase","yes","NAP_GER_AA_4blocks_noglides.osexp","/Users/aviadalbert/Documents/Academisch/UoC/Dissertation/Experiment/OpenSesame/NAP-FC/NAP_GER_AA_4blocks_noglides","yes","no","sans","no","20","no","black","no","Weiter","yes","768","legacy","30","9","0","/Users/aviadalbert/Documents/Academisch/UoC/Dissertation/Experiment/OpenSesame/NAP-FC/NAP_GER_AA_4blocks_noglides/subject-44.csv","xpyriment","Jazzy James","3.1.9","yes","yes","59a800d99ad5a1025d81bb03","59a801616c613b0251691de0","no","no","0","j","f","space","NA","space","space","j","714","1882","15156","NA","42446","10499","714","2","legacy","1024","1","44100","-16","experiment","mesal","4","1","0","0","1","engl","44","","even","218692","202972","NA","NA","220575","218688","NA","1774","218184","1775","1774","114499","156950","309567","308062","310282","171249","167756","202971","NA","59941","88413","201311","167516","218691","167760","NA","309567","309567","NA","NA","308058","NAP perception","28","34090","31","yes","1024"
"90.625","yes","90.625","1103.84375","1103.84375","white","no","xpyriment","Ich habe die obigen Informationen gelesen und verstanden.","legacy","legacy","0","uniform","1","0","0","undefined","undefined","1","f","2","1","NA","0","1","0","0","0","0","0","0","0","0","41","41","41","0","0","0","NA","0","0","2","0","0","0","2","41","41","41","41","41","Mon Nov  6 11:54:44 2017","Forced-choice identification task with a practice and an experimental phase","yes","NAP_GER_AA_4blocks_noglides.osexp","/Users/aviadalbert/Documents/Academisch/UoC/Dissertation/Experiment/OpenSesame/NAP-FC/NAP_GER_AA_4blocks_noglides","yes","no","sans","no","20","no","black","no","Weiter","yes","768","legacy","31","9","0","/Users/aviadalbert/Documents/Academisch/UoC/Dissertation/Experiment/OpenSesame/NAP-FC/NAP_GER_AA_4blocks_noglides/subject-44.csv","xpyriment","Jazzy James","3.1.9","yes","yes","59a800d99ad5a1025d81bb03","59a801616c613b0251691de0","no","no","0","f","f","space","NA","space","space","f","1233","1882","15156","NA","42446","10499","1233","2","legacy","1024","1","44100","-16","experiment","lmal","4","1","0","0","1","engl","44","","even","218692","202972","NA","NA","220575","218688","NA","1774","218184","1775","1774","114499","156950","312083","310577","313317","171249","167756","202971","NA","59941","88413","201311","167516","218691","167760","NA","312083","312083","NA","NA","310573","NAP perception","29","35323","32","yes","1024"
"90.9090909091","yes","90.9090909091","1095.09090909","1095.09090909","white","no","xpyriment","Ich habe die obigen Informationen gelesen und verstanden.","legacy","legacy","0","uniform","1","0","0","undefined","undefined","1","f","2","1","NA","0","1","0","0","0","0","0","0","0","0","42","42","42","0","0","0","NA","0","0","2","0","0","0","2","42","42","42","42","42","Mon Nov  6 11:54:44 2017","Forced-choice identification task with a practice and an experimental phase","yes","NAP_GER_AA_4blocks_noglides.osexp","/Users/aviadalbert/Documents/Academisch/UoC/Dissertation/Experiment/OpenSesame/NAP-FC/NAP_GER_AA_4blocks_noglides","yes","no","sans","no","20","no","black","no","Weiter","yes","768","legacy","32","9","0","/Users/aviadalbert/Documents/Academisch/UoC/Dissertation/Experiment/OpenSesame/NAP-FC/NAP_GER_AA_4blocks_noglides/subject-44.csv","xpyriment","Jazzy James","3.1.9","yes","yes","59a800d99ad5a1025d81bb03","59a801616c613b0251691de0","no","no","0","f","f","space","NA","space","space","f","815","1882","15156","NA","42446","10499","815","2","legacy","1024","1","44100","-16","experiment","lmal","4","1","0","0","1","engl","44","","even","218692","202972","NA","NA","220575","218688","NA","1774","218184","1775","1774","114499","156950","315115","313612","315931","171249","167756","202971","NA","59941","88413","201311","167516","218691","167760","NA","315115","315115","NA","NA","313608","NAP perception","30","36138","33","yes","1024"
"91.1764705882","yes","91.1764705882","1107.55882353","1107.55882353","white","no","xpyriment","Ich habe die obigen Informationen gelesen und verstanden.","legacy","legacy","0","uniform","1","0","0","undefined","undefined","1","j","2","1","NA","0","1","0","0","0","0","0","0","0","0","43","43","43","0","0","0","NA","0","0","2","0","0","0","2","43","43","43","43","43","Mon Nov  6 11:54:44 2017","Forced-choice identification task with a practice and an experimental phase","yes","NAP_GER_AA_4blocks_noglides.osexp","/Users/aviadalbert/Documents/Academisch/UoC/Dissertation/Experiment/OpenSesame/NAP-FC/NAP_GER_AA_4blocks_noglides","yes","no","sans","no","20","no","black","no","Weiter","yes","768","legacy","33","9","0","/Users/aviadalbert/Documents/Academisch/UoC/Dissertation/Experiment/OpenSesame/NAP-FC/NAP_GER_AA_4blocks_noglides/subject-44.csv","xpyriment","Jazzy James","3.1.9","yes","yes","59a800d99ad5a1025d81bb03","59a801616c613b0251691de0","no","no","0","j","f","space","NA","space","space","j","1519","1882","15156","NA","42446","10499","1519","2","legacy","1024","1","44100","-16","experiment","efsal","4","1","0","0","1","engl","44","","even","218692","202972","NA","NA","220575","218688","NA","1774","218184","1775","1774","114499","156950","317729","316223","319249","171249","167756","202971","NA","59941","88413","201311","167516","218691","167760","NA","317729","317729","NA","NA","316219","NAP perception","31","37657","34","yes","1024"
"91.4285714286","yes","91.4285714286","1131.42857143","1131.42857143","white","no","xpyriment","Ich habe die obigen Informationen gelesen und verstanden.","legacy","legacy","0","uniform","1","0","0","undefined","undefined","1","j","2","1","NA","0","1","0","0","0","0","0","0","0","0","44","44","44","0","0","0","NA","0","0","2","0","0","0","2","44","44","44","44","44","Mon Nov  6 11:54:44 2017","Forced-choice identification task with a practice and an experimental phase","yes","NAP_GER_AA_4blocks_noglides.osexp","/Users/aviadalbert/Documents/Academisch/UoC/Dissertation/Experiment/OpenSesame/NAP-FC/NAP_GER_AA_4blocks_noglides","yes","no","sans","no","20","no","black","no","Weiter","yes","768","legacy","34","9","0","/Users/aviadalbert/Documents/Academisch/UoC/Dissertation/Experiment/OpenSesame/NAP-FC/NAP_GER_AA_4blocks_noglides/subject-44.csv","xpyriment","Jazzy James","3.1.9","yes","yes","59a800d99ad5a1025d81bb03","59a801616c613b0251691de0","no","no","0","j","f","space","NA","space","space","j","1943","1882","15156","NA","42446","10499","1943","2","legacy","1024","1","44100","-16","experiment","esfal","4","1","0","0","1","engl","44","","even","218692","202972","NA","NA","220575","218688","NA","1774","218184","1775","1774","114499","156950","321059","319553","323003","171249","167756","202971","NA","59941","88413","201311","167516","218691","167760","NA","321058","321059","NA","NA","319549","NAP perception","32","39600","35","yes","1024"
"91.6666666667","yes","91.6666666667","1127.52777778","1127.52777778","white","no","xpyriment","Ich habe die obigen Informationen gelesen und verstanden.","legacy","legacy","0","uniform","1","0","0","undefined","undefined","1","j","2","1","NA","0","1","0","0","0","0","0","0","0","0","45","45","45","0","0","0","NA","0","0","2","0","0","0","2","45","45","45","45","45","Mon Nov  6 11:54:44 2017","Forced-choice identification task with a practice and an experimental phase","yes","NAP_GER_AA_4blocks_noglides.osexp","/Users/aviadalbert/Documents/Academisch/UoC/Dissertation/Experiment/OpenSesame/NAP-FC/NAP_GER_AA_4blocks_noglides","yes","no","sans","no","20","no","black","no","Weiter","yes","768","legacy","35","9","0","/Users/aviadalbert/Documents/Academisch/UoC/Dissertation/Experiment/OpenSesame/NAP-FC/NAP_GER_AA_4blocks_noglides/subject-44.csv","xpyriment","Jazzy James","3.1.9","yes","yes","59a800d99ad5a1025d81bb03","59a801616c613b0251691de0","no","no","0","j","f","space","NA","space","space","j","991","1882","15156","NA","42446","10499","991","2","legacy","1024","1","44100","-16","experiment","eʃfal","4","1","0","0","1","engl","44","","even","218692","202972","NA","NA","220575","218688","NA","1774","218184","1775","1774","114499","156950","324786","323280","325778","171249","167756","202971","NA","59941","88413","201311","167516","218691","167760","NA","324786","324786","NA","NA","323276","NAP perception","33","40591","36","yes","1024"
"91.8918918919","yes","91.8918918919","1133.89189189","1133.89189189","white","no","xpyriment","Ich habe die obigen Informationen gelesen und verstanden.","legacy","legacy","0","uniform","1","0","0","undefined","undefined","1","j","2","1","NA","0","1","0","0","0","0","0","0","0","0","46","46","46","0","0","0","NA","0","0","2","0","0","0","2","46","46","46","46","46","Mon Nov  6 11:54:44 2017","Forced-choice identification task with a practice and an experimental phase","yes","NAP_GER_AA_4blocks_noglides.osexp","/Users/aviadalbert/Documents/Academisch/UoC/Dissertation/Experiment/OpenSesame/NAP-FC/NAP_GER_AA_4blocks_noglides","yes","no","sans","no","20","no","black","no","Weiter","yes","768","legacy","36","9","0","/Users/aviadalbert/Documents/Academisch/UoC/Dissertation/Experiment/OpenSesame/NAP-FC/NAP_GER_AA_4blocks_noglides/subject-44.csv","xpyriment","Jazzy James","3.1.9","yes","yes","59a800d99ad5a1025d81bb03","59a801616c613b0251691de0","no","no","0","j","f","space","NA","space","space","j","1363","1882","15156","NA","42446","10499","1363","2","legacy","1024","1","44100","-16","experiment","sefal","4","1","0","0","1","engl","44","","even","218692","202972","NA","NA","220575","218688","NA","1774","218184","1775","1774","114499","156950","327577","326074","328942","171249","167756","202971","NA","59941","88413","201311","167516","218691","167760","NA","327577","327577","NA","NA","326069","NAP perception","34","41954","37","yes","1024"
"92.1052631579","yes","92.1052631579","1127.36842105","1127.36842105","white","no","xpyriment","Ich habe die obigen Informationen gelesen und verstanden.","legacy","legacy","0","uniform","1","0","0","undefined","undefined","1","j","2","1","NA","0","1","0","0","0","0","0","0","0","0","47","47","47","0","0","0","NA","0","0","2","0","0","0","2","47","47","47","47","47","Mon Nov  6 11:54:44 2017","Forced-choice identification task with a practice and an experimental phase","yes","NAP_GER_AA_4blocks_noglides.osexp","/Users/aviadalbert/Documents/Academisch/UoC/Dissertation/Experiment/OpenSesame/NAP-FC/NAP_GER_AA_4blocks_noglides","yes","no","sans","no","20","no","black","no","Weiter","yes","768","legacy","37","9","0","/Users/aviadalbert/Documents/Academisch/UoC/Dissertation/Experiment/OpenSesame/NAP-FC/NAP_GER_AA_4blocks_noglides/subject-44.csv","xpyriment","Jazzy James","3.1.9","yes","yes","59a800d99ad5a1025d81bb03","59a801616c613b0251691de0","no","no","0","j","f","space","NA","space","space","j","886","1882","15156","NA","42446","10499","886","2","legacy","1024","1","44100","-16","experiment","venal","4","1","0","0","1","engl","44","","even","218692","202972","NA","NA","220575","218688","NA","1774","218184","1775","1774","114499","156950","330731","329224","331619","171249","167756","202971","NA","59941","88413","201311","167516","218691","167760","NA","330731","330731","NA","NA","329220","NAP perception","35","42840","38","yes","1024"
"92.3076923077","yes","92.3076923077","1117.97435897","1117.97435897","white","no","xpyriment","Ich habe die obigen Informationen gelesen und verstanden.","legacy","legacy","0","uniform","1","0","0","undefined","undefined","1","f","2","1","NA","0","1","0","0","0","0","0","0","0","0","48","48","48","0","0","0","NA","0","0","2","0","0","0","2","48","48","48","48","48","Mon Nov  6 11:54:44 2017","Forced-choice identification task with a practice and an experimental phase","yes","NAP_GER_AA_4blocks_noglides.osexp","/Users/aviadalbert/Documents/Academisch/UoC/Dissertation/Experiment/OpenSesame/NAP-FC/NAP_GER_AA_4blocks_noglides","yes","no","sans","no","20","no","black","no","Weiter","yes","768","legacy","38","9","0","/Users/aviadalbert/Documents/Academisch/UoC/Dissertation/Experiment/OpenSesame/NAP-FC/NAP_GER_AA_4blocks_noglides/subject-44.csv","xpyriment","Jazzy James","3.1.9","yes","yes","59a800d99ad5a1025d81bb03","59a801616c613b0251691de0","no","no","0","f","f","space","NA","space","space","f","761","1882","15156","NA","42446","10499","761","2","legacy","1024","1","44100","-16","experiment","smal","4","1","0","0","1","engl","44","","even","218692","202972","NA","NA","220575","218688","NA","1774","218184","1775","1774","114499","156950","333421","331917","334184","171249","167756","202971","NA","59941","88413","201311","167516","218691","167760","NA","333420","333420","NA","NA","331913","NAP perception","36","43601","39","yes","1024"
"92.5","yes","92.5","1117.85","1117.85","white","no","xpyriment","Ich habe die obigen Informationen gelesen und verstanden.","legacy","legacy","0","uniform","1","0","0","undefined","undefined","1","f","2","1","NA","0","1","0","0","0","0","0","0","0","0","49","49","49","0","0","0","NA","0","0","2","0","0","0","2","49","49","49","49","49","Mon Nov  6 11:54:44 2017","Forced-choice identification task with a practice and an experimental phase","yes","NAP_GER_AA_4blocks_noglides.osexp","/Users/aviadalbert/Documents/Academisch/UoC/Dissertation/Experiment/OpenSesame/NAP-FC/NAP_GER_AA_4blocks_noglides","yes","no","sans","no","20","no","black","no","Weiter","yes","768","legacy","39","9","0","/Users/aviadalbert/Documents/Academisch/UoC/Dissertation/Experiment/OpenSesame/NAP-FC/NAP_GER_AA_4blocks_noglides/subject-44.csv","xpyriment","Jazzy James","3.1.9","yes","yes","59a800d99ad5a1025d81bb03","59a801616c613b0251691de0","no","no","0","f","f","space","NA","space","space","f","1113","1882","15156","NA","42446","10499","1113","2","legacy","1024","1","44100","-16","experiment","lkal","4","1","0","0","1","engl","44","","even","218692","202972","NA","NA","220575","218688","NA","1774","218184","1775","1774","114499","156950","335980","334476","337095","171249","167756","202971","NA","59941","88413","201311","167516","218691","167760","NA","335980","335980","NA","NA","334472","NAP perception","37","44714","40","yes","1024"
"92.6829268293","yes","92.6829268293","1120.29268293","1120.29268293","white","no","xpyriment","Ich habe die obigen Informationen gelesen und verstanden.","legacy","legacy","0","uniform","1","0","0","undefined","undefined","1","j","2","1","NA","0","1","0","0","0","0","0","0","0","0","50","50","50","0","0","0","NA","0","0","2","0","0","0","2","50","50","50","50","50","Mon Nov  6 11:54:44 2017","Forced-choice identification task with a practice and an experimental phase","yes","NAP_GER_AA_4blocks_noglides.osexp","/Users/aviadalbert/Documents/Academisch/UoC/Dissertation/Experiment/OpenSesame/NAP-FC/NAP_GER_AA_4blocks_noglides","yes","no","sans","no","20","no","black","no","Weiter","yes","768","legacy","40","9","0","/Users/aviadalbert/Documents/Academisch/UoC/Dissertation/Experiment/OpenSesame/NAP-FC/NAP_GER_AA_4blocks_noglides/subject-44.csv","xpyriment","Jazzy James","3.1.9","yes","yes","59a800d99ad5a1025d81bb03","59a801616c613b0251691de0","no","no","0","j","f","space","NA","space","space","j","1218","1882","15156","NA","42446","10499","1218","2","legacy","1024","1","44100","-16","experiment","lekal","4","1","0","0","1","engl","44","","even","218692","202972","NA","NA","220575","218688","NA","1774","218184","1775","1774","114499","156950","338875","337372","340095","171249","167756","202971","NA","59941","88413","201311","167516","218691","167760","NA","338875","338875","NA","NA","337368","NAP perception","38","45932","41","yes","1024"
"92.8571428571","yes","92.8571428571","1113.07142857","1113.07142857","white","no","xpyriment","Ich habe die obigen Informationen gelesen und verstanden.","legacy","legacy","0","uniform","1","0","0","undefined","undefined","1","j","2","1","NA","0","1","0","0","0","0","0","0","0","0","51","51","51","0","0","0","NA","0","0","2","0","0","0","2","51","51","51","51","51","Mon Nov  6 11:54:44 2017","Forced-choice identification task with a practice and an experimental phase","yes","NAP_GER_AA_4blocks_noglides.osexp","/Users/aviadalbert/Documents/Academisch/UoC/Dissertation/Experiment/OpenSesame/NAP-FC/NAP_GER_AA_4blocks_noglides","yes","no","sans","no","20","no","black","no","Weiter","yes","768","legacy","41","9","0","/Users/aviadalbert/Documents/Academisch/UoC/Dissertation/Experiment/OpenSesame/NAP-FC/NAP_GER_AA_4blocks_noglides/subject-44.csv","xpyriment","Jazzy James","3.1.9","yes","yes","59a800d99ad5a1025d81bb03","59a801616c613b0251691de0","no","no","0","j","f","space","NA","space","space","j","817","1882","15156","NA","42446","10499","817","2","legacy","1024","1","44100","-16","experiment","enpal","4","1","0","0","1","engl","44","","even","218692","202972","NA","NA","220575","218688","NA","1774","218184","1775","1774","114499","156950","341901","340396","342720","171249","167756","202971","NA","59941","88413","201311","167516","218691","167760","NA","341901","341901","NA","NA","340392","NAP perception","39","46749","42","yes","1024"
"93.023255814","yes","93.023255814","1105.62790698","1105.62790698","white","no","xpyriment","Ich habe die obigen Informationen gelesen und verstanden.","legacy","legacy","0","uniform","1","0","0","undefined","undefined","1","j","2","1","NA","0","1","0","0","0","0","0","0","0","0","52","52","52","0","0","0","NA","0","0","2","0","0","0","2","52","52","52","52","52","Mon Nov  6 11:54:44 2017","Forced-choice identification task with a practice and an experimental phase","yes","NAP_GER_AA_4blocks_noglides.osexp","/Users/aviadalbert/Documents/Academisch/UoC/Dissertation/Experiment/OpenSesame/NAP-FC/NAP_GER_AA_4blocks_noglides","yes","no","sans","no","20","no","black","no","Weiter","yes","768","legacy","42","9","0","/Users/aviadalbert/Documents/Academisch/UoC/Dissertation/Experiment/OpenSesame/NAP-FC/NAP_GER_AA_4blocks_noglides/subject-44.csv","xpyriment","Jazzy James","3.1.9","yes","yes","59a800d99ad5a1025d81bb03","59a801616c613b0251691de0","no","no","0","j","f","space","NA","space","space","j","793","1882","15156","NA","42446","10499","793","2","legacy","1024","1","44100","-16","experiment","mezal","4","1","0","0","1","engl","44","","even","218692","202972","NA","NA","220575","218688","NA","1774","218184","1775","1774","114499","156950","344514","343011","345309","171249","167756","202971","NA","59941","88413","201311","167516","218691","167760","NA","344514","344514","NA","NA","343007","NAP perception","40","47542","43","yes","1024"
"93.1818181818","yes","93.1818181818","1106.63636364","1106.63636364","white","no","xpyriment","Ich habe die obigen Informationen gelesen und verstanden.","legacy","legacy","0","uniform","1","0","0","undefined","undefined","1","f","2","1","NA","0","1","0","0","0","0","0","0","0","0","53","53","53","0","0","0","NA","0","0","2","0","0","0","2","53","53","53","53","53","Mon Nov  6 11:54:44 2017","Forced-choice identification task with a practice and an experimental phase","yes","NAP_GER_AA_4blocks_noglides.osexp","/Users/aviadalbert/Documents/Academisch/UoC/Dissertation/Experiment/OpenSesame/NAP-FC/NAP_GER_AA_4blocks_noglides","yes","no","sans","no","20","no","black","no","Weiter","yes","768","legacy","43","9","0","/Users/aviadalbert/Documents/Academisch/UoC/Dissertation/Experiment/OpenSesame/NAP-FC/NAP_GER_AA_4blocks_noglides/subject-44.csv","xpyriment","Jazzy James","3.1.9","yes","yes","59a800d99ad5a1025d81bb03","59a801616c613b0251691de0","no","no","0","f","f","space","NA","space","space","f","1150","1882","15156","NA","42446","10499","1150","2","legacy","1024","1","44100","-16","experiment","zmal","4","1","0","0","1","engl","44","","even","218692","202972","NA","NA","220575","218688","NA","1774","218184","1775","1774","114499","156950","347116","345612","348268","171249","167756","202971","NA","59941","88413","201311","167516","218691","167760","NA","347116","347116","NA","NA","345609","NAP perception","41","48692","44","yes","1024"
"93.3333333333","yes","93.3333333333","1102.55555556","1102.55555556","white","no","xpyriment","Ich habe die obigen Informationen gelesen und verstanden.","legacy","legacy","0","uniform","1","0","0","undefined","undefined","1","f","2","1","NA","0","1","0","0","0","0","0","0","0","0","54","54","54","0","0","0","NA","0","0","2","0","0","0","2","54","54","54","54","54","Mon Nov  6 11:54:44 2017","Forced-choice identification task with a practice and an experimental phase","yes","NAP_GER_AA_4blocks_noglides.osexp","/Users/aviadalbert/Documents/Academisch/UoC/Dissertation/Experiment/OpenSesame/NAP-FC/NAP_GER_AA_4blocks_noglides","yes","no","sans","no","20","no","black","no","Weiter","yes","768","legacy","44","9","0","/Users/aviadalbert/Documents/Academisch/UoC/Dissertation/Experiment/OpenSesame/NAP-FC/NAP_GER_AA_4blocks_noglides/subject-44.csv","xpyriment","Jazzy James","3.1.9","yes","yes","59a800d99ad5a1025d81bb03","59a801616c613b0251691de0","no","no","0","f","f","space","NA","space","space","f","923","1882","15156","NA","42446","10499","923","2","legacy","1024","1","44100","-16","experiment","nval","4","1","0","0","1","engl","44","","even","218692","202972","NA","NA","220575","218688","NA","1774","218184","1775","1774","114499","156950","350058","348555","350982","171249","167756","202971","NA","59941","88413","201311","167516","218691","167760","NA","350058","350058","NA","NA","348551","NAP perception","42","49615","45","yes","1024"
"93.4782608696","yes","93.4782608696","1097.10869565","1097.10869565","white","no","xpyriment","Ich habe die obigen Informationen gelesen und verstanden.","legacy","legacy","0","uniform","1","0","0","undefined","undefined","1","j","2","1","NA","0","1","0","0","0","0","0","0","0","0","55","55","55","0","0","0","NA","0","0","2","0","0","0","2","55","55","55","55","55","Mon Nov  6 11:54:44 2017","Forced-choice identification task with a practice and an experimental phase","yes","NAP_GER_AA_4blocks_noglides.osexp","/Users/aviadalbert/Documents/Academisch/UoC/Dissertation/Experiment/OpenSesame/NAP-FC/NAP_GER_AA_4blocks_noglides","yes","no","sans","no","20","no","black","no","Weiter","yes","768","legacy","45","9","0","/Users/aviadalbert/Documents/Academisch/UoC/Dissertation/Experiment/OpenSesame/NAP-FC/NAP_GER_AA_4blocks_noglides/subject-44.csv","xpyriment","Jazzy James","3.1.9","yes","yes","59a800d99ad5a1025d81bb03","59a801616c613b0251691de0","no","no","0","j","f","space","NA","space","space","j","852","1882","15156","NA","42446","10499","852","2","legacy","1024","1","44100","-16","experiment","elfal","4","1","0","0","1","engl","44","","even","218692","202972","NA","NA","220575","218688","NA","1774","218184","1775","1774","114499","156950","352779","351273","353632","171249","167756","202971","NA","59941","88413","201311","167516","218691","167760","NA","352779","352779","NA","NA","351269","NAP perception","43","50467","46","yes","1024"
"93.6170212766","yes","93.6170212766","1089.40425532","1089.40425532","white","no","xpyriment","Ich habe die obigen Informationen gelesen und verstanden.","legacy","legacy","0","uniform","1","0","0","undefined","undefined","1","j","2","1","NA","0","1","0","0","0","0","0","0","0","0","56","56","56","0","0","0","NA","0","0","2","0","0","0","2","56","56","56","56","56","Mon Nov  6 11:54:44 2017","Forced-choice identification task with a practice and an experimental phase","yes","NAP_GER_AA_4blocks_noglides.osexp","/Users/aviadalbert/Documents/Academisch/UoC/Dissertation/Experiment/OpenSesame/NAP-FC/NAP_GER_AA_4blocks_noglides","yes","no","sans","no","20","no","black","no","Weiter","yes","768","legacy","46","9","0","/Users/aviadalbert/Documents/Academisch/UoC/Dissertation/Experiment/OpenSesame/NAP-FC/NAP_GER_AA_4blocks_noglides/subject-44.csv","xpyriment","Jazzy James","3.1.9","yes","yes","59a800d99ad5a1025d81bb03","59a801616c613b0251691de0","no","no","0","j","f","space","NA","space","space","j","735","1882","15156","NA","42446","10499","735","2","legacy","1024","1","44100","-16","experiment","efnal","4","1","0","0","1","engl","44","","even","218692","202972","NA","NA","220575","218688","NA","1774","218184","1775","1774","114499","156950","355433","353930","356170","171249","167756","202971","NA","59941","88413","201311","167516","218691","167760","NA","355433","355433","NA","NA","353926","NAP perception","44","51202","47","yes","1024"
"93.75","yes","93.75","1088.04166667","1088.04166667","white","no","xpyriment","Ich habe die obigen Informationen gelesen und verstanden.","legacy","legacy","0","uniform","1","0","0","undefined","undefined","1","f","2","1","NA","0","1","0","0","0","0","0","0","0","0","57","57","57","0","0","0","NA","0","0","2","0","0","0","2","57","57","57","57","57","Mon Nov  6 11:54:44 2017","Forced-choice identification task with a practice and an experimental phase","yes","NAP_GER_AA_4blocks_noglides.osexp","/Users/aviadalbert/Documents/Academisch/UoC/Dissertation/Experiment/OpenSesame/NAP-FC/NAP_GER_AA_4blocks_noglides","yes","no","sans","no","20","no","black","no","Weiter","yes","768","legacy","47","9","0","/Users/aviadalbert/Documents/Academisch/UoC/Dissertation/Experiment/OpenSesame/NAP-FC/NAP_GER_AA_4blocks_noglides/subject-44.csv","xpyriment","Jazzy James","3.1.9","yes","yes","59a800d99ad5a1025d81bb03","59a801616c613b0251691de0","no","no","0","f","f","space","NA","space","space","f","1024","1882","15156","NA","42446","10499","1024","2","legacy","1024","1","44100","-16","experiment","mnal","4","1","0","0","1","engl","44","","even","218692","202972","NA","NA","220575","218688","NA","1774","218184","1775","1774","114499","156950","357959","356454","358985","171249","167756","202971","NA","59941","88413","201311","167516","218691","167760","NA","357959","357959","NA","NA","356449","NAP perception","45","52226","48","yes","1024"
"93.8775510204","yes","93.8775510204","1081.51020408","1081.51020408","white","no","xpyriment","Ich habe die obigen Informationen gelesen und verstanden.","legacy","legacy","0","uniform","1","0","0","undefined","undefined","1","j","2","1","NA","0","1","0","0","0","0","0","0","0","0","58","58","58","0","0","0","NA","0","0","2","0","0","0","2","58","58","58","58","58","Mon Nov  6 11:54:44 2017","Forced-choice identification task with a practice and an experimental phase","yes","NAP_GER_AA_4blocks_noglides.osexp","/Users/aviadalbert/Documents/Academisch/UoC/Dissertation/Experiment/OpenSesame/NAP-FC/NAP_GER_AA_4blocks_noglides","yes","no","sans","no","20","no","black","no","Weiter","yes","768","legacy","48","9","0","/Users/aviadalbert/Documents/Academisch/UoC/Dissertation/Experiment/OpenSesame/NAP-FC/NAP_GER_AA_4blocks_noglides/subject-44.csv","xpyriment","Jazzy James","3.1.9","yes","yes","59a800d99ad5a1025d81bb03","59a801616c613b0251691de0","no","no","0","j","f","space","NA","space","space","j","768","1882","15156","NA","42446","10499","768","2","legacy","1024","1","44100","-16","experiment","eftal","4","1","0","0","1","engl","44","","even","218692","202972","NA","NA","220575","218688","NA","1774","218184","1775","1774","114499","156950","360773","359266","361542","171249","167756","202971","NA","59941","88413","201311","167516","218691","167760","NA","360773","360773","NA","NA","359262","NAP perception","46","52994","49","yes","1024"
"92","yes","92","1076.7","1076.7","white","no","xpyriment","Ich habe die obigen Informationen gelesen und verstanden.","legacy","legacy","0","uniform","0","0","0","undefined","undefined","0","f","2","1","NA","0","1","0","0","0","0","0","0","0","0","59","59","59","0","0","0","NA","0","0","2","0","0","0","2","59","59","59","59","59","Mon Nov  6 11:54:44 2017","Forced-choice identification task with a practice and an experimental phase","yes","NAP_GER_AA_4blocks_noglides.osexp","/Users/aviadalbert/Documents/Academisch/UoC/Dissertation/Experiment/OpenSesame/NAP-FC/NAP_GER_AA_4blocks_noglides","yes","no","sans","no","20","no","black","no","Weiter","yes","768","legacy","49","9","0","/Users/aviadalbert/Documents/Academisch/UoC/Dissertation/Experiment/OpenSesame/NAP-FC/NAP_GER_AA_4blocks_noglides/subject-44.csv","xpyriment","Jazzy James","3.1.9","yes","yes","59a800d99ad5a1025d81bb03","59a801616c613b0251691de0","no","no","0","j","f","space","NA","space","space","j","841","1882","15156","NA","42446","10499","841","2","legacy","1024","1","44100","-16","experiment","msal","4","1","0","0","1","engl","44","","even","218692","202972","NA","NA","220575","218688","NA","1774","218184","1775","1774","114499","156950","363333","361827","364175","171249","167756","202971","NA","59941","88413","201311","167516","218691","167760","NA","363332","363333","NA","NA","361823","NAP perception","46","53835","50","yes","1024"
"92.1568627451","yes","92.1568627451","1070.66666667","1070.66666667","white","no","xpyriment","Ich habe die obigen Informationen gelesen und verstanden.","legacy","legacy","0","uniform","1","0","0","undefined","undefined","1","j","2","1","NA","0","1","0","0","0","0","0","0","0","0","60","60","60","0","0","0","NA","0","0","2","0","0","0","2","60","60","60","60","60","Mon Nov  6 11:54:44 2017","Forced-choice identification task with a practice and an experimental phase","yes","NAP_GER_AA_4blocks_noglides.osexp","/Users/aviadalbert/Documents/Academisch/UoC/Dissertation/Experiment/OpenSesame/NAP-FC/NAP_GER_AA_4blocks_noglides","yes","no","sans","no","20","no","black","no","Weiter","yes","768","legacy","50","9","0","/Users/aviadalbert/Documents/Academisch/UoC/Dissertation/Experiment/OpenSesame/NAP-FC/NAP_GER_AA_4blocks_noglides/subject-44.csv","xpyriment","Jazzy James","3.1.9","yes","yes","59a800d99ad5a1025d81bb03","59a801616c613b0251691de0","no","no","0","j","f","space","NA","space","space","j","769","1882","15156","NA","42446","10499","769","2","legacy","1024","1","44100","-16","experiment","semal","4","1","0","0","1","engl","44","","even","218692","202972","NA","NA","220575","218688","NA","1774","218184","1775","1774","114499","156950","365974","364469","366744","171249","167756","202971","NA","59941","88413","201311","167516","218691","167760","NA","365973","365973","NA","NA","364465","NAP perception","47","54604","51","yes","1024"
"92.3076923077","yes","92.3076923077","1078.88461538","1078.88461538","white","no","xpyriment","Ich habe die obigen Informationen gelesen und verstanden.","legacy","legacy","0","uniform","1","0","0","undefined","undefined","1","j","2","1","NA","0","1","0","0","0","0","0","0","0","0","61","61","61","0","0","0","NA","0","0","2","0","0","0","2","61","61","61","61","61","Mon Nov  6 11:54:44 2017","Forced-choice identification task with a practice and an experimental phase","yes","NAP_GER_AA_4blocks_noglides.osexp","/Users/aviadalbert/Documents/Academisch/UoC/Dissertation/Experiment/OpenSesame/NAP-FC/NAP_GER_AA_4blocks_noglides","yes","no","sans","no","20","no","black","no","Weiter","yes","768","legacy","51","9","0","/Users/aviadalbert/Documents/Academisch/UoC/Dissertation/Experiment/OpenSesame/NAP-FC/NAP_GER_AA_4blocks_noglides/subject-44.csv","xpyriment","Jazzy James","3.1.9","yes","yes","59a800d99ad5a1025d81bb03","59a801616c613b0251691de0","no","no","0","j","f","space","NA","space","space","j","1498","1882","15156","NA","42446","10499","1498","2","legacy","1024","1","44100","-16","experiment","evlal","4","1","0","0","1","engl","44","","even","218692","202972","NA","NA","220575","218688","NA","1774","218184","1775","1774","114499","156950","368541","367037","370041","171249","167756","202971","NA","59941","88413","201311","167516","218691","167760","NA","368541","368541","NA","NA","367033","NAP perception","48","56102","52","yes","1024"
"92.4528301887","yes","92.4528301887","1075.03773585","1075.03773585","white","no","xpyriment","Ich habe die obigen Informationen gelesen und verstanden.","legacy","legacy","0","uniform","1","0","0","undefined","undefined","1","j","2","1","NA","0","1","0","0","0","0","0","0","0","0","62","62","62","0","0","0","NA","0","0","2","0","0","0","2","62","62","62","62","62","Mon Nov  6 11:54:44 2017","Forced-choice identification task with a practice and an experimental phase","yes","NAP_GER_AA_4blocks_noglides.osexp","/Users/aviadalbert/Documents/Academisch/UoC/Dissertation/Experiment/OpenSesame/NAP-FC/NAP_GER_AA_4blocks_noglides","yes","no","sans","no","20","no","black","no","Weiter","yes","768","legacy","52","9","0","/Users/aviadalbert/Documents/Academisch/UoC/Dissertation/Experiment/OpenSesame/NAP-FC/NAP_GER_AA_4blocks_noglides/subject-44.csv","xpyriment","Jazzy James","3.1.9","yes","yes","59a800d99ad5a1025d81bb03","59a801616c613b0251691de0","no","no","0","j","f","space","NA","space","space","j","875","1882","15156","NA","42446","10499","875","2","legacy","1024","1","44100","-16","experiment","emlal","4","1","0","0","1","engl","44","","even","218692","202972","NA","NA","220575","218688","NA","1774","218184","1775","1774","114499","156950","371831","370328","372708","171249","167756","202971","NA","59941","88413","201311","167516","218691","167760","NA","371831","371831","NA","NA","370324","NAP perception","49","56977","53","yes","1024"
"92.5925925926","yes","92.5925925926","1067.2962963","1067.2962963","white","no","xpyriment","Ich habe die obigen Informationen gelesen und verstanden.","legacy","legacy","0","uniform","1","0","0","undefined","undefined","1","f","2","1","NA","0","1","0","0","0","0","0","0","0","0","63","63","63","0","0","0","NA","0","0","2","0","0","0","2","63","63","63","63","63","Mon Nov  6 11:54:44 2017","Forced-choice identification task with a practice and an experimental phase","yes","NAP_GER_AA_4blocks_noglides.osexp","/Users/aviadalbert/Documents/Academisch/UoC/Dissertation/Experiment/OpenSesame/NAP-FC/NAP_GER_AA_4blocks_noglides","yes","no","sans","no","20","no","black","no","Weiter","yes","768","legacy","53","9","0","/Users/aviadalbert/Documents/Academisch/UoC/Dissertation/Experiment/OpenSesame/NAP-FC/NAP_GER_AA_4blocks_noglides/subject-44.csv","xpyriment","Jazzy James","3.1.9","yes","yes","59a800d99ad5a1025d81bb03","59a801616c613b0251691de0","no","no","0","f","f","space","NA","space","space","f","657","1882","15156","NA","42446","10499","657","2","legacy","1024","1","44100","-16","experiment","zval","4","1","0","0","1","engl","44","","even","218692","202972","NA","NA","220575","218688","NA","1774","218184","1775","1774","114499","156950","374501","372995","375160","171249","167756","202971","NA","59941","88413","201311","167516","218691","167760","NA","374501","374501","NA","NA","372990","NAP perception","50","57634","54","yes","1024"
"92.7272727273","yes","92.7272727273","1060.34545455","1060.34545455","white","no","xpyriment","Ich habe die obigen Informationen gelesen und verstanden.","legacy","legacy","0","uniform","1","0","0","undefined","undefined","1","f","2","1","NA","0","1","0","0","0","0","0","0","0","0","64","64","64","0","0","0","NA","0","0","2","0","0","0","2","64","64","64","64","64","Mon Nov  6 11:54:44 2017","Forced-choice identification task with a practice and an experimental phase","yes","NAP_GER_AA_4blocks_noglides.osexp","/Users/aviadalbert/Documents/Academisch/UoC/Dissertation/Experiment/OpenSesame/NAP-FC/NAP_GER_AA_4blocks_noglides","yes","no","sans","no","20","no","black","no","Weiter","yes","768","legacy","54","9","0","/Users/aviadalbert/Documents/Academisch/UoC/Dissertation/Experiment/OpenSesame/NAP-FC/NAP_GER_AA_4blocks_noglides/subject-44.csv","xpyriment","Jazzy James","3.1.9","yes","yes","59a800d99ad5a1025d81bb03","59a801616c613b0251691de0","no","no","0","f","f","space","NA","space","space","f","685","1882","15156","NA","42446","10499","685","2","legacy","1024","1","44100","-16","experiment","fsal","4","1","0","0","1","engl","44","","even","218692","202972","NA","NA","220575","218688","NA","1774","218184","1775","1774","114499","156950","376946","375441","377633","171249","167756","202971","NA","59941","88413","201311","167516","218691","167760","NA","376946","376946","NA","NA","375437","NAP perception","51","58319","55","yes","1024"
"92.8571428571","yes","92.8571428571","1063.125","1063.125","white","no","xpyriment","Ich habe die obigen Informationen gelesen und verstanden.","legacy","legacy","0","uniform","1","0","0","undefined","undefined","1","j","2","1","NA","0","1","0","0","0","0","0","0","0","0","65","65","65","0","0","0","NA","0","0","2","0","0","0","2","65","65","65","65","65","Mon Nov  6 11:54:44 2017","Forced-choice identification task with a practice and an experimental phase","yes","NAP_GER_AA_4blocks_noglides.osexp","/Users/aviadalbert/Documents/Academisch/UoC/Dissertation/Experiment/OpenSesame/NAP-FC/NAP_GER_AA_4blocks_noglides","yes","no","sans","no","20","no","black","no","Weiter","yes","768","legacy","55","9","0","/Users/aviadalbert/Documents/Academisch/UoC/Dissertation/Experiment/OpenSesame/NAP-FC/NAP_GER_AA_4blocks_noglides/subject-44.csv","xpyriment","Jazzy James","3.1.9","yes","yes","59a800d99ad5a1025d81bb03","59a801616c613b0251691de0","no","no","0","j","f","space","NA","space","space","j","1216","1882","15156","NA","42446","10499","1216","2","legacy","1024","1","44100","-16","experiment","esmal","4","1","0","0","1","engl","44","","even","218692","202972","NA","NA","220575","218688","NA","1774","218184","1775","1774","114499","156950","379417","377913","380635","171249","167756","202971","NA","59941","88413","201311","167516","218691","167760","NA","379417","379417","NA","NA","377910","NAP perception","52","59535","56","yes","1024"
"92.9824561404","yes","92.9824561404","1056.03508772","1056.03508772","white","no","xpyriment","Ich habe die obigen Informationen gelesen und verstanden.","legacy","legacy","0","uniform","1","0","0","undefined","undefined","1","f","2","1","NA","0","1","0","0","0","0","0","0","0","0","66","66","66","0","0","0","NA","0","0","2","0","0","0","2","66","66","66","66","66","Mon Nov  6 11:54:44 2017","Forced-choice identification task with a practice and an experimental phase","yes","NAP_GER_AA_4blocks_noglides.osexp","/Users/aviadalbert/Documents/Academisch/UoC/Dissertation/Experiment/OpenSesame/NAP-FC/NAP_GER_AA_4blocks_noglides","yes","no","sans","no","20","no","black","no","Weiter","yes","768","legacy","56","9","0","/Users/aviadalbert/Documents/Academisch/UoC/Dissertation/Experiment/OpenSesame/NAP-FC/NAP_GER_AA_4blocks_noglides/subject-44.csv","xpyriment","Jazzy James","3.1.9","yes","yes","59a800d99ad5a1025d81bb03","59a801616c613b0251691de0","no","no","0","f","f","space","NA","space","space","f","659","1882","15156","NA","42446","10499","659","2","legacy","1024","1","44100","-16","experiment","nval","4","1","0","0","1","engl","44","","even","218692","202972","NA","NA","220575","218688","NA","1774","218184","1775","1774","114499","156950","382425","380922","383086","171249","167756","202971","NA","59941","88413","201311","167516","218691","167760","NA","382425","382425","NA","NA","380918","NAP perception","53","60194","57","yes","1024"
