"acc","accept_status","accuracy","average_response_time","avg_rt","background","bidi","canvas_backend","checkbox_status","clock_backend","color_backend","compensation","coordinates","correct","correct_block_activation","correct_block_exit","correct_instructions_1","correct_instructions_2","correct_keyboard_response","correct_response","count_block_activation","count_block_exit","count_block_info_QA","count_cont_e_block_message","count_e_block_loop","count_e_block_sequence","count_end_of_experiment","count_experiment","count_experimental_loop","count_form_consent","count_info_forms","count_instructions_1","count_instructions_2","count_keyboard_response","count_listen_message","count_logger","count_p_block_loop","count_p_block_sequence","count_p_feedback","count_pause_feedback","count_personal_details_form_1","count_personal_details_form_2","count_post_loop_blank","count_practice_loop","count_pre_e_block_message","count_pre_p_block_message","count_reset_feedback","count_stimulus_image","count_stimulus_sound","count_timeout_message","count_timeout_sound","count_trial_sequence","datetime","description","disable_garbage_collection","experiment_file","experiment_path","expyriment_opengl","font_bold","font_family","font_italic","font_size","font_underline","foreground","form_clicks","form_response","fullscreen","height","keyboard_backend","live_row","live_row_p_block_loop","live_row_practice_loop","logfile","mouse_backend","opensesame_codename","opensesame_version","osf_always_upload_data","osf_always_upload_experiment","osf_datanode_id","osf_id","practice","pygame_doublebuf","repeat_cycle","response","response_block_activation","response_block_exit","response_block_info_QA","response_instructions_1","response_instructions_2","response_keyboard_response","response_time","response_time_block_activation","response_time_block_exit","response_time_block_info_QA","response_time_instructions_1","response_time_instructions_2","response_time_keyboard_response","round_decimals","sampler_backend","sound_buf_size","sound_channels","sound_freq","sound_sample_size","start","stimulus","subject_age","subject_education","subject_gender","subject_german_native","subject_handedness","subject_language_other","subject_nr","subject_other_native_lang","subject_parity","time_block_activation","time_block_exit","time_block_info_QA","time_cont_e_block_message","time_e_block_loop","time_e_block_sequence","time_end_of_experiment","time_experiment","time_experimental_loop","time_form_consent","time_info_forms","time_instructions_1","time_instructions_2","time_keyboard_response","time_listen_message","time_logger","time_p_block_loop","time_p_block_sequence","time_p_feedback","time_pause_feedback","time_personal_details_form_1","time_personal_details_form_2","time_post_loop_blank","time_practice_loop","time_pre_e_block_message","time_pre_p_block_message","time_reset_feedback","time_stimulus_image","time_stimulus_sound","time_timeout_message","time_timeout_sound","time_trial_sequence","title","total_correct","total_response_time","total_responses","uniform_coordinates","width"
"100","yes","100","2021","2021","white","no","xpyriment","Ich habe die obigen Informationen gelesen und verstanden.","legacy","legacy","0","uniform","1","0","NA","undefined","undefined","1","f","0","0","NA","NA","NA","NA","NA","0","0","0","0","0","0","0","0","0","0","0","NA","NA","0","0","0","0","NA","0","0","0","0","0","0","0","Fri Nov  3 10:23:56 2017","Forced-choice identification task with a practice and an experimental phase","yes","NAP_GER_AA_4blocks_noglides.osexp","/Users/aviadalbert/Documents/Academisch/UoC/Dissertation/Experiment/OpenSesame/NAP-FC/NAP_GER_AA_4blocks_noglides","yes","no","sans","no","20","no","black","no","Weiter","yes","768","legacy","0","0","0","/Users/aviadalbert/Documents/Academisch/UoC/Dissertation/Experiment/OpenSesame/NAP-FC/NAP_GER_AA_4blocks_noglides/subject-37.csv","xpyriment","Jazzy James","3.1.9","yes","yes","59a800d99ad5a1025d81bb03","59a801616c613b0251691de0","yes","no","0","f","f","NA","NA","right","right","f","2021","4221","NA","NA","43010","5415","2021","2","legacy","1024","1","44100","-16","experiment","flal","2","2","1","0","1","Engl, dutch","37","","odd","271081","NA","NA","NA","NA","NA","NA","83049","NA","83049","83049","222374","265388","277005","275501","279027","275303","271077","NA","NA","132439","213385","NA","270865","NA","271081","NA","277005","277005","NA","NA","275497","NAP perception","1","2021","1","yes","1024"
"100","yes","100","1424","1424","white","no","xpyriment","Ich habe die obigen Informationen gelesen und verstanden.","legacy","legacy","0","uniform","1","0","NA","undefined","undefined","1","j","0","0","NA","NA","NA","NA","NA","0","0","0","0","0","0","1","1","1","0","0","NA","NA","0","0","0","0","NA","0","0","1","1","1","1","1","Fri Nov  3 10:23:56 2017","Forced-choice identification task with a practice and an experimental phase","yes","NAP_GER_AA_4blocks_noglides.osexp","/Users/aviadalbert/Documents/Academisch/UoC/Dissertation/Experiment/OpenSesame/NAP-FC/NAP_GER_AA_4blocks_noglides","yes","no","sans","no","20","no","black","no","Weiter","yes","768","legacy","1","1","0","/Users/aviadalbert/Documents/Academisch/UoC/Dissertation/Experiment/OpenSesame/NAP-FC/NAP_GER_AA_4blocks_noglides/subject-37.csv","xpyriment","Jazzy James","3.1.9","yes","yes","59a800d99ad5a1025d81bb03","59a801616c613b0251691de0","yes","no","0","j","f","NA","NA","right","right","j","827","4221","NA","NA","43010","5415","827","2","legacy","1024","1","44100","-16","experiment","lepal","2","2","1","0","1","Engl, dutch","37","","odd","271081","NA","NA","NA","NA","NA","NA","83049","NA","83049","83049","222374","265388","280820","279313","281648","275303","271077","NA","NA","132439","213385","NA","270865","NA","271081","NA","280819","280819","NA","NA","279309","NAP perception","2","2848","2","yes","1024"
"100","yes","100","1180","1180","white","no","xpyriment","Ich habe die obigen Informationen gelesen und verstanden.","legacy","legacy","0","uniform","1","0","NA","undefined","undefined","1","j","0","0","NA","NA","NA","NA","NA","0","0","0","0","0","0","2","2","2","0","0","NA","NA","0","0","0","0","NA","0","0","2","2","2","2","2","Fri Nov  3 10:23:56 2017","Forced-choice identification task with a practice and an experimental phase","yes","NAP_GER_AA_4blocks_noglides.osexp","/Users/aviadalbert/Documents/Academisch/UoC/Dissertation/Experiment/OpenSesame/NAP-FC/NAP_GER_AA_4blocks_noglides","yes","no","sans","no","20","no","black","no","Weiter","yes","768","legacy","2","2","0","/Users/aviadalbert/Documents/Academisch/UoC/Dissertation/Experiment/OpenSesame/NAP-FC/NAP_GER_AA_4blocks_noglides/subject-37.csv","xpyriment","Jazzy James","3.1.9","yes","yes","59a800d99ad5a1025d81bb03","59a801616c613b0251691de0","yes","no","0","j","f","NA","NA","right","right","j","692","4221","NA","NA","43010","5415","692","2","legacy","1024","1","44100","-16","experiment","emtal","2","2","1","0","1","Engl, dutch","37","","odd","271081","NA","NA","NA","NA","NA","NA","83049","NA","83049","83049","222374","265388","283444","281941","284137","275303","271077","NA","NA","132439","213385","NA","270865","NA","271081","NA","283444","283444","NA","NA","281937","NAP perception","3","3540","3","yes","1024"
"100","yes","100","1090.25","1090.25","white","no","xpyriment","Ich habe die obigen Informationen gelesen und verstanden.","legacy","legacy","0","uniform","1","0","NA","undefined","undefined","1","f","0","0","NA","NA","NA","NA","NA","0","0","0","0","0","0","3","3","3","0","0","NA","NA","0","0","0","0","NA","0","0","3","3","3","3","3","Fri Nov  3 10:23:56 2017","Forced-choice identification task with a practice and an experimental phase","yes","NAP_GER_AA_4blocks_noglides.osexp","/Users/aviadalbert/Documents/Academisch/UoC/Dissertation/Experiment/OpenSesame/NAP-FC/NAP_GER_AA_4blocks_noglides","yes","no","sans","no","20","no","black","no","Weiter","yes","768","legacy","3","3","0","/Users/aviadalbert/Documents/Academisch/UoC/Dissertation/Experiment/OpenSesame/NAP-FC/NAP_GER_AA_4blocks_noglides/subject-37.csv","xpyriment","Jazzy James","3.1.9","yes","yes","59a800d99ad5a1025d81bb03","59a801616c613b0251691de0","yes","no","0","f","f","NA","NA","right","right","f","821","4221","NA","NA","43010","5415","821","2","legacy","1024","1","44100","-16","experiment","ʃpal","2","2","1","0","1","Engl, dutch","37","","odd","271081","NA","NA","NA","NA","NA","NA","83049","NA","83049","83049","222374","265388","285919","284412","286741","275303","271077","NA","NA","132439","213385","NA","270865","NA","271081","NA","285919","285919","NA","NA","284408","NAP perception","4","4361","4","yes","1024"
"100","yes","100","1015.4","1015.4","white","no","xpyriment","Ich habe die obigen Informationen gelesen und verstanden.","legacy","legacy","0","uniform","1","0","NA","undefined","undefined","1","j","0","0","NA","NA","NA","NA","NA","0","0","0","0","0","0","4","4","4","0","0","NA","NA","0","0","0","0","NA","0","0","4","4","4","4","4","Fri Nov  3 10:23:56 2017","Forced-choice identification task with a practice and an experimental phase","yes","NAP_GER_AA_4blocks_noglides.osexp","/Users/aviadalbert/Documents/Academisch/UoC/Dissertation/Experiment/OpenSesame/NAP-FC/NAP_GER_AA_4blocks_noglides","yes","no","sans","no","20","no","black","no","Weiter","yes","768","legacy","4","4","0","/Users/aviadalbert/Documents/Academisch/UoC/Dissertation/Experiment/OpenSesame/NAP-FC/NAP_GER_AA_4blocks_noglides/subject-37.csv","xpyriment","Jazzy James","3.1.9","yes","yes","59a800d99ad5a1025d81bb03","59a801616c613b0251691de0","yes","no","0","j","f","NA","NA","right","right","j","716","4221","NA","NA","43010","5415","716","2","legacy","1024","1","44100","-16","experiment","nefal","2","2","1","0","1","Engl, dutch","37","","odd","271081","NA","NA","NA","NA","NA","NA","83049","NA","83049","83049","222374","265388","288520","287015","289238","275303","271077","NA","NA","132439","213385","NA","270865","NA","271081","NA","288519","288520","NA","NA","287011","NAP perception","5","5077","5","yes","1024"
"83.3333333333","yes","83.3333333333","1100.16666667","1100.16666667","white","no","xpyriment","Ich habe die obigen Informationen gelesen und verstanden.","legacy","legacy","0","uniform","0","0","NA","undefined","undefined","0","f","0","0","NA","NA","NA","NA","NA","0","0","0","0","0","0","5","5","5","0","0","NA","NA","0","0","0","0","NA","0","0","5","5","5","5","5","Fri Nov  3 10:23:56 2017","Forced-choice identification task with a practice and an experimental phase","yes","NAP_GER_AA_4blocks_noglides.osexp","/Users/aviadalbert/Documents/Academisch/UoC/Dissertation/Experiment/OpenSesame/NAP-FC/NAP_GER_AA_4blocks_noglides","yes","no","sans","no","20","no","black","no","Weiter","yes","768","legacy","5","5","0","/Users/aviadalbert/Documents/Academisch/UoC/Dissertation/Experiment/OpenSesame/NAP-FC/NAP_GER_AA_4blocks_noglides/subject-37.csv","xpyriment","Jazzy James","3.1.9","yes","yes","59a800d99ad5a1025d81bb03","59a801616c613b0251691de0","yes","no","0","j","f","NA","NA","right","right","j","1524","4221","NA","NA","43010","5415","1524","2","legacy","1024","1","44100","-16","experiment","sfal","2","2","1","0","1","Engl, dutch","37","","odd","271081","NA","NA","NA","NA","NA","NA","83049","NA","83049","83049","222374","265388","291002","289500","292527","275303","271077","NA","NA","132439","213385","NA","270865","NA","271081","NA","291002","291002","NA","NA","289496","NAP perception","5","6601","6","yes","1024"
"85.7142857143","yes","85.7142857143","1088.42857143","1088.42857143","white","no","xpyriment","Ich habe die obigen Informationen gelesen und verstanden.","legacy","legacy","0","uniform","1","0","NA","undefined","undefined","1","f","0","0","NA","NA","NA","NA","NA","0","0","0","0","0","0","6","6","6","0","0","NA","NA","0","0","0","0","NA","0","0","6","6","6","6","6","Fri Nov  3 10:23:56 2017","Forced-choice identification task with a practice and an experimental phase","yes","NAP_GER_AA_4blocks_noglides.osexp","/Users/aviadalbert/Documents/Academisch/UoC/Dissertation/Experiment/OpenSesame/NAP-FC/NAP_GER_AA_4blocks_noglides","yes","no","sans","no","20","no","black","no","Weiter","yes","768","legacy","6","6","0","/Users/aviadalbert/Documents/Academisch/UoC/Dissertation/Experiment/OpenSesame/NAP-FC/NAP_GER_AA_4blocks_noglides/subject-37.csv","xpyriment","Jazzy James","3.1.9","yes","yes","59a800d99ad5a1025d81bb03","59a801616c613b0251691de0","yes","no","0","f","f","NA","NA","right","right","f","1018","4221","NA","NA","43010","5415","1018","2","legacy","1024","1","44100","-16","experiment","zmal","2","2","1","0","1","Engl, dutch","37","","odd","271081","NA","NA","NA","NA","NA","NA","83049","NA","83049","83049","222374","265388","294321","292814","295340","275303","271077","NA","NA","132439","213385","NA","270865","NA","271081","NA","294321","294321","NA","NA","292810","NAP perception","6","7619","7","yes","1024"
"87.5","yes","87.5","1051.75","1051.75","white","no","xpyriment","Ich habe die obigen Informationen gelesen und verstanden.","legacy","legacy","0","uniform","1","0","NA","undefined","undefined","1","j","0","0","NA","NA","NA","NA","NA","0","0","0","0","0","0","7","7","7","0","0","NA","NA","0","0","0","0","NA","0","0","7","7","7","7","7","Fri Nov  3 10:23:56 2017","Forced-choice identification task with a practice and an experimental phase","yes","NAP_GER_AA_4blocks_noglides.osexp","/Users/aviadalbert/Documents/Academisch/UoC/Dissertation/Experiment/OpenSesame/NAP-FC/NAP_GER_AA_4blocks_noglides","yes","no","sans","no","20","no","black","no","Weiter","yes","768","legacy","7","7","0","/Users/aviadalbert/Documents/Academisch/UoC/Dissertation/Experiment/OpenSesame/NAP-FC/NAP_GER_AA_4blocks_noglides/subject-37.csv","xpyriment","Jazzy James","3.1.9","yes","yes","59a800d99ad5a1025d81bb03","59a801616c613b0251691de0","yes","no","0","j","f","NA","NA","right","right","j","795","4221","NA","NA","43010","5415","795","2","legacy","1024","1","44100","-16","experiment","mesal","2","2","1","0","1","Engl, dutch","37","","odd","271081","NA","NA","NA","NA","NA","NA","83049","NA","83049","83049","222374","265388","297129","295626","297925","275303","271077","NA","NA","132439","213385","NA","270865","NA","271081","NA","297129","297129","NA","NA","295622","NAP perception","7","8414","8","yes","1024"
"88.8888888889","yes","88.8888888889","1014","1014","white","no","xpyriment","Ich habe die obigen Informationen gelesen und verstanden.","legacy","legacy","0","uniform","1","0","NA","undefined","undefined","1","j","0","0","NA","NA","NA","NA","NA","0","0","0","0","0","0","8","8","8","0","0","NA","NA","0","0","0","0","NA","0","0","8","8","8","8","8","Fri Nov  3 10:23:56 2017","Forced-choice identification task with a practice and an experimental phase","yes","NAP_GER_AA_4blocks_noglides.osexp","/Users/aviadalbert/Documents/Academisch/UoC/Dissertation/Experiment/OpenSesame/NAP-FC/NAP_GER_AA_4blocks_noglides","yes","no","sans","no","20","no","black","no","Weiter","yes","768","legacy","8","8","0","/Users/aviadalbert/Documents/Academisch/UoC/Dissertation/Experiment/OpenSesame/NAP-FC/NAP_GER_AA_4blocks_noglides/subject-37.csv","xpyriment","Jazzy James","3.1.9","yes","yes","59a800d99ad5a1025d81bb03","59a801616c613b0251691de0","yes","no","0","j","f","NA","NA","right","right","j","712","4221","NA","NA","43010","5415","712","2","legacy","1024","1","44100","-16","experiment","enval","2","2","1","0","1","Engl, dutch","37","","odd","271081","NA","NA","NA","NA","NA","NA","83049","NA","83049","83049","222374","265388","299721","298213","300434","275303","271077","NA","NA","132439","213385","NA","270865","NA","271081","NA","299721","299721","NA","NA","298209","NAP perception","8","9126","9","yes","1024"
"90","yes","90","1040.7","1040.7","white","no","xpyriment","Ich habe die obigen Informationen gelesen und verstanden.","legacy","legacy","0","uniform","1","0","NA","undefined","undefined","1","f","0","0","NA","NA","NA","NA","NA","0","0","0","0","0","0","9","9","9","0","0","NA","NA","0","0","0","0","NA","0","0","9","9","9","9","9","Fri Nov  3 10:23:56 2017","Forced-choice identification task with a practice and an experimental phase","yes","NAP_GER_AA_4blocks_noglides.osexp","/Users/aviadalbert/Documents/Academisch/UoC/Dissertation/Experiment/OpenSesame/NAP-FC/NAP_GER_AA_4blocks_noglides","yes","no","sans","no","20","no","black","no","Weiter","yes","768","legacy","9","9","0","/Users/aviadalbert/Documents/Academisch/UoC/Dissertation/Experiment/OpenSesame/NAP-FC/NAP_GER_AA_4blocks_noglides/subject-37.csv","xpyriment","Jazzy James","3.1.9","yes","yes","59a800d99ad5a1025d81bb03","59a801616c613b0251691de0","yes","no","0","f","f","NA","NA","right","right","f","1281","4221","NA","NA","43010","5415","1281","2","legacy","1024","1","44100","-16","experiment","vlal","2","2","1","0","1","Engl, dutch","37","","odd","271081","NA","NA","NA","NA","NA","NA","83049","NA","83049","83049","222374","265388","302219","300714","303502","275303","271077","NA","NA","132439","213385","NA","270865","NA","271081","NA","302219","302219","NA","NA","300710","NAP perception","9","10407","10","yes","1024"
"100","yes","100","719","719","white","no","xpyriment","Ich habe die obigen Informationen gelesen und verstanden.","legacy","legacy","0","uniform","1","0","0","undefined","undefined","1","j","2","1","NA","0","1","0","0","0","0","0","0","0","0","10","10","10","0","0","0","NA","0","0","2","0","0","0","2","10","10","10","10","10","Fri Nov  3 10:23:56 2017","Forced-choice identification task with a practice and an experimental phase","yes","NAP_GER_AA_4blocks_noglides.osexp","/Users/aviadalbert/Documents/Academisch/UoC/Dissertation/Experiment/OpenSesame/NAP-FC/NAP_GER_AA_4blocks_noglides","yes","no","sans","no","20","no","black","no","Weiter","yes","768","legacy","0","9","0","/Users/aviadalbert/Documents/Academisch/UoC/Dissertation/Experiment/OpenSesame/NAP-FC/NAP_GER_AA_4blocks_noglides/subject-37.csv","xpyriment","Jazzy James","3.1.9","yes","yes","59a800d99ad5a1025d81bb03","59a801616c613b0251691de0","no","no","0","j","f","space","NA","right","right","j","719","1266","35741","NA","43010","5415","719","2","legacy","1024","1","44100","-16","experiment","emnal","2","2","1","0","1","Engl, dutch","37","","odd","341530","305238","NA","NA","342797","341526","NA","83049","341033","83049","83049","222374","265388","344512","343004","345232","275303","271077","305238","NA","132439","213385","303564","270865","341530","271081","NA","344512","344512","NA","NA","343001","NAP perception","1","719","1","yes","1024"
"100","yes","100","690","690","white","no","xpyriment","Ich habe die obigen Informationen gelesen und verstanden.","legacy","legacy","0","uniform","1","0","0","undefined","undefined","1","j","2","1","NA","0","1","0","0","0","0","0","0","0","0","11","11","11","0","0","0","NA","0","0","2","0","0","0","2","11","11","11","11","11","Fri Nov  3 10:23:56 2017","Forced-choice identification task with a practice and an experimental phase","yes","NAP_GER_AA_4blocks_noglides.osexp","/Users/aviadalbert/Documents/Academisch/UoC/Dissertation/Experiment/OpenSesame/NAP-FC/NAP_GER_AA_4blocks_noglides","yes","no","sans","no","20","no","black","no","Weiter","yes","768","legacy","1","9","0","/Users/aviadalbert/Documents/Academisch/UoC/Dissertation/Experiment/OpenSesame/NAP-FC/NAP_GER_AA_4blocks_noglides/subject-37.csv","xpyriment","Jazzy James","3.1.9","yes","yes","59a800d99ad5a1025d81bb03","59a801616c613b0251691de0","no","no","0","j","f","space","NA","right","right","j","661","1266","35741","NA","43010","5415","661","2","legacy","1024","1","44100","-16","experiment","zeval","2","2","1","0","1","Engl, dutch","37","","odd","341530","305238","NA","NA","342797","341526","NA","83049","341033","83049","83049","222374","265388","347008","345502","347670","275303","271077","305238","NA","132439","213385","303564","270865","341530","271081","NA","347007","347007","NA","NA","345498","NAP perception","2","1380","2","yes","1024"
"100","yes","100","665","665","white","no","xpyriment","Ich habe die obigen Informationen gelesen und verstanden.","legacy","legacy","0","uniform","1","0","0","undefined","undefined","1","j","2","1","NA","0","1","0","0","0","0","0","0","0","0","12","12","12","0","0","0","NA","0","0","2","0","0","0","2","12","12","12","12","12","Fri Nov  3 10:23:56 2017","Forced-choice identification task with a practice and an experimental phase","yes","NAP_GER_AA_4blocks_noglides.osexp","/Users/aviadalbert/Documents/Academisch/UoC/Dissertation/Experiment/OpenSesame/NAP-FC/NAP_GER_AA_4blocks_noglides","yes","no","sans","no","20","no","black","no","Weiter","yes","768","legacy","2","9","0","/Users/aviadalbert/Documents/Academisch/UoC/Dissertation/Experiment/OpenSesame/NAP-FC/NAP_GER_AA_4blocks_noglides/subject-37.csv","xpyriment","Jazzy James","3.1.9","yes","yes","59a800d99ad5a1025d81bb03","59a801616c613b0251691de0","no","no","0","j","f","space","NA","right","right","j","615","1266","35741","NA","43010","5415","615","2","legacy","1024","1","44100","-16","experiment","enfal","2","2","1","0","1","Engl, dutch","37","","odd","341530","305238","NA","NA","342797","341526","NA","83049","341033","83049","83049","222374","265388","349452","347949","350068","275303","271077","305238","NA","132439","213385","303564","270865","341530","271081","NA","349452","349452","NA","NA","347945","NAP perception","3","1995","3","yes","1024"
"100","yes","100","663.25","663.25","white","no","xpyriment","Ich habe die obigen Informationen gelesen und verstanden.","legacy","legacy","0","uniform","1","0","0","undefined","undefined","1","j","2","1","NA","0","1","0","0","0","0","0","0","0","0","13","13","13","0","0","0","NA","0","0","2","0","0","0","2","13","13","13","13","13","Fri Nov  3 10:23:56 2017","Forced-choice identification task with a practice and an experimental phase","yes","NAP_GER_AA_4blocks_noglides.osexp","/Users/aviadalbert/Documents/Academisch/UoC/Dissertation/Experiment/OpenSesame/NAP-FC/NAP_GER_AA_4blocks_noglides","yes","no","sans","no","20","no","black","no","Weiter","yes","768","legacy","3","9","0","/Users/aviadalbert/Documents/Academisch/UoC/Dissertation/Experiment/OpenSesame/NAP-FC/NAP_GER_AA_4blocks_noglides/subject-37.csv","xpyriment","Jazzy James","3.1.9","yes","yes","59a800d99ad5a1025d81bb03","59a801616c613b0251691de0","no","no","0","j","f","space","NA","right","right","j","658","1266","35741","NA","43010","5415","658","2","legacy","1024","1","44100","-16","experiment","enpal","2","2","1","0","1","Engl, dutch","37","","odd","341530","305238","NA","NA","342797","341526","NA","83049","341033","83049","83049","222374","265388","351858","350353","352517","275303","271077","305238","NA","132439","213385","303564","270865","341530","271081","NA","351858","351858","NA","NA","350349","NAP perception","4","2653","4","yes","1024"
"80","yes","80","798.2","798.2","white","no","xpyriment","Ich habe die obigen Informationen gelesen und verstanden.","legacy","legacy","0","uniform","0","0","0","undefined","undefined","0","f","2","1","NA","0","1","0","0","0","0","0","0","0","0","14","14","14","0","0","0","NA","0","0","2","0","0","0","2","14","14","14","14","14","Fri Nov  3 10:23:56 2017","Forced-choice identification task with a practice and an experimental phase","yes","NAP_GER_AA_4blocks_noglides.osexp","/Users/aviadalbert/Documents/Academisch/UoC/Dissertation/Experiment/OpenSesame/NAP-FC/NAP_GER_AA_4blocks_noglides","yes","no","sans","no","20","no","black","no","Weiter","yes","768","legacy","4","9","0","/Users/aviadalbert/Documents/Academisch/UoC/Dissertation/Experiment/OpenSesame/NAP-FC/NAP_GER_AA_4blocks_noglides/subject-37.csv","xpyriment","Jazzy James","3.1.9","yes","yes","59a800d99ad5a1025d81bb03","59a801616c613b0251691de0","no","no","0","j","f","space","NA","right","right","j","1338","1266","35741","NA","43010","5415","1338","2","legacy","1024","1","44100","-16","experiment","fnal","2","2","1","0","1","Engl, dutch","37","","odd","341530","305238","NA","NA","342797","341526","NA","83049","341033","83049","83049","222374","265388","354287","352782","355626","275303","271077","305238","NA","132439","213385","303564","270865","341530","271081","NA","354287","354287","NA","NA","352778","NAP perception","4","3991","5","yes","1024"
"66.6666666667","yes","66.6666666667","835.166666667","835.166666667","white","no","xpyriment","Ich habe die obigen Informationen gelesen und verstanden.","legacy","legacy","0","uniform","0","0","0","undefined","undefined","0","f","2","1","NA","0","1","0","0","0","0","0","0","0","0","15","15","15","0","0","0","NA","0","0","2","0","0","0","2","15","15","15","15","15","Fri Nov  3 10:23:56 2017","Forced-choice identification task with a practice and an experimental phase","yes","NAP_GER_AA_4blocks_noglides.osexp","/Users/aviadalbert/Documents/Academisch/UoC/Dissertation/Experiment/OpenSesame/NAP-FC/NAP_GER_AA_4blocks_noglides","yes","no","sans","no","20","no","black","no","Weiter","yes","768","legacy","5","9","0","/Users/aviadalbert/Documents/Academisch/UoC/Dissertation/Experiment/OpenSesame/NAP-FC/NAP_GER_AA_4blocks_noglides/subject-37.csv","xpyriment","Jazzy James","3.1.9","yes","yes","59a800d99ad5a1025d81bb03","59a801616c613b0251691de0","no","no","0","j","f","space","NA","right","right","j","1020","1266","35741","NA","43010","5415","1020","2","legacy","1024","1","44100","-16","experiment","nmal","2","2","1","0","1","Engl, dutch","37","","odd","341530","305238","NA","NA","342797","341526","NA","83049","341033","83049","83049","222374","265388","357402","355899","358423","275303","271077","305238","NA","132439","213385","303564","270865","341530","271081","NA","357402","357402","NA","NA","355895","NAP perception","4","5011","6","yes","1024"
"71.4285714286","yes","71.4285714286","820.285714286","820.285714286","white","no","xpyriment","Ich habe die obigen Informationen gelesen und verstanden.","legacy","legacy","0","uniform","1","0","0","undefined","undefined","1","j","2","1","NA","0","1","0","0","0","0","0","0","0","0","16","16","16","0","0","0","NA","0","0","2","0","0","0","2","16","16","16","16","16","Fri Nov  3 10:23:56 2017","Forced-choice identification task with a practice and an experimental phase","yes","NAP_GER_AA_4blocks_noglides.osexp","/Users/aviadalbert/Documents/Academisch/UoC/Dissertation/Experiment/OpenSesame/NAP-FC/NAP_GER_AA_4blocks_noglides","yes","no","sans","no","20","no","black","no","Weiter","yes","768","legacy","6","9","0","/Users/aviadalbert/Documents/Academisch/UoC/Dissertation/Experiment/OpenSesame/NAP-FC/NAP_GER_AA_4blocks_noglides/subject-37.csv","xpyriment","Jazzy James","3.1.9","yes","yes","59a800d99ad5a1025d81bb03","59a801616c613b0251691de0","no","no","0","j","f","space","NA","right","right","j","731","1266","35741","NA","43010","5415","731","2","legacy","1024","1","44100","-16","experiment","elfal","2","2","1","0","1","Engl, dutch","37","","odd","341530","305238","NA","NA","342797","341526","NA","83049","341033","83049","83049","222374","265388","360198","358694","360930","275303","271077","305238","NA","132439","213385","303564","270865","341530","271081","NA","360198","360198","NA","NA","358691","NAP perception","5","5742","7","yes","1024"
"75","yes","75","809.25","809.25","white","no","xpyriment","Ich habe die obigen Informationen gelesen und verstanden.","legacy","legacy","0","uniform","1","0","0","undefined","undefined","1","j","2","1","NA","0","1","0","0","0","0","0","0","0","0","17","17","17","0","0","0","NA","0","0","2","0","0","0","2","17","17","17","17","17","Fri Nov  3 10:23:56 2017","Forced-choice identification task with a practice and an experimental phase","yes","NAP_GER_AA_4blocks_noglides.osexp","/Users/aviadalbert/Documents/Academisch/UoC/Dissertation/Experiment/OpenSesame/NAP-FC/NAP_GER_AA_4blocks_noglides","yes","no","sans","no","20","no","black","no","Weiter","yes","768","legacy","7","9","0","/Users/aviadalbert/Documents/Academisch/UoC/Dissertation/Experiment/OpenSesame/NAP-FC/NAP_GER_AA_4blocks_noglides/subject-37.csv","xpyriment","Jazzy James","3.1.9","yes","yes","59a800d99ad5a1025d81bb03","59a801616c613b0251691de0","no","no","0","j","f","space","NA","right","right","j","732","1266","35741","NA","43010","5415","732","2","legacy","1024","1","44100","-16","experiment","lefal","2","2","1","0","1","Engl, dutch","37","","odd","341530","305238","NA","NA","342797","341526","NA","83049","341033","83049","83049","222374","265388","362706","361201","363439","275303","271077","305238","NA","132439","213385","303564","270865","341530","271081","NA","362705","362706","NA","NA","361198","NAP perception","6","6474","8","yes","1024"
"77.7777777778","yes","77.7777777778","990.333333333","990.333333333","white","no","xpyriment","Ich habe die obigen Informationen gelesen und verstanden.","legacy","legacy","0","uniform","1","0","0","undefined","undefined","1","f","2","1","NA","0","1","0","0","0","0","0","0","0","0","18","18","18","0","0","0","NA","0","0","2","0","0","0","2","18","18","18","18","18","Fri Nov  3 10:23:56 2017","Forced-choice identification task with a practice and an experimental phase","yes","NAP_GER_AA_4blocks_noglides.osexp","/Users/aviadalbert/Documents/Academisch/UoC/Dissertation/Experiment/OpenSesame/NAP-FC/NAP_GER_AA_4blocks_noglides","yes","no","sans","no","20","no","black","no","Weiter","yes","768","legacy","8","9","0","/Users/aviadalbert/Documents/Academisch/UoC/Dissertation/Experiment/OpenSesame/NAP-FC/NAP_GER_AA_4blocks_noglides/subject-37.csv","xpyriment","Jazzy James","3.1.9","yes","yes","59a800d99ad5a1025d81bb03","59a801616c613b0251691de0","no","no","0","f","f","space","NA","right","right","f","2439","1266","35741","NA","43010","5415","2439","2","legacy","1024","1","44100","-16","experiment","lval","2","2","1","0","1","Engl, dutch","37","","odd","341530","305238","NA","NA","342797","341526","NA","83049","341033","83049","83049","222374","265388","365212","363709","367653","275303","271077","305238","NA","132439","213385","303564","270865","341530","271081","NA","365212","365212","NA","NA","363705","NAP perception","7","8913","9","yes","1024"
"80","yes","80","971.2","971.2","white","no","xpyriment","Ich habe die obigen Informationen gelesen und verstanden.","legacy","legacy","0","uniform","1","0","0","undefined","undefined","1","f","2","1","NA","0","1","0","0","0","0","0","0","0","0","19","19","19","0","0","0","NA","0","0","2","0","0","0","2","19","19","19","19","19","Fri Nov  3 10:23:56 2017","Forced-choice identification task with a practice and an experimental phase","yes","NAP_GER_AA_4blocks_noglides.osexp","/Users/aviadalbert/Documents/Academisch/UoC/Dissertation/Experiment/OpenSesame/NAP-FC/NAP_GER_AA_4blocks_noglides","yes","no","sans","no","20","no","black","no","Weiter","yes","768","legacy","9","9","0","/Users/aviadalbert/Documents/Academisch/UoC/Dissertation/Experiment/OpenSesame/NAP-FC/NAP_GER_AA_4blocks_noglides/subject-37.csv","xpyriment","Jazzy James","3.1.9","yes","yes","59a800d99ad5a1025d81bb03","59a801616c613b0251691de0","no","no","0","f","f","space","NA","right","right","f","799","1266","35741","NA","43010","5415","799","2","legacy","1024","1","44100","-16","experiment","ʃpal","2","2","1","0","1","Engl, dutch","37","","odd","341530","305238","NA","NA","342797","341526","NA","83049","341033","83049","83049","222374","265388","369420","367917","370221","275303","271077","305238","NA","132439","213385","303564","270865","341530","271081","NA","369420","369420","NA","NA","367913","NAP perception","8","9712","10","yes","1024"
"81.8181818182","yes","81.8181818182","948.454545455","948.454545455","white","no","xpyriment","Ich habe die obigen Informationen gelesen und verstanden.","legacy","legacy","0","uniform","1","0","0","undefined","undefined","1","j","2","1","NA","0","1","0","0","0","0","0","0","0","0","20","20","20","0","0","0","NA","0","0","2","0","0","0","2","20","20","20","20","20","Fri Nov  3 10:23:56 2017","Forced-choice identification task with a practice and an experimental phase","yes","NAP_GER_AA_4blocks_noglides.osexp","/Users/aviadalbert/Documents/Academisch/UoC/Dissertation/Experiment/OpenSesame/NAP-FC/NAP_GER_AA_4blocks_noglides","yes","no","sans","no","20","no","black","no","Weiter","yes","768","legacy","10","9","0","/Users/aviadalbert/Documents/Academisch/UoC/Dissertation/Experiment/OpenSesame/NAP-FC/NAP_GER_AA_4blocks_noglides/subject-37.csv","xpyriment","Jazzy James","3.1.9","yes","yes","59a800d99ad5a1025d81bb03","59a801616c613b0251691de0","no","no","0","j","f","space","NA","right","right","j","721","1266","35741","NA","43010","5415","721","2","legacy","1024","1","44100","-16","experiment","evnal","2","2","1","0","1","Engl, dutch","37","","odd","341530","305238","NA","NA","342797","341526","NA","83049","341033","83049","83049","222374","265388","371987","370484","372710","275303","271077","305238","NA","132439","213385","303564","270865","341530","271081","NA","371987","371987","NA","NA","370480","NAP perception","9","10433","11","yes","1024"
"75","yes","75","927","927","white","no","xpyriment","Ich habe die obigen Informationen gelesen und verstanden.","legacy","legacy","0","uniform","0","0","0","undefined","undefined","0","f","2","1","NA","0","1","0","0","0","0","0","0","0","0","21","21","21","0","0","0","NA","0","0","2","0","0","0","2","21","21","21","21","21","Fri Nov  3 10:23:56 2017","Forced-choice identification task with a practice and an experimental phase","yes","NAP_GER_AA_4blocks_noglides.osexp","/Users/aviadalbert/Documents/Academisch/UoC/Dissertation/Experiment/OpenSesame/NAP-FC/NAP_GER_AA_4blocks_noglides","yes","no","sans","no","20","no","black","no","Weiter","yes","768","legacy","11","9","0","/Users/aviadalbert/Documents/Academisch/UoC/Dissertation/Experiment/OpenSesame/NAP-FC/NAP_GER_AA_4blocks_noglides/subject-37.csv","xpyriment","Jazzy James","3.1.9","yes","yes","59a800d99ad5a1025d81bb03","59a801616c613b0251691de0","no","no","0","j","f","space","NA","right","right","j","691","1266","35741","NA","43010","5415","691","2","legacy","1024","1","44100","-16","experiment","nfal","2","2","1","0","1","Engl, dutch","37","","odd","341530","305238","NA","NA","342797","341526","NA","83049","341033","83049","83049","222374","265388","374503","373000","375195","275303","271077","305238","NA","132439","213385","303564","270865","341530","271081","NA","374503","374503","NA","NA","372996","NAP perception","9","11124","12","yes","1024"
"76.9230769231","yes","76.9230769231","911.538461538","911.538461538","white","no","xpyriment","Ich habe die obigen Informationen gelesen und verstanden.","legacy","legacy","0","uniform","1","0","0","undefined","undefined","1","j","2","1","NA","0","1","0","0","0","0","0","0","0","0","22","22","22","0","0","0","NA","0","0","2","0","0","0","2","22","22","22","22","22","Fri Nov  3 10:23:56 2017","Forced-choice identification task with a practice and an experimental phase","yes","NAP_GER_AA_4blocks_noglides.osexp","/Users/aviadalbert/Documents/Academisch/UoC/Dissertation/Experiment/OpenSesame/NAP-FC/NAP_GER_AA_4blocks_noglides","yes","no","sans","no","20","no","black","no","Weiter","yes","768","legacy","12","9","0","/Users/aviadalbert/Documents/Academisch/UoC/Dissertation/Experiment/OpenSesame/NAP-FC/NAP_GER_AA_4blocks_noglides/subject-37.csv","xpyriment","Jazzy James","3.1.9","yes","yes","59a800d99ad5a1025d81bb03","59a801616c613b0251691de0","no","no","0","j","f","space","NA","right","right","j","726","1266","35741","NA","43010","5415","726","2","legacy","1024","1","44100","-16","experiment","ʃepal","2","2","1","0","1","Engl, dutch","37","","odd","341530","305238","NA","NA","342797","341526","NA","83049","341033","83049","83049","222374","265388","376974","375469","377701","275303","271077","305238","NA","132439","213385","303564","270865","341530","271081","NA","376974","376974","NA","NA","375465","NAP perception","10","11850","13","yes","1024"
"78.5714285714","yes","78.5714285714","910.357142857","910.357142857","white","no","xpyriment","Ich habe die obigen Informationen gelesen und verstanden.","legacy","legacy","0","uniform","1","0","0","undefined","undefined","1","f","2","1","NA","0","1","0","0","0","0","0","0","0","0","23","23","23","0","0","0","NA","0","0","2","0","0","0","2","23","23","23","23","23","Fri Nov  3 10:23:56 2017","Forced-choice identification task with a practice and an experimental phase","yes","NAP_GER_AA_4blocks_noglides.osexp","/Users/aviadalbert/Documents/Academisch/UoC/Dissertation/Experiment/OpenSesame/NAP-FC/NAP_GER_AA_4blocks_noglides","yes","no","sans","no","20","no","black","no","Weiter","yes","768","legacy","13","9","0","/Users/aviadalbert/Documents/Academisch/UoC/Dissertation/Experiment/OpenSesame/NAP-FC/NAP_GER_AA_4blocks_noglides/subject-37.csv","xpyriment","Jazzy James","3.1.9","yes","yes","59a800d99ad5a1025d81bb03","59a801616c613b0251691de0","no","no","0","f","f","space","NA","right","right","f","895","1266","35741","NA","43010","5415","895","2","legacy","1024","1","44100","-16","experiment","sfal","2","2","1","0","1","Engl, dutch","37","","odd","341530","305238","NA","NA","342797","341526","NA","83049","341033","83049","83049","222374","265388","379482","377976","380378","275303","271077","305238","NA","132439","213385","303564","270865","341530","271081","NA","379482","379482","NA","NA","377972","NAP perception","11","12745","14","yes","1024"
"73.3333333333","yes","73.3333333333","946","946","white","no","xpyriment","Ich habe die obigen Informationen gelesen und verstanden.","legacy","legacy","0","uniform","0","0","0","undefined","undefined","0","f","2","1","NA","0","1","0","0","0","0","0","0","0","0","24","24","24","0","0","0","NA","0","0","2","0","0","0","2","24","24","24","24","24","Fri Nov  3 10:23:56 2017","Forced-choice identification task with a practice and an experimental phase","yes","NAP_GER_AA_4blocks_noglides.osexp","/Users/aviadalbert/Documents/Academisch/UoC/Dissertation/Experiment/OpenSesame/NAP-FC/NAP_GER_AA_4blocks_noglides","yes","no","sans","no","20","no","black","no","Weiter","yes","768","legacy","14","9","0","/Users/aviadalbert/Documents/Academisch/UoC/Dissertation/Experiment/OpenSesame/NAP-FC/NAP_GER_AA_4blocks_noglides/subject-37.csv","xpyriment","Jazzy James","3.1.9","yes","yes","59a800d99ad5a1025d81bb03","59a801616c613b0251691de0","no","no","0","j","f","space","NA","right","right","j","1445","1266","35741","NA","43010","5415","1445","2","legacy","1024","1","44100","-16","experiment","nval","2","2","1","0","1","Engl, dutch","37","","odd","341530","305238","NA","NA","342797","341526","NA","83049","341033","83049","83049","222374","265388","382152","380648","383598","275303","271077","305238","NA","132439","213385","303564","270865","341530","271081","NA","382152","382152","NA","NA","380644","NAP perception","11","14190","15","yes","1024"
"75","yes","75","928.4375","928.4375","white","no","xpyriment","Ich habe die obigen Informationen gelesen und verstanden.","legacy","legacy","0","uniform","1","0","0","undefined","undefined","1","j","2","1","NA","0","1","0","0","0","0","0","0","0","0","25","25","25","0","0","0","NA","0","0","2","0","0","0","2","25","25","25","25","25","Fri Nov  3 10:23:56 2017","Forced-choice identification task with a practice and an experimental phase","yes","NAP_GER_AA_4blocks_noglides.osexp","/Users/aviadalbert/Documents/Academisch/UoC/Dissertation/Experiment/OpenSesame/NAP-FC/NAP_GER_AA_4blocks_noglides","yes","no","sans","no","20","no","black","no","Weiter","yes","768","legacy","15","9","0","/Users/aviadalbert/Documents/Academisch/UoC/Dissertation/Experiment/OpenSesame/NAP-FC/NAP_GER_AA_4blocks_noglides/subject-37.csv","xpyriment","Jazzy James","3.1.9","yes","yes","59a800d99ad5a1025d81bb03","59a801616c613b0251691de0","no","no","0","j","f","space","NA","right","right","j","665","1266","35741","NA","43010","5415","665","2","legacy","1024","1","44100","-16","experiment","nemal","2","2","1","0","1","Engl, dutch","37","","odd","341530","305238","NA","NA","342797","341526","NA","83049","341033","83049","83049","222374","265388","385369","383864","386035","275303","271077","305238","NA","132439","213385","303564","270865","341530","271081","NA","385369","385369","NA","NA","383861","NAP perception","12","14855","16","yes","1024"
"76.4705882353","yes","76.4705882353","921.058823529","921.058823529","white","no","xpyriment","Ich habe die obigen Informationen gelesen und verstanden.","legacy","legacy","0","uniform","1","0","0","undefined","undefined","1","j","2","1","NA","0","1","0","0","0","0","0","0","0","0","26","26","26","0","0","0","NA","0","0","2","0","0","0","2","26","26","26","26","26","Fri Nov  3 10:23:56 2017","Forced-choice identification task with a practice and an experimental phase","yes","NAP_GER_AA_4blocks_noglides.osexp","/Users/aviadalbert/Documents/Academisch/UoC/Dissertation/Experiment/OpenSesame/NAP-FC/NAP_GER_AA_4blocks_noglides","yes","no","sans","no","20","no","black","no","Weiter","yes","768","legacy","16","9","0","/Users/aviadalbert/Documents/Academisch/UoC/Dissertation/Experiment/OpenSesame/NAP-FC/NAP_GER_AA_4blocks_noglides/subject-37.csv","xpyriment","Jazzy James","3.1.9","yes","yes","59a800d99ad5a1025d81bb03","59a801616c613b0251691de0","no","no","0","j","f","space","NA","right","right","j","803","1266","35741","NA","43010","5415","803","2","legacy","1024","1","44100","-16","experiment","melal","2","2","1","0","1","Engl, dutch","37","","odd","341530","305238","NA","NA","342797","341526","NA","83049","341033","83049","83049","222374","265388","387830","386325","388634","275303","271077","305238","NA","132439","213385","303564","270865","341530","271081","NA","387830","387830","NA","NA","386321","NAP perception","13","15658","17","yes","1024"
"77.7777777778","yes","77.7777777778","926.444444444","926.444444444","white","no","xpyriment","Ich habe die obigen Informationen gelesen und verstanden.","legacy","legacy","0","uniform","1","0","0","undefined","undefined","1","j","2","1","NA","0","1","0","0","0","0","0","0","0","0","27","27","27","0","0","0","NA","0","0","2","0","0","0","2","27","27","27","27","27","Fri Nov  3 10:23:56 2017","Forced-choice identification task with a practice and an experimental phase","yes","NAP_GER_AA_4blocks_noglides.osexp","/Users/aviadalbert/Documents/Academisch/UoC/Dissertation/Experiment/OpenSesame/NAP-FC/NAP_GER_AA_4blocks_noglides","yes","no","sans","no","20","no","black","no","Weiter","yes","768","legacy","17","9","0","/Users/aviadalbert/Documents/Academisch/UoC/Dissertation/Experiment/OpenSesame/NAP-FC/NAP_GER_AA_4blocks_noglides/subject-37.csv","xpyriment","Jazzy James","3.1.9","yes","yes","59a800d99ad5a1025d81bb03","59a801616c613b0251691de0","no","no","0","j","f","space","NA","right","right","j","1018","1266","35741","NA","43010","5415","1018","2","legacy","1024","1","44100","-16","experiment","fetal","2","2","1","0","1","Engl, dutch","37","","odd","341530","305238","NA","NA","342797","341526","NA","83049","341033","83049","83049","222374","265388","390412","388908","391431","275303","271077","305238","NA","132439","213385","303564","270865","341530","271081","NA","390411","390412","NA","NA","388904","NAP perception","14","16676","18","yes","1024"
"73.6842105263","yes","73.6842105263","959.736842105","959.736842105","white","no","xpyriment","Ich habe die obigen Informationen gelesen und verstanden.","legacy","legacy","0","uniform","0","0","0","undefined","undefined","0","f","2","1","NA","0","1","0","0","0","0","0","0","0","0","28","28","28","0","0","0","NA","0","0","2","0","0","0","2","28","28","28","28","28","Fri Nov  3 10:23:56 2017","Forced-choice identification task with a practice and an experimental phase","yes","NAP_GER_AA_4blocks_noglides.osexp","/Users/aviadalbert/Documents/Academisch/UoC/Dissertation/Experiment/OpenSesame/NAP-FC/NAP_GER_AA_4blocks_noglides","yes","no","sans","no","20","no","black","no","Weiter","yes","768","legacy","18","9","0","/Users/aviadalbert/Documents/Academisch/UoC/Dissertation/Experiment/OpenSesame/NAP-FC/NAP_GER_AA_4blocks_noglides/subject-37.csv","xpyriment","Jazzy James","3.1.9","yes","yes","59a800d99ad5a1025d81bb03","59a801616c613b0251691de0","no","no","0","j","f","space","NA","right","right","j","1559","1266","35741","NA","43010","5415","1559","2","legacy","1024","1","44100","-16","experiment","mnal","2","2","1","0","1","Engl, dutch","37","","odd","341530","305238","NA","NA","342797","341526","NA","83049","341033","83049","83049","222374","265388","393220","391717","394780","275303","271077","305238","NA","132439","213385","303564","270865","341530","271081","NA","393220","393220","NA","NA","391713","NAP perception","14","18235","19","yes","1024"
"75","yes","75","946.9","946.9","white","no","xpyriment","Ich habe die obigen Informationen gelesen und verstanden.","legacy","legacy","0","uniform","1","0","0","undefined","undefined","1","j","2","1","NA","0","1","0","0","0","0","0","0","0","0","29","29","29","0","0","0","NA","0","0","2","0","0","0","2","29","29","29","29","29","Fri Nov  3 10:23:56 2017","Forced-choice identification task with a practice and an experimental phase","yes","NAP_GER_AA_4blocks_noglides.osexp","/Users/aviadalbert/Documents/Academisch/UoC/Dissertation/Experiment/OpenSesame/NAP-FC/NAP_GER_AA_4blocks_noglides","yes","no","sans","no","20","no","black","no","Weiter","yes","768","legacy","19","9","0","/Users/aviadalbert/Documents/Academisch/UoC/Dissertation/Experiment/OpenSesame/NAP-FC/NAP_GER_AA_4blocks_noglides/subject-37.csv","xpyriment","Jazzy James","3.1.9","yes","yes","59a800d99ad5a1025d81bb03","59a801616c613b0251691de0","no","no","0","j","f","space","NA","right","right","j","703","1266","35741","NA","43010","5415","703","2","legacy","1024","1","44100","-16","experiment","neval","2","2","1","0","1","Engl, dutch","37","","odd","341530","305238","NA","NA","342797","341526","NA","83049","341033","83049","83049","222374","265388","396576","395072","397281","275303","271077","305238","NA","132439","213385","303564","270865","341530","271081","NA","396576","396576","NA","NA","395068","NAP perception","15","18938","20","yes","1024"
"76.1904761905","yes","76.1904761905","929.80952381","929.80952381","white","no","xpyriment","Ich habe die obigen Informationen gelesen und verstanden.","legacy","legacy","0","uniform","1","0","0","undefined","undefined","1","j","2","1","NA","0","1","0","0","0","0","0","0","0","0","30","30","30","0","0","0","NA","0","0","2","0","0","0","2","30","30","30","30","30","Fri Nov  3 10:23:56 2017","Forced-choice identification task with a practice and an experimental phase","yes","NAP_GER_AA_4blocks_noglides.osexp","/Users/aviadalbert/Documents/Academisch/UoC/Dissertation/Experiment/OpenSesame/NAP-FC/NAP_GER_AA_4blocks_noglides","yes","no","sans","no","20","no","black","no","Weiter","yes","768","legacy","20","9","0","/Users/aviadalbert/Documents/Academisch/UoC/Dissertation/Experiment/OpenSesame/NAP-FC/NAP_GER_AA_4blocks_noglides/subject-37.csv","xpyriment","Jazzy James","3.1.9","yes","yes","59a800d99ad5a1025d81bb03","59a801616c613b0251691de0","no","no","0","j","f","space","NA","right","right","j","588","1266","35741","NA","43010","5415","588","2","legacy","1024","1","44100","-16","experiment","mesal","2","2","1","0","1","Engl, dutch","37","","odd","341530","305238","NA","NA","342797","341526","NA","83049","341033","83049","83049","222374","265388","399060","397557","399650","275303","271077","305238","NA","132439","213385","303564","270865","341530","271081","NA","399060","399060","NA","NA","397553","NAP perception","16","19526","21","yes","1024"
"77.2727272727","yes","77.2727272727","916.636363636","916.636363636","white","no","xpyriment","Ich habe die obigen Informationen gelesen und verstanden.","legacy","legacy","0","uniform","1","0","0","undefined","undefined","1","f","2","1","NA","0","1","0","0","0","0","0","0","0","0","31","31","31","0","0","0","NA","0","0","2","0","0","0","2","31","31","31","31","31","Fri Nov  3 10:23:56 2017","Forced-choice identification task with a practice and an experimental phase","yes","NAP_GER_AA_4blocks_noglides.osexp","/Users/aviadalbert/Documents/Academisch/UoC/Dissertation/Experiment/OpenSesame/NAP-FC/NAP_GER_AA_4blocks_noglides","yes","no","sans","no","20","no","black","no","Weiter","yes","768","legacy","21","9","0","/Users/aviadalbert/Documents/Academisch/UoC/Dissertation/Experiment/OpenSesame/NAP-FC/NAP_GER_AA_4blocks_noglides/subject-37.csv","xpyriment","Jazzy James","3.1.9","yes","yes","59a800d99ad5a1025d81bb03","59a801616c613b0251691de0","no","no","0","f","f","space","NA","right","right","f","640","1266","35741","NA","43010","5415","640","2","legacy","1024","1","44100","-16","experiment","flal","2","2","1","0","1","Engl, dutch","37","","odd","341530","305238","NA","NA","342797","341526","NA","83049","341033","83049","83049","222374","265388","401436","399930","402077","275303","271077","305238","NA","132439","213385","303564","270865","341530","271081","NA","401436","401436","NA","NA","399926","NAP perception","17","20166","22","yes","1024"
"73.9130434783","yes","73.9130434783","971.304347826","971.304347826","white","no","xpyriment","Ich habe die obigen Informationen gelesen und verstanden.","legacy","legacy","0","uniform","0","0","0","undefined","undefined","0","f","2","1","NA","0","1","0","0","0","0","0","0","0","0","32","32","32","0","0","0","NA","0","0","2","0","0","0","2","32","32","32","32","32","Fri Nov  3 10:23:56 2017","Forced-choice identification task with a practice and an experimental phase","yes","NAP_GER_AA_4blocks_noglides.osexp","/Users/aviadalbert/Documents/Academisch/UoC/Dissertation/Experiment/OpenSesame/NAP-FC/NAP_GER_AA_4blocks_noglides","yes","no","sans","no","20","no","black","no","Weiter","yes","768","legacy","22","9","0","/Users/aviadalbert/Documents/Academisch/UoC/Dissertation/Experiment/OpenSesame/NAP-FC/NAP_GER_AA_4blocks_noglides/subject-37.csv","xpyriment","Jazzy James","3.1.9","yes","yes","59a800d99ad5a1025d81bb03","59a801616c613b0251691de0","no","no","0","j","f","space","NA","right","right","j","2174","1266","35741","NA","43010","5415","2174","2","legacy","1024","1","44100","-16","experiment","lmal","2","2","1","0","1","Engl, dutch","37","","odd","341530","305238","NA","NA","342797","341526","NA","83049","341033","83049","83049","222374","265388","403858","402353","406033","275303","271077","305238","NA","132439","213385","303564","270865","341530","271081","NA","403858","403858","NA","NA","402349","NAP perception","17","22340","23","yes","1024"
"75","yes","75","977.5","977.5","white","no","xpyriment","Ich habe die obigen Informationen gelesen und verstanden.","legacy","legacy","0","uniform","1","0","0","undefined","undefined","1","f","2","1","NA","0","1","0","0","0","0","0","0","0","0","33","33","33","0","0","0","NA","0","0","2","0","0","0","2","33","33","33","33","33","Fri Nov  3 10:23:56 2017","Forced-choice identification task with a practice and an experimental phase","yes","NAP_GER_AA_4blocks_noglides.osexp","/Users/aviadalbert/Documents/Academisch/UoC/Dissertation/Experiment/OpenSesame/NAP-FC/NAP_GER_AA_4blocks_noglides","yes","no","sans","no","20","no","black","no","Weiter","yes","768","legacy","23","9","0","/Users/aviadalbert/Documents/Academisch/UoC/Dissertation/Experiment/OpenSesame/NAP-FC/NAP_GER_AA_4blocks_noglides/subject-37.csv","xpyriment","Jazzy James","3.1.9","yes","yes","59a800d99ad5a1025d81bb03","59a801616c613b0251691de0","no","no","0","f","f","space","NA","right","right","f","1120","1266","35741","NA","43010","5415","1120","2","legacy","1024","1","44100","-16","experiment","spal","2","2","1","0","1","Engl, dutch","37","","odd","341530","305238","NA","NA","342797","341526","NA","83049","341033","83049","83049","222374","265388","407824","406317","408945","275303","271077","305238","NA","132439","213385","303564","270865","341530","271081","NA","407824","407824","NA","NA","406313","NAP perception","18","23460","24","yes","1024"
"72","yes","72","1010.12","1010.12","white","no","xpyriment","Ich habe die obigen Informationen gelesen und verstanden.","legacy","legacy","0","uniform","0","0","0","undefined","undefined","0","f","2","1","NA","0","1","0","0","0","0","0","0","0","0","34","34","34","0","0","0","NA","0","0","2","0","0","0","2","34","34","34","34","34","Fri Nov  3 10:23:56 2017","Forced-choice identification task with a practice and an experimental phase","yes","NAP_GER_AA_4blocks_noglides.osexp","/Users/aviadalbert/Documents/Academisch/UoC/Dissertation/Experiment/OpenSesame/NAP-FC/NAP_GER_AA_4blocks_noglides","yes","no","sans","no","20","no","black","no","Weiter","yes","768","legacy","24","9","0","/Users/aviadalbert/Documents/Academisch/UoC/Dissertation/Experiment/OpenSesame/NAP-FC/NAP_GER_AA_4blocks_noglides/subject-37.csv","xpyriment","Jazzy James","3.1.9","yes","yes","59a800d99ad5a1025d81bb03","59a801616c613b0251691de0","no","no","0","j","f","space","NA","right","right","j","1793","1266","35741","NA","43010","5415","1793","2","legacy","1024","1","44100","-16","experiment","msal","2","2","1","0","1","Engl, dutch","37","","odd","341530","305238","NA","NA","342797","341526","NA","83049","341033","83049","83049","222374","265388","410732","409227","412526","275303","271077","305238","NA","132439","213385","303564","270865","341530","271081","NA","410732","410732","NA","NA","409223","NAP perception","18","25253","25","yes","1024"
"73.0769230769","yes","73.0769230769","1009.53846154","1009.53846154","white","no","xpyriment","Ich habe die obigen Informationen gelesen und verstanden.","legacy","legacy","0","uniform","1","0","0","undefined","undefined","1","f","2","1","NA","0","1","0","0","0","0","0","0","0","0","35","35","35","0","0","0","NA","0","0","2","0","0","0","2","35","35","35","35","35","Fri Nov  3 10:23:56 2017","Forced-choice identification task with a practice and an experimental phase","yes","NAP_GER_AA_4blocks_noglides.osexp","/Users/aviadalbert/Documents/Academisch/UoC/Dissertation/Experiment/OpenSesame/NAP-FC/NAP_GER_AA_4blocks_noglides","yes","no","sans","no","20","no","black","no","Weiter","yes","768","legacy","25","9","0","/Users/aviadalbert/Documents/Academisch/UoC/Dissertation/Experiment/OpenSesame/NAP-FC/NAP_GER_AA_4blocks_noglides/subject-37.csv","xpyriment","Jazzy James","3.1.9","yes","yes","59a800d99ad5a1025d81bb03","59a801616c613b0251691de0","no","no","0","f","f","space","NA","right","right","f","995","1266","35741","NA","43010","5415","995","2","legacy","1024","1","44100","-16","experiment","smal","2","2","1","0","1","Engl, dutch","37","","odd","341530","305238","NA","NA","342797","341526","NA","83049","341033","83049","83049","222374","265388","414313","412806","415309","275303","271077","305238","NA","132439","213385","303564","270865","341530","271081","NA","414312","414312","NA","NA","412802","NAP perception","19","26248","26","yes","1024"
"74.0740740741","yes","74.0740740741","1003.22222222","1003.22222222","white","no","xpyriment","Ich habe die obigen Informationen gelesen und verstanden.","legacy","legacy","0","uniform","1","0","0","undefined","undefined","1","j","2","1","NA","0","1","0","0","0","0","0","0","0","0","36","36","36","0","0","0","NA","0","0","2","0","0","0","2","36","36","36","36","36","Fri Nov  3 10:23:56 2017","Forced-choice identification task with a practice and an experimental phase","yes","NAP_GER_AA_4blocks_noglides.osexp","/Users/aviadalbert/Documents/Academisch/UoC/Dissertation/Experiment/OpenSesame/NAP-FC/NAP_GER_AA_4blocks_noglides","yes","no","sans","no","20","no","black","no","Weiter","yes","768","legacy","26","9","0","/Users/aviadalbert/Documents/Academisch/UoC/Dissertation/Experiment/OpenSesame/NAP-FC/NAP_GER_AA_4blocks_noglides/subject-37.csv","xpyriment","Jazzy James","3.1.9","yes","yes","59a800d99ad5a1025d81bb03","59a801616c613b0251691de0","no","no","0","j","f","space","NA","right","right","j","839","1266","35741","NA","43010","5415","839","2","legacy","1024","1","44100","-16","experiment","semal","2","2","1","0","1","Engl, dutch","37","","odd","341530","305238","NA","NA","342797","341526","NA","83049","341033","83049","83049","222374","265388","417078","415575","417919","275303","271077","305238","NA","132439","213385","303564","270865","341530","271081","NA","417078","417078","NA","NA","415571","NAP perception","20","27087","27","yes","1024"
"75","yes","75","1001.10714286","1001.10714286","white","no","xpyriment","Ich habe die obigen Informationen gelesen und verstanden.","legacy","legacy","0","uniform","1","0","0","undefined","undefined","1","j","2","1","NA","0","1","0","0","0","0","0","0","0","0","37","37","37","0","0","0","NA","0","0","2","0","0","0","2","37","37","37","37","37","Fri Nov  3 10:23:56 2017","Forced-choice identification task with a practice and an experimental phase","yes","NAP_GER_AA_4blocks_noglides.osexp","/Users/aviadalbert/Documents/Academisch/UoC/Dissertation/Experiment/OpenSesame/NAP-FC/NAP_GER_AA_4blocks_noglides","yes","no","sans","no","20","no","black","no","Weiter","yes","768","legacy","27","9","0","/Users/aviadalbert/Documents/Academisch/UoC/Dissertation/Experiment/OpenSesame/NAP-FC/NAP_GER_AA_4blocks_noglides/subject-37.csv","xpyriment","Jazzy James","3.1.9","yes","yes","59a800d99ad5a1025d81bb03","59a801616c613b0251691de0","no","no","0","j","f","space","NA","right","right","j","944","1266","35741","NA","43010","5415","944","2","legacy","1024","1","44100","-16","experiment","vezal","2","2","1","0","1","Engl, dutch","37","","odd","341530","305238","NA","NA","342797","341526","NA","83049","341033","83049","83049","222374","265388","419703","418199","420649","275303","271077","305238","NA","132439","213385","303564","270865","341530","271081","NA","419703","419703","NA","NA","418195","NAP perception","21","28031","28","yes","1024"
"72.4137931034","yes","72.4137931034","1013.75862069","1013.75862069","white","no","xpyriment","Ich habe die obigen Informationen gelesen und verstanden.","legacy","legacy","0","uniform","0","0","0","undefined","undefined","0","f","2","1","NA","0","1","0","0","0","0","0","0","0","0","38","38","38","0","0","0","NA","0","0","2","0","0","0","2","38","38","38","38","38","Fri Nov  3 10:23:56 2017","Forced-choice identification task with a practice and an experimental phase","yes","NAP_GER_AA_4blocks_noglides.osexp","/Users/aviadalbert/Documents/Academisch/UoC/Dissertation/Experiment/OpenSesame/NAP-FC/NAP_GER_AA_4blocks_noglides","yes","no","sans","no","20","no","black","no","Weiter","yes","768","legacy","28","9","0","/Users/aviadalbert/Documents/Academisch/UoC/Dissertation/Experiment/OpenSesame/NAP-FC/NAP_GER_AA_4blocks_noglides/subject-37.csv","xpyriment","Jazzy James","3.1.9","yes","yes","59a800d99ad5a1025d81bb03","59a801616c613b0251691de0","no","no","0","j","f","space","NA","right","right","j","1368","1266","35741","NA","43010","5415","1368","2","legacy","1024","1","44100","-16","experiment","nval","2","2","1","0","1","Engl, dutch","37","","odd","341530","305238","NA","NA","342797","341526","NA","83049","341033","83049","83049","222374","265388","422428","420922","423798","275303","271077","305238","NA","132439","213385","303564","270865","341530","271081","NA","422428","422428","NA","NA","420918","NAP perception","21","29399","29","yes","1024"
"73.3333333333","yes","73.3333333333","1006.03333333","1006.03333333","white","no","xpyriment","Ich habe die obigen Informationen gelesen und verstanden.","legacy","legacy","0","uniform","1","0","0","undefined","undefined","1","j","2","1","NA","0","1","0","0","0","0","0","0","0","0","39","39","39","0","0","0","NA","0","0","2","0","0","0","2","39","39","39","39","39","Fri Nov  3 10:23:56 2017","Forced-choice identification task with a practice and an experimental phase","yes","NAP_GER_AA_4blocks_noglides.osexp","/Users/aviadalbert/Documents/Academisch/UoC/Dissertation/Experiment/OpenSesame/NAP-FC/NAP_GER_AA_4blocks_noglides","yes","no","sans","no","20","no","black","no","Weiter","yes","768","legacy","29","9","0","/Users/aviadalbert/Documents/Academisch/UoC/Dissertation/Experiment/OpenSesame/NAP-FC/NAP_GER_AA_4blocks_noglides/subject-37.csv","xpyriment","Jazzy James","3.1.9","yes","yes","59a800d99ad5a1025d81bb03","59a801616c613b0251691de0","no","no","0","j","f","space","NA","right","right","j","782","1266","35741","NA","43010","5415","782","2","legacy","1024","1","44100","-16","experiment","fesal","2","2","1","0","1","Engl, dutch","37","","odd","341530","305238","NA","NA","342797","341526","NA","83049","341033","83049","83049","222374","265388","425580","424077","426364","275303","271077","305238","NA","132439","213385","303564","270865","341530","271081","NA","425580","425580","NA","NA","424073","NAP perception","22","30181","30","yes","1024"
"74.1935483871","yes","74.1935483871","997.709677419","997.709677419","white","no","xpyriment","Ich habe die obigen Informationen gelesen und verstanden.","legacy","legacy","0","uniform","1","0","0","undefined","undefined","1","f","2","1","NA","0","1","0","0","0","0","0","0","0","0","40","40","40","0","0","0","NA","0","0","2","0","0","0","2","40","40","40","40","40","Fri Nov  3 10:23:56 2017","Forced-choice identification task with a practice and an experimental phase","yes","NAP_GER_AA_4blocks_noglides.osexp","/Users/aviadalbert/Documents/Academisch/UoC/Dissertation/Experiment/OpenSesame/NAP-FC/NAP_GER_AA_4blocks_noglides","yes","no","sans","no","20","no","black","no","Weiter","yes","768","legacy","30","9","0","/Users/aviadalbert/Documents/Academisch/UoC/Dissertation/Experiment/OpenSesame/NAP-FC/NAP_GER_AA_4blocks_noglides/subject-37.csv","xpyriment","Jazzy James","3.1.9","yes","yes","59a800d99ad5a1025d81bb03","59a801616c613b0251691de0","no","no","0","f","f","space","NA","right","right","f","748","1266","35741","NA","43010","5415","748","2","legacy","1024","1","44100","-16","experiment","zval","2","2","1","0","1","Engl, dutch","37","","odd","341530","305238","NA","NA","342797","341526","NA","83049","341033","83049","83049","222374","265388","428132","426629","428882","275303","271077","305238","NA","132439","213385","303564","270865","341530","271081","NA","428132","428132","NA","NA","426625","NAP perception","23","30929","31","yes","1024"
"71.875","yes","71.875","1003.5625","1003.5625","white","no","xpyriment","Ich habe die obigen Informationen gelesen und verstanden.","legacy","legacy","0","uniform","0","0","0","undefined","undefined","0","f","2","1","NA","0","1","0","0","0","0","0","0","0","0","41","41","41","0","0","0","NA","0","0","2","0","0","0","2","41","41","41","41","41","Fri Nov  3 10:23:56 2017","Forced-choice identification task with a practice and an experimental phase","yes","NAP_GER_AA_4blocks_noglides.osexp","/Users/aviadalbert/Documents/Academisch/UoC/Dissertation/Experiment/OpenSesame/NAP-FC/NAP_GER_AA_4blocks_noglides","yes","no","sans","no","20","no","black","no","Weiter","yes","768","legacy","31","9","0","/Users/aviadalbert/Documents/Academisch/UoC/Dissertation/Experiment/OpenSesame/NAP-FC/NAP_GER_AA_4blocks_noglides/subject-37.csv","xpyriment","Jazzy James","3.1.9","yes","yes","59a800d99ad5a1025d81bb03","59a801616c613b0251691de0","no","no","0","j","f","space","NA","right","right","j","1185","1266","35741","NA","43010","5415","1185","2","legacy","1024","1","44100","-16","experiment","mtal","2","2","1","0","1","Engl, dutch","37","","odd","341530","305238","NA","NA","342797","341526","NA","83049","341033","83049","83049","222374","265388","430663","429158","431850","275303","271077","305238","NA","132439","213385","303564","270865","341530","271081","NA","430663","430663","NA","NA","429154","NAP perception","23","32114","32","yes","1024"
"72.7272727273","yes","72.7272727273","996.606060606","996.606060606","white","no","xpyriment","Ich habe die obigen Informationen gelesen und verstanden.","legacy","legacy","0","uniform","1","0","0","undefined","undefined","1","j","2","1","NA","0","1","0","0","0","0","0","0","0","0","42","42","42","0","0","0","NA","0","0","2","0","0","0","2","42","42","42","42","42","Fri Nov  3 10:23:56 2017","Forced-choice identification task with a practice and an experimental phase","yes","NAP_GER_AA_4blocks_noglides.osexp","/Users/aviadalbert/Documents/Academisch/UoC/Dissertation/Experiment/OpenSesame/NAP-FC/NAP_GER_AA_4blocks_noglides","yes","no","sans","no","20","no","black","no","Weiter","yes","768","legacy","32","9","0","/Users/aviadalbert/Documents/Academisch/UoC/Dissertation/Experiment/OpenSesame/NAP-FC/NAP_GER_AA_4blocks_noglides/subject-37.csv","xpyriment","Jazzy James","3.1.9","yes","yes","59a800d99ad5a1025d81bb03","59a801616c613b0251691de0","no","no","0","j","f","space","NA","right","right","j","774","1266","35741","NA","43010","5415","774","2","legacy","1024","1","44100","-16","experiment","eʃmal","2","2","1","0","1","Engl, dutch","37","","odd","341530","305238","NA","NA","342797","341526","NA","83049","341033","83049","83049","222374","265388","433637","432134","434412","275303","271077","305238","NA","132439","213385","303564","270865","341530","271081","NA","433637","433637","NA","NA","432130","NAP perception","24","32888","33","yes","1024"
"70.5882352941","yes","70.5882352941","999.588235294","999.588235294","white","no","xpyriment","Ich habe die obigen Informationen gelesen und verstanden.","legacy","legacy","0","uniform","0","0","0","undefined","undefined","0","f","2","1","NA","0","1","0","0","0","0","0","0","0","0","43","43","43","0","0","0","NA","0","0","2","0","0","0","2","43","43","43","43","43","Fri Nov  3 10:23:56 2017","Forced-choice identification task with a practice and an experimental phase","yes","NAP_GER_AA_4blocks_noglides.osexp","/Users/aviadalbert/Documents/Academisch/UoC/Dissertation/Experiment/OpenSesame/NAP-FC/NAP_GER_AA_4blocks_noglides","yes","no","sans","no","20","no","black","no","Weiter","yes","768","legacy","33","9","0","/Users/aviadalbert/Documents/Academisch/UoC/Dissertation/Experiment/OpenSesame/NAP-FC/NAP_GER_AA_4blocks_noglides/subject-37.csv","xpyriment","Jazzy James","3.1.9","yes","yes","59a800d99ad5a1025d81bb03","59a801616c613b0251691de0","no","no","0","j","f","space","NA","right","right","j","1098","1266","35741","NA","43010","5415","1098","2","legacy","1024","1","44100","-16","experiment","mzal","2","2","1","0","1","Engl, dutch","37","","odd","341530","305238","NA","NA","342797","341526","NA","83049","341033","83049","83049","222374","265388","436204","434699","437303","275303","271077","305238","NA","132439","213385","303564","270865","341530","271081","NA","436204","436204","NA","NA","434695","NAP perception","24","33986","34","yes","1024"
"71.4285714286","yes","71.4285714286","995.028571429","995.028571429","white","no","xpyriment","Ich habe die obigen Informationen gelesen und verstanden.","legacy","legacy","0","uniform","1","0","0","undefined","undefined","1","j","2","1","NA","0","1","0","0","0","0","0","0","0","0","44","44","44","0","0","0","NA","0","0","2","0","0","0","2","44","44","44","44","44","Fri Nov  3 10:23:56 2017","Forced-choice identification task with a practice and an experimental phase","yes","NAP_GER_AA_4blocks_noglides.osexp","/Users/aviadalbert/Documents/Academisch/UoC/Dissertation/Experiment/OpenSesame/NAP-FC/NAP_GER_AA_4blocks_noglides","yes","no","sans","no","20","no","black","no","Weiter","yes","768","legacy","34","9","0","/Users/aviadalbert/Documents/Academisch/UoC/Dissertation/Experiment/OpenSesame/NAP-FC/NAP_GER_AA_4blocks_noglides/subject-37.csv","xpyriment","Jazzy James","3.1.9","yes","yes","59a800d99ad5a1025d81bb03","59a801616c613b0251691de0","no","no","0","j","f","space","NA","right","right","j","840","1266","35741","NA","43010","5415","840","2","legacy","1024","1","44100","-16","experiment","eʃfal","2","2","1","0","1","Engl, dutch","37","","odd","341530","305238","NA","NA","342797","341526","NA","83049","341033","83049","83049","222374","265388","439072","437569","439913","275303","271077","305238","NA","132439","213385","303564","270865","341530","271081","NA","439072","439072","NA","NA","437565","NAP perception","25","34826","35","yes","1024"
"72.2222222222","yes","72.2222222222","999.194444444","999.194444444","white","no","xpyriment","Ich habe die obigen Informationen gelesen und verstanden.","legacy","legacy","0","uniform","1","0","0","undefined","undefined","1","j","2","1","NA","0","1","0","0","0","0","0","0","0","0","45","45","45","0","0","0","NA","0","0","2","0","0","0","2","45","45","45","45","45","Fri Nov  3 10:23:56 2017","Forced-choice identification task with a practice and an experimental phase","yes","NAP_GER_AA_4blocks_noglides.osexp","/Users/aviadalbert/Documents/Academisch/UoC/Dissertation/Experiment/OpenSesame/NAP-FC/NAP_GER_AA_4blocks_noglides","yes","no","sans","no","20","no","black","no","Weiter","yes","768","legacy","35","9","0","/Users/aviadalbert/Documents/Academisch/UoC/Dissertation/Experiment/OpenSesame/NAP-FC/NAP_GER_AA_4blocks_noglides/subject-37.csv","xpyriment","Jazzy James","3.1.9","yes","yes","59a800d99ad5a1025d81bb03","59a801616c613b0251691de0","no","no","0","j","f","space","NA","right","right","j","1145","1266","35741","NA","43010","5415","1145","2","legacy","1024","1","44100","-16","experiment","evlal","2","2","1","0","1","Engl, dutch","37","","odd","341530","305238","NA","NA","342797","341526","NA","83049","341033","83049","83049","222374","265388","441690","440182","442836","275303","271077","305238","NA","132439","213385","303564","270865","341530","271081","NA","441689","441690","NA","NA","440178","NAP perception","26","35971","36","yes","1024"
"72.972972973","yes","72.972972973","1000.18918919","1000.18918919","white","no","xpyriment","Ich habe die obigen Informationen gelesen und verstanden.","legacy","legacy","0","uniform","1","0","0","undefined","undefined","1","j","2","1","NA","0","1","0","0","0","0","0","0","0","0","46","46","46","0","0","0","NA","0","0","2","0","0","0","2","46","46","46","46","46","Fri Nov  3 10:23:56 2017","Forced-choice identification task with a practice and an experimental phase","yes","NAP_GER_AA_4blocks_noglides.osexp","/Users/aviadalbert/Documents/Academisch/UoC/Dissertation/Experiment/OpenSesame/NAP-FC/NAP_GER_AA_4blocks_noglides","yes","no","sans","no","20","no","black","no","Weiter","yes","768","legacy","36","9","0","/Users/aviadalbert/Documents/Academisch/UoC/Dissertation/Experiment/OpenSesame/NAP-FC/NAP_GER_AA_4blocks_noglides/subject-37.csv","xpyriment","Jazzy James","3.1.9","yes","yes","59a800d99ad5a1025d81bb03","59a801616c613b0251691de0","no","no","0","j","f","space","NA","right","right","j","1036","1266","35741","NA","43010","5415","1036","2","legacy","1024","1","44100","-16","experiment","fenal","2","2","1","0","1","Engl, dutch","37","","odd","341530","305238","NA","NA","342797","341526","NA","83049","341033","83049","83049","222374","265388","444620","443116","445658","275303","271077","305238","NA","132439","213385","303564","270865","341530","271081","NA","444619","444620","NA","NA","443112","NAP perception","27","37007","37","yes","1024"
"73.6842105263","yes","73.6842105263","994.578947368","994.578947368","white","no","xpyriment","Ich habe die obigen Informationen gelesen und verstanden.","legacy","legacy","0","uniform","1","0","0","undefined","undefined","1","j","2","1","NA","0","1","0","0","0","0","0","0","0","0","47","47","47","0","0","0","NA","0","0","2","0","0","0","2","47","47","47","47","47","Fri Nov  3 10:23:56 2017","Forced-choice identification task with a practice and an experimental phase","yes","NAP_GER_AA_4blocks_noglides.osexp","/Users/aviadalbert/Documents/Academisch/UoC/Dissertation/Experiment/OpenSesame/NAP-FC/NAP_GER_AA_4blocks_noglides","yes","no","sans","no","20","no","black","no","Weiter","yes","768","legacy","37","9","0","/Users/aviadalbert/Documents/Academisch/UoC/Dissertation/Experiment/OpenSesame/NAP-FC/NAP_GER_AA_4blocks_noglides/subject-37.csv","xpyriment","Jazzy James","3.1.9","yes","yes","59a800d99ad5a1025d81bb03","59a801616c613b0251691de0","no","no","0","j","f","space","NA","right","right","j","787","1266","35741","NA","43010","5415","787","2","legacy","1024","1","44100","-16","experiment","espal","2","2","1","0","1","Engl, dutch","37","","odd","341530","305238","NA","NA","342797","341526","NA","83049","341033","83049","83049","222374","265388","447437","445931","448226","275303","271077","305238","NA","132439","213385","303564","270865","341530","271081","NA","447436","447437","NA","NA","445927","NAP perception","28","37794","38","yes","1024"
"74.358974359","yes","74.358974359","989.179487179","989.179487179","white","no","xpyriment","Ich habe die obigen Informationen gelesen und verstanden.","legacy","legacy","0","uniform","1","0","0","undefined","undefined","1","j","2","1","NA","0","1","0","0","0","0","0","0","0","0","48","48","48","0","0","0","NA","0","0","2","0","0","0","2","48","48","48","48","48","Fri Nov  3 10:23:56 2017","Forced-choice identification task with a practice and an experimental phase","yes","NAP_GER_AA_4blocks_noglides.osexp","/Users/aviadalbert/Documents/Academisch/UoC/Dissertation/Experiment/OpenSesame/NAP-FC/NAP_GER_AA_4blocks_noglides","yes","no","sans","no","20","no","black","no","Weiter","yes","768","legacy","38","9","0","/Users/aviadalbert/Documents/Academisch/UoC/Dissertation/Experiment/OpenSesame/NAP-FC/NAP_GER_AA_4blocks_noglides/subject-37.csv","xpyriment","Jazzy James","3.1.9","yes","yes","59a800d99ad5a1025d81bb03","59a801616c613b0251691de0","no","no","0","j","f","space","NA","right","right","j","784","1266","35741","NA","43010","5415","784","2","legacy","1024","1","44100","-16","experiment","emtal","2","2","1","0","1","Engl, dutch","37","","odd","341530","305238","NA","NA","342797","341526","NA","83049","341033","83049","83049","222374","265388","450007","448504","450793","275303","271077","305238","NA","132439","213385","303564","270865","341530","271081","NA","450007","450007","NA","NA","448500","NAP perception","29","38578","39","yes","1024"
"75","yes","75","993.35","993.35","white","no","xpyriment","Ich habe die obigen Informationen gelesen und verstanden.","legacy","legacy","0","uniform","1","0","0","undefined","undefined","1","j","2","1","NA","0","1","0","0","0","0","0","0","0","0","49","49","49","0","0","0","NA","0","0","2","0","0","0","2","49","49","49","49","49","Fri Nov  3 10:23:56 2017","Forced-choice identification task with a practice and an experimental phase","yes","NAP_GER_AA_4blocks_noglides.osexp","/Users/aviadalbert/Documents/Academisch/UoC/Dissertation/Experiment/OpenSesame/NAP-FC/NAP_GER_AA_4blocks_noglides","yes","no","sans","no","20","no","black","no","Weiter","yes","768","legacy","39","9","0","/Users/aviadalbert/Documents/Academisch/UoC/Dissertation/Experiment/OpenSesame/NAP-FC/NAP_GER_AA_4blocks_noglides/subject-37.csv","xpyriment","Jazzy James","3.1.9","yes","yes","59a800d99ad5a1025d81bb03","59a801616c613b0251691de0","no","no","0","j","f","space","NA","right","right","j","1156","1266","35741","NA","43010","5415","1156","2","legacy","1024","1","44100","-16","experiment","menal","2","2","1","0","1","Engl, dutch","37","","odd","341530","305238","NA","NA","342797","341526","NA","83049","341033","83049","83049","222374","265388","452568","451062","453726","275303","271077","305238","NA","132439","213385","303564","270865","341530","271081","NA","452568","452568","NA","NA","451058","NAP perception","30","39734","40","yes","1024"
"75.6097560976","yes","75.6097560976","988.512195122","988.512195122","white","no","xpyriment","Ich habe die obigen Informationen gelesen und verstanden.","legacy","legacy","0","uniform","1","0","0","undefined","undefined","1","f","2","1","NA","0","1","0","0","0","0","0","0","0","0","50","50","50","0","0","0","NA","0","0","2","0","0","0","2","50","50","50","50","50","Fri Nov  3 10:23:56 2017","Forced-choice identification task with a practice and an experimental phase","yes","NAP_GER_AA_4blocks_noglides.osexp","/Users/aviadalbert/Documents/Academisch/UoC/Dissertation/Experiment/OpenSesame/NAP-FC/NAP_GER_AA_4blocks_noglides","yes","no","sans","no","20","no","black","no","Weiter","yes","768","legacy","40","9","0","/Users/aviadalbert/Documents/Academisch/UoC/Dissertation/Experiment/OpenSesame/NAP-FC/NAP_GER_AA_4blocks_noglides/subject-37.csv","xpyriment","Jazzy James","3.1.9","yes","yes","59a800d99ad5a1025d81bb03","59a801616c613b0251691de0","no","no","0","f","f","space","NA","right","right","f","795","1266","35741","NA","43010","5415","795","2","legacy","1024","1","44100","-16","experiment","fnal","2","2","1","0","1","Engl, dutch","37","","odd","341530","305238","NA","NA","342797","341526","NA","83049","341033","83049","83049","222374","265388","455498","453991","456295","275303","271077","305238","NA","132439","213385","303564","270865","341530","271081","NA","455497","455498","NA","NA","453987","NAP perception","31","40529","41","yes","1024"
"76.1904761905","yes","76.1904761905","998.666666667","998.666666667","white","no","xpyriment","Ich habe die obigen Informationen gelesen und verstanden.","legacy","legacy","0","uniform","1","0","0","undefined","undefined","1","f","2","1","NA","0","1","0","0","0","0","0","0","0","0","51","51","51","0","0","0","NA","0","0","2","0","0","0","2","51","51","51","51","51","Fri Nov  3 10:23:56 2017","Forced-choice identification task with a practice and an experimental phase","yes","NAP_GER_AA_4blocks_noglides.osexp","/Users/aviadalbert/Documents/Academisch/UoC/Dissertation/Experiment/OpenSesame/NAP-FC/NAP_GER_AA_4blocks_noglides","yes","no","sans","no","20","no","black","no","Weiter","yes","768","legacy","41","9","0","/Users/aviadalbert/Documents/Academisch/UoC/Dissertation/Experiment/OpenSesame/NAP-FC/NAP_GER_AA_4blocks_noglides/subject-37.csv","xpyriment","Jazzy James","3.1.9","yes","yes","59a800d99ad5a1025d81bb03","59a801616c613b0251691de0","no","no","0","f","f","space","NA","right","right","f","1415","1266","35741","NA","43010","5415","1415","2","legacy","1024","1","44100","-16","experiment","vzal","2","2","1","0","1","Engl, dutch","37","","odd","341530","305238","NA","NA","342797","341526","NA","83049","341033","83049","83049","222374","265388","458087","456584","459504","275303","271077","305238","NA","132439","213385","303564","270865","341530","271081","NA","458087","458087","NA","NA","456580","NAP perception","32","41944","42","yes","1024"
"76.7441860465","yes","76.7441860465","991.558139535","991.558139535","white","no","xpyriment","Ich habe die obigen Informationen gelesen und verstanden.","legacy","legacy","0","uniform","1","0","0","undefined","undefined","1","j","2","1","NA","0","1","0","0","0","0","0","0","0","0","52","52","52","0","0","0","NA","0","0","2","0","0","0","2","52","52","52","52","52","Fri Nov  3 10:23:56 2017","Forced-choice identification task with a practice and an experimental phase","yes","NAP_GER_AA_4blocks_noglides.osexp","/Users/aviadalbert/Documents/Academisch/UoC/Dissertation/Experiment/OpenSesame/NAP-FC/NAP_GER_AA_4blocks_noglides","yes","no","sans","no","20","no","black","no","Weiter","yes","768","legacy","42","9","0","/Users/aviadalbert/Documents/Academisch/UoC/Dissertation/Experiment/OpenSesame/NAP-FC/NAP_GER_AA_4blocks_noglides/subject-37.csv","xpyriment","Jazzy James","3.1.9","yes","yes","59a800d99ad5a1025d81bb03","59a801616c613b0251691de0","no","no","0","j","f","space","NA","right","right","j","693","1266","35741","NA","43010","5415","693","2","legacy","1024","1","44100","-16","experiment","esmal","2","2","1","0","1","Engl, dutch","37","","odd","341530","305238","NA","NA","342797","341526","NA","83049","341033","83049","83049","222374","265388","461287","459784","461981","275303","271077","305238","NA","132439","213385","303564","270865","341530","271081","NA","461287","461287","NA","NA","459780","NAP perception","33","42637","43","yes","1024"
"77.2727272727","yes","77.2727272727","1000.75","1000.75","white","no","xpyriment","Ich habe die obigen Informationen gelesen und verstanden.","legacy","legacy","0","uniform","1","0","0","undefined","undefined","1","f","2","1","NA","0","1","0","0","0","0","0","0","0","0","53","53","53","0","0","0","NA","0","0","2","0","0","0","2","53","53","53","53","53","Fri Nov  3 10:23:56 2017","Forced-choice identification task with a practice and an experimental phase","yes","NAP_GER_AA_4blocks_noglides.osexp","/Users/aviadalbert/Documents/Academisch/UoC/Dissertation/Experiment/OpenSesame/NAP-FC/NAP_GER_AA_4blocks_noglides","yes","no","sans","no","20","no","black","no","Weiter","yes","768","legacy","43","9","0","/Users/aviadalbert/Documents/Academisch/UoC/Dissertation/Experiment/OpenSesame/NAP-FC/NAP_GER_AA_4blocks_noglides/subject-37.csv","xpyriment","Jazzy James","3.1.9","yes","yes","59a800d99ad5a1025d81bb03","59a801616c613b0251691de0","no","no","0","f","f","space","NA","right","right","f","1396","1266","35741","NA","43010","5415","1396","2","legacy","1024","1","44100","-16","experiment","ʃfal","2","2","1","0","1","Engl, dutch","37","","odd","341530","305238","NA","NA","342797","341526","NA","83049","341033","83049","83049","222374","265388","463755","462250","465152","275303","271077","305238","NA","132439","213385","303564","270865","341530","271081","NA","463755","463755","NA","NA","462246","NAP perception","34","44033","44","yes","1024"
"77.7777777778","yes","77.7777777778","1000.06666667","1000.06666667","white","no","xpyriment","Ich habe die obigen Informationen gelesen und verstanden.","legacy","legacy","0","uniform","1","0","0","undefined","undefined","1","j","2","1","NA","0","1","0","0","0","0","0","0","0","0","54","54","54","0","0","0","NA","0","0","2","0","0","0","2","54","54","54","54","54","Fri Nov  3 10:23:56 2017","Forced-choice identification task with a practice and an experimental phase","yes","NAP_GER_AA_4blocks_noglides.osexp","/Users/aviadalbert/Documents/Academisch/UoC/Dissertation/Experiment/OpenSesame/NAP-FC/NAP_GER_AA_4blocks_noglides","yes","no","sans","no","20","no","black","no","Weiter","yes","768","legacy","44","9","0","/Users/aviadalbert/Documents/Academisch/UoC/Dissertation/Experiment/OpenSesame/NAP-FC/NAP_GER_AA_4blocks_noglides/subject-37.csv","xpyriment","Jazzy James","3.1.9","yes","yes","59a800d99ad5a1025d81bb03","59a801616c613b0251691de0","no","no","0","j","f","space","NA","right","right","j","970","1266","35741","NA","43010","5415","970","2","legacy","1024","1","44100","-16","experiment","lepal","2","2","1","0","1","Engl, dutch","37","","odd","341530","305238","NA","NA","342797","341526","NA","83049","341033","83049","83049","222374","265388","466934","465430","467905","275303","271077","305238","NA","132439","213385","303564","270865","341530","271081","NA","466934","466934","NA","NA","465427","NAP perception","35","45003","45","yes","1024"
"78.2608695652","yes","78.2608695652","993.804347826","993.804347826","white","no","xpyriment","Ich habe die obigen Informationen gelesen und verstanden.","legacy","legacy","0","uniform","1","0","0","undefined","undefined","1","j","2","1","NA","0","1","0","0","0","0","0","0","0","0","55","55","55","0","0","0","NA","0","0","2","0","0","0","2","55","55","55","55","55","Fri Nov  3 10:23:56 2017","Forced-choice identification task with a practice and an experimental phase","yes","NAP_GER_AA_4blocks_noglides.osexp","/Users/aviadalbert/Documents/Academisch/UoC/Dissertation/Experiment/OpenSesame/NAP-FC/NAP_GER_AA_4blocks_noglides","yes","no","sans","no","20","no","black","no","Weiter","yes","768","legacy","45","9","0","/Users/aviadalbert/Documents/Academisch/UoC/Dissertation/Experiment/OpenSesame/NAP-FC/NAP_GER_AA_4blocks_noglides/subject-37.csv","xpyriment","Jazzy James","3.1.9","yes","yes","59a800d99ad5a1025d81bb03","59a801616c613b0251691de0","no","no","0","j","f","space","NA","right","right","j","712","1266","35741","NA","43010","5415","712","2","legacy","1024","1","44100","-16","experiment","ezmal","2","2","1","0","1","Engl, dutch","37","","odd","341530","305238","NA","NA","342797","341526","NA","83049","341033","83049","83049","222374","265388","469704","468196","470418","275303","271077","305238","NA","132439","213385","303564","270865","341530","271081","NA","469704","469704","NA","NA","468192","NAP perception","36","45715","46","yes","1024"
"78.7234042553","yes","78.7234042553","988.553191489","988.553191489","white","no","xpyriment","Ich habe die obigen Informationen gelesen und verstanden.","legacy","legacy","0","uniform","1","0","0","undefined","undefined","1","j","2","1","NA","0","1","0","0","0","0","0","0","0","0","56","56","56","0","0","0","NA","0","0","2","0","0","0","2","56","56","56","56","56","Fri Nov  3 10:23:56 2017","Forced-choice identification task with a practice and an experimental phase","yes","NAP_GER_AA_4blocks_noglides.osexp","/Users/aviadalbert/Documents/Academisch/UoC/Dissertation/Experiment/OpenSesame/NAP-FC/NAP_GER_AA_4blocks_noglides","yes","no","sans","no","20","no","black","no","Weiter","yes","768","legacy","46","9","0","/Users/aviadalbert/Documents/Academisch/UoC/Dissertation/Experiment/OpenSesame/NAP-FC/NAP_GER_AA_4blocks_noglides/subject-37.csv","xpyriment","Jazzy James","3.1.9","yes","yes","59a800d99ad5a1025d81bb03","59a801616c613b0251691de0","no","no","0","j","f","space","NA","right","right","j","747","1266","35741","NA","43010","5415","747","2","legacy","1024","1","44100","-16","experiment","elkal","2","2","1","0","1","Engl, dutch","37","","odd","341530","305238","NA","NA","342797","341526","NA","83049","341033","83049","83049","222374","265388","472200","470695","472948","275303","271077","305238","NA","132439","213385","303564","270865","341530","271081","NA","472200","472200","NA","NA","470691","NAP perception","37","46462","47","yes","1024"
"79.1666666667","yes","79.1666666667","988.520833333","988.520833333","white","no","xpyriment","Ich habe die obigen Informationen gelesen und verstanden.","legacy","legacy","0","uniform","1","0","0","undefined","undefined","1","f","2","1","NA","0","1","0","0","0","0","0","0","0","0","57","57","57","0","0","0","NA","0","0","2","0","0","0","2","57","57","57","57","57","Fri Nov  3 10:23:56 2017","Forced-choice identification task with a practice and an experimental phase","yes","NAP_GER_AA_4blocks_noglides.osexp","/Users/aviadalbert/Documents/Academisch/UoC/Dissertation/Experiment/OpenSesame/NAP-FC/NAP_GER_AA_4blocks_noglides","yes","no","sans","no","20","no","black","no","Weiter","yes","768","legacy","47","9","0","/Users/aviadalbert/Documents/Academisch/UoC/Dissertation/Experiment/OpenSesame/NAP-FC/NAP_GER_AA_4blocks_noglides/subject-37.csv","xpyriment","Jazzy James","3.1.9","yes","yes","59a800d99ad5a1025d81bb03","59a801616c613b0251691de0","no","no","0","f","f","space","NA","right","right","f","987","1266","35741","NA","43010","5415","987","2","legacy","1024","1","44100","-16","experiment","fsal","2","2","1","0","1","Engl, dutch","37","","odd","341530","305238","NA","NA","342797","341526","NA","83049","341033","83049","83049","222374","265388","474724","473219","475713","275303","271077","305238","NA","132439","213385","303564","270865","341530","271081","NA","474723","474724","NA","NA","473216","NAP perception","38","47449","48","yes","1024"
"77.5510204082","yes","77.5510204082","996.265306122","996.265306122","white","no","xpyriment","Ich habe die obigen Informationen gelesen und verstanden.","legacy","legacy","0","uniform","0","0","0","undefined","undefined","0","f","2","1","NA","0","1","0","0","0","0","0","0","0","0","58","58","58","0","0","0","NA","0","0","2","0","0","0","2","58","58","58","58","58","Fri Nov  3 10:23:56 2017","Forced-choice identification task with a practice and an experimental phase","yes","NAP_GER_AA_4blocks_noglides.osexp","/Users/aviadalbert/Documents/Academisch/UoC/Dissertation/Experiment/OpenSesame/NAP-FC/NAP_GER_AA_4blocks_noglides","yes","no","sans","no","20","no","black","no","Weiter","yes","768","legacy","48","9","0","/Users/aviadalbert/Documents/Academisch/UoC/Dissertation/Experiment/OpenSesame/NAP-FC/NAP_GER_AA_4blocks_noglides/subject-37.csv","xpyriment","Jazzy James","3.1.9","yes","yes","59a800d99ad5a1025d81bb03","59a801616c613b0251691de0","no","no","0","j","f","space","NA","right","right","j","1368","1266","35741","NA","43010","5415","1368","2","legacy","1024","1","44100","-16","experiment","msal","2","2","1","0","1","Engl, dutch","37","","odd","341530","305238","NA","NA","342797","341526","NA","83049","341033","83049","83049","222374","265388","477495","475992","478865","275303","271077","305238","NA","132439","213385","303564","270865","341530","271081","NA","477495","477495","NA","NA","475988","NAP perception","38","48817","49","yes","1024"
"76","yes","76","1005.22","1005.22","white","no","xpyriment","Ich habe die obigen Informationen gelesen und verstanden.","legacy","legacy","0","uniform","0","0","0","undefined","undefined","0","f","2","1","NA","0","1","0","0","0","0","0","0","0","0","59","59","59","0","0","0","NA","0","0","2","0","0","0","2","59","59","59","59","59","Fri Nov  3 10:23:56 2017","Forced-choice identification task with a practice and an experimental phase","yes","NAP_GER_AA_4blocks_noglides.osexp","/Users/aviadalbert/Documents/Academisch/UoC/Dissertation/Experiment/OpenSesame/NAP-FC/NAP_GER_AA_4blocks_noglides","yes","no","sans","no","20","no","black","no","Weiter","yes","768","legacy","49","9","0","/Users/aviadalbert/Documents/Academisch/UoC/Dissertation/Experiment/OpenSesame/NAP-FC/NAP_GER_AA_4blocks_noglides/subject-37.csv","xpyriment","Jazzy James","3.1.9","yes","yes","59a800d99ad5a1025d81bb03","59a801616c613b0251691de0","no","no","0","j","f","space","NA","right","right","j","1444","1266","35741","NA","43010","5415","1444","2","legacy","1024","1","44100","-16","experiment","nmal","2","2","1","0","1","Engl, dutch","37","","odd","341530","305238","NA","NA","342797","341526","NA","83049","341033","83049","83049","222374","265388","480641","479135","482087","275303","271077","305238","NA","132439","213385","303564","270865","341530","271081","NA","480641","480641","NA","NA","479131","NAP perception","38","50261","50","yes","1024"
"76.4705882353","yes","76.4705882353","1004.78431373","1004.78431373","white","no","xpyriment","Ich habe die obigen Informationen gelesen und verstanden.","legacy","legacy","0","uniform","1","0","0","undefined","undefined","1","f","2","1","NA","0","1","0","0","0","0","0","0","0","0","60","60","60","0","0","0","NA","0","0","2","0","0","0","2","60","60","60","60","60","Fri Nov  3 10:23:56 2017","Forced-choice identification task with a practice and an experimental phase","yes","NAP_GER_AA_4blocks_noglides.osexp","/Users/aviadalbert/Documents/Academisch/UoC/Dissertation/Experiment/OpenSesame/NAP-FC/NAP_GER_AA_4blocks_noglides","yes","no","sans","no","20","no","black","no","Weiter","yes","768","legacy","50","9","0","/Users/aviadalbert/Documents/Academisch/UoC/Dissertation/Experiment/OpenSesame/NAP-FC/NAP_GER_AA_4blocks_noglides/subject-37.csv","xpyriment","Jazzy James","3.1.9","yes","yes","59a800d99ad5a1025d81bb03","59a801616c613b0251691de0","no","no","0","f","f","space","NA","right","right","f","983","1266","35741","NA","43010","5415","983","2","legacy","1024","1","44100","-16","experiment","ʃmal","2","2","1","0","1","Engl, dutch","37","","odd","341530","305238","NA","NA","342797","341526","NA","83049","341033","83049","83049","222374","265388","483880","482377","484865","275303","271077","305238","NA","132439","213385","303564","270865","341530","271081","NA","483880","483880","NA","NA","482373","NAP perception","39","51244","51","yes","1024"
"76.9230769231","yes","76.9230769231","1008.94230769","1008.94230769","white","no","xpyriment","Ich habe die obigen Informationen gelesen und verstanden.","legacy","legacy","0","uniform","1","0","0","undefined","undefined","1","j","2","1","NA","0","1","0","0","0","0","0","0","0","0","61","61","61","0","0","0","NA","0","0","2","0","0","0","2","61","61","61","61","61","Fri Nov  3 10:23:56 2017","Forced-choice identification task with a practice and an experimental phase","yes","NAP_GER_AA_4blocks_noglides.osexp","/Users/aviadalbert/Documents/Academisch/UoC/Dissertation/Experiment/OpenSesame/NAP-FC/NAP_GER_AA_4blocks_noglides","yes","no","sans","no","20","no","black","no","Weiter","yes","768","legacy","51","9","0","/Users/aviadalbert/Documents/Academisch/UoC/Dissertation/Experiment/OpenSesame/NAP-FC/NAP_GER_AA_4blocks_noglides/subject-37.csv","xpyriment","Jazzy James","3.1.9","yes","yes","59a800d99ad5a1025d81bb03","59a801616c613b0251691de0","no","no","0","j","f","space","NA","right","right","j","1221","1266","35741","NA","43010","5415","1221","2","legacy","1024","1","44100","-16","experiment","eflal","2","2","1","0","1","Engl, dutch","37","","odd","341530","305238","NA","NA","342797","341526","NA","83049","341033","83049","83049","222374","265388","486640","485135","487863","275303","271077","305238","NA","132439","213385","303564","270865","341530","271081","NA","486640","486640","NA","NA","485131","NAP perception","40","52465","52","yes","1024"
"75.4716981132","yes","75.4716981132","1030.54716981","1030.54716981","white","no","xpyriment","Ich habe die obigen Informationen gelesen und verstanden.","legacy","legacy","0","uniform","0","0","0","undefined","undefined","0","f","2","1","NA","0","1","0","0","0","0","0","0","0","0","62","62","62","0","0","0","NA","0","0","2","0","0","0","2","62","62","62","62","62","Fri Nov  3 10:23:56 2017","Forced-choice identification task with a practice and an experimental phase","yes","NAP_GER_AA_4blocks_noglides.osexp","/Users/aviadalbert/Documents/Academisch/UoC/Dissertation/Experiment/OpenSesame/NAP-FC/NAP_GER_AA_4blocks_noglides","yes","no","sans","no","20","no","black","no","Weiter","yes","768","legacy","52","9","0","/Users/aviadalbert/Documents/Academisch/UoC/Dissertation/Experiment/OpenSesame/NAP-FC/NAP_GER_AA_4blocks_noglides/subject-37.csv","xpyriment","Jazzy James","3.1.9","yes","yes","59a800d99ad5a1025d81bb03","59a801616c613b0251691de0","no","no","0","j","f","space","NA","right","right","j","2154","1266","35741","NA","43010","5415","2154","2","legacy","1024","1","44100","-16","experiment","lfal","2","2","1","0","1","Engl, dutch","37","","odd","341530","305238","NA","NA","342797","341526","NA","83049","341033","83049","83049","222374","265388","489642","488139","491797","275303","271077","305238","NA","132439","213385","303564","270865","341530","271081","NA","489642","489642","NA","NA","488135","NAP perception","40","54619","53","yes","1024"
"75.9259259259","yes","75.9259259259","1027.25925926","1027.25925926","white","no","xpyriment","Ich habe die obigen Informationen gelesen und verstanden.","legacy","legacy","0","uniform","1","0","0","undefined","undefined","1","j","2","1","NA","0","1","0","0","0","0","0","0","0","0","63","63","63","0","0","0","NA","0","0","2","0","0","0","2","63","63","63","63","63","Fri Nov  3 10:23:56 2017","Forced-choice identification task with a practice and an experimental phase","yes","NAP_GER_AA_4blocks_noglides.osexp","/Users/aviadalbert/Documents/Academisch/UoC/Dissertation/Experiment/OpenSesame/NAP-FC/NAP_GER_AA_4blocks_noglides","yes","no","sans","no","20","no","black","no","Weiter","yes","768","legacy","53","9","0","/Users/aviadalbert/Documents/Academisch/UoC/Dissertation/Experiment/OpenSesame/NAP-FC/NAP_GER_AA_4blocks_noglides/subject-37.csv","xpyriment","Jazzy James","3.1.9","yes","yes","59a800d99ad5a1025d81bb03","59a801616c613b0251691de0","no","no","0","j","f","space","NA","right","right","j","853","1266","35741","NA","43010","5415","853","2","legacy","1024","1","44100","-16","experiment","lekal","2","2","1","0","1","Engl, dutch","37","","odd","341530","305238","NA","NA","342797","341526","NA","83049","341033","83049","83049","222374","265388","493567","492062","494421","275303","271077","305238","NA","132439","213385","303564","270865","341530","271081","NA","493566","493567","NA","NA","492058","NAP perception","41","55472","54","yes","1024"
"76.3636363636","yes","76.3636363636","1026.61818182","1026.61818182","white","no","xpyriment","Ich habe die obigen Informationen gelesen und verstanden.","legacy","legacy","0","uniform","1","0","0","undefined","undefined","1","f","2","1","NA","0","1","0","0","0","0","0","0","0","0","64","64","64","0","0","0","NA","0","0","2","0","0","0","2","64","64","64","64","64","Fri Nov  3 10:23:56 2017","Forced-choice identification task with a practice and an experimental phase","yes","NAP_GER_AA_4blocks_noglides.osexp","/Users/aviadalbert/Documents/Academisch/UoC/Dissertation/Experiment/OpenSesame/NAP-FC/NAP_GER_AA_4blocks_noglides","yes","no","sans","no","20","no","black","no","Weiter","yes","768","legacy","54","9","0","/Users/aviadalbert/Documents/Academisch/UoC/Dissertation/Experiment/OpenSesame/NAP-FC/NAP_GER_AA_4blocks_noglides/subject-37.csv","xpyriment","Jazzy James","3.1.9","yes","yes","59a800d99ad5a1025d81bb03","59a801616c613b0251691de0","no","no","0","f","f","space","NA","right","right","f","992","1266","35741","NA","43010","5415","992","2","legacy","1024","1","44100","-16","experiment","ftal","2","2","1","0","1","Engl, dutch","37","","odd","341530","305238","NA","NA","342797","341526","NA","83049","341033","83049","83049","222374","265388","496214","494711","497207","275303","271077","305238","NA","132439","213385","303564","270865","341530","271081","NA","496214","496214","NA","NA","494707","NAP perception","42","56464","55","yes","1024"
"76.7857142857","yes","76.7857142857","1030.91071429","1030.91071429","white","no","xpyriment","Ich habe die obigen Informationen gelesen und verstanden.","legacy","legacy","0","uniform","1","0","0","undefined","undefined","1","f","2","1","NA","0","1","0","0","0","0","0","0","0","0","65","65","65","0","0","0","NA","0","0","2","0","0","0","2","65","65","65","65","65","Fri Nov  3 10:23:56 2017","Forced-choice identification task with a practice and an experimental phase","yes","NAP_GER_AA_4blocks_noglides.osexp","/Users/aviadalbert/Documents/Academisch/UoC/Dissertation/Experiment/OpenSesame/NAP-FC/NAP_GER_AA_4blocks_noglides","yes","no","sans","no","20","no","black","no","Weiter","yes","768","legacy","55","9","0","/Users/aviadalbert/Documents/Academisch/UoC/Dissertation/Experiment/OpenSesame/NAP-FC/NAP_GER_AA_4blocks_noglides/subject-37.csv","xpyriment","Jazzy James","3.1.9","yes","yes","59a800d99ad5a1025d81bb03","59a801616c613b0251691de0","no","no","0","f","f","space","NA","right","right","f","1267","1266","35741","NA","43010","5415","1267","2","legacy","1024","1","44100","-16","experiment","zmal","2","2","1","0","1","Engl, dutch","37","","odd","341530","305238","NA","NA","342797","341526","NA","83049","341033","83049","83049","222374","265388","498986","497479","500255","275303","271077","305238","NA","132439","213385","303564","270865","341530","271081","NA","498986","498986","NA","NA","497475","NAP perception","43","57731","56","yes","1024"
