"acc","accept_status","accuracy","average_response_time","avg_rt","background","bidi","canvas_backend","checkbox_status","clock_backend","color_backend","compensation","coordinates","correct","correct_block_activation","correct_block_exit","correct_instructions_1","correct_instructions_2","correct_keyboard_response","correct_response","count_block_activation","count_block_exit","count_block_info_QA","count_cont_e_block_message","count_e_block_loop","count_e_block_sequence","count_end_of_experiment","count_experiment","count_experimental_loop","count_form_consent","count_info_forms","count_instructions_1","count_instructions_2","count_keyboard_response","count_listen_message","count_logger","count_p_block_loop","count_p_block_sequence","count_p_feedback","count_pause_feedback","count_personal_details_form_1","count_personal_details_form_2","count_post_loop_blank","count_practice_loop","count_pre_e_block_message","count_pre_p_block_message","count_reset_feedback","count_stimulus_image","count_stimulus_sound","count_timeout_message","count_timeout_sound","count_trial_sequence","datetime","description","disable_garbage_collection","experiment_file","experiment_path","expyriment_opengl","font_bold","font_family","font_italic","font_size","font_underline","foreground","form_clicks","form_response","fullscreen","height","keyboard_backend","live_row","live_row_p_block_loop","live_row_practice_loop","logfile","mouse_backend","opensesame_codename","opensesame_version","osf_always_upload_data","osf_always_upload_experiment","osf_datanode_id","osf_id","practice","pygame_doublebuf","repeat_cycle","response","response_block_activation","response_block_exit","response_block_info_QA","response_instructions_1","response_instructions_2","response_keyboard_response","response_time","response_time_block_activation","response_time_block_exit","response_time_block_info_QA","response_time_instructions_1","response_time_instructions_2","response_time_keyboard_response","round_decimals","sampler_backend","sound_buf_size","sound_channels","sound_freq","sound_sample_size","start","stimulus","subject_age","subject_education","subject_gender","subject_german_native","subject_handedness","subject_language_other","subject_nr","subject_other_native_lang","subject_parity","time_block_activation","time_block_exit","time_block_info_QA","time_cont_e_block_message","time_e_block_loop","time_e_block_sequence","time_end_of_experiment","time_experiment","time_experimental_loop","time_form_consent","time_info_forms","time_instructions_1","time_instructions_2","time_keyboard_response","time_listen_message","time_logger","time_p_block_loop","time_p_block_sequence","time_p_feedback","time_pause_feedback","time_personal_details_form_1","time_personal_details_form_2","time_post_loop_blank","time_practice_loop","time_pre_e_block_message","time_pre_p_block_message","time_reset_feedback","time_stimulus_image","time_stimulus_sound","time_timeout_message","time_timeout_sound","time_trial_sequence","title","total_correct","total_response_time","total_responses","uniform_coordinates","width"
"100","yes","100","2327","2327","white","no","xpyriment","Ich habe die obigen Informationen gelesen und verstanden.","legacy","legacy","0","uniform","1","0","NA","undefined","undefined","1","f","0","0","NA","NA","NA","NA","NA","0","0","0","0","0","0","0","0","0","0","0","NA","NA","0","0","0","0","NA","0","0","0","0","0","0","0","Sat Nov 11 21:22:16 2017","Forced-choice identification task with a practice and an experimental phase","yes","NAP_GER_AA_4blocks_noglides.osexp","/Users/aviadalbert/Documents/Academisch/UoC/Dissertation/Experiment/OpenSesame/NAP-FC/NAP_GER_AA_4blocks_noglides","yes","no","sans","no","20","no","black","no","Weiter","yes","768","legacy","0","0","0","/Users/aviadalbert/Documents/Academisch/UoC/Dissertation/Experiment/OpenSesame/NAP-FC/NAP_GER_AA_4blocks_noglides/subject-50.csv","xpyriment","Jazzy James","3.1.9","yes","yes","59a800d99ad5a1025d81bb03","59a801616c613b0251691de0","yes","no","0","f","f","NA","NA","space","space","f","2327","2765","NA","NA","39382","12097","2327","2","legacy","1024","1","44100","-16","experiment","flal","3","2","0","0","1","Englisch","50","","even","7440899","NA","NA","NA","NA","NA","NA","7311729","NA","7311730","7311729","7389131","7428518","7445361","7443858","7447689","7443665","7440895","NA","NA","7328151","7370062","NA","7440684","NA","7440899","NA","7445361","7445361","NA","NA","7443854","NAP perception","1","2327","1","yes","1024"
"100","yes","100","1781.5","1781.5","white","no","xpyriment","Ich habe die obigen Informationen gelesen und verstanden.","legacy","legacy","0","uniform","1","0","NA","undefined","undefined","1","j","0","0","NA","NA","NA","NA","NA","0","0","0","0","0","0","1","1","1","0","0","NA","NA","0","0","0","0","NA","0","0","1","1","1","1","1","Sat Nov 11 21:22:16 2017","Forced-choice identification task with a practice and an experimental phase","yes","NAP_GER_AA_4blocks_noglides.osexp","/Users/aviadalbert/Documents/Academisch/UoC/Dissertation/Experiment/OpenSesame/NAP-FC/NAP_GER_AA_4blocks_noglides","yes","no","sans","no","20","no","black","no","Weiter","yes","768","legacy","1","1","0","/Users/aviadalbert/Documents/Academisch/UoC/Dissertation/Experiment/OpenSesame/NAP-FC/NAP_GER_AA_4blocks_noglides/subject-50.csv","xpyriment","Jazzy James","3.1.9","yes","yes","59a800d99ad5a1025d81bb03","59a801616c613b0251691de0","yes","no","0","j","f","NA","NA","space","space","j","1236","2765","NA","NA","39382","12097","1236","2","legacy","1024","1","44100","-16","experiment","lepal","3","2","0","0","1","Englisch","50","","even","7440899","NA","NA","NA","NA","NA","NA","7311729","NA","7311730","7311729","7389131","7428518","7449459","7447956","7450696","7443665","7440895","NA","NA","7328151","7370062","NA","7440684","NA","7440899","NA","7449459","7449459","NA","NA","7447952","NAP perception","2","3563","2","yes","1024"
"100","yes","100","1538.66666667","1538.66666667","white","no","xpyriment","Ich habe die obigen Informationen gelesen und verstanden.","legacy","legacy","0","uniform","1","0","NA","undefined","undefined","1","j","0","0","NA","NA","NA","NA","NA","0","0","0","0","0","0","2","2","2","0","0","NA","NA","0","0","0","0","NA","0","0","2","2","2","2","2","Sat Nov 11 21:22:16 2017","Forced-choice identification task with a practice and an experimental phase","yes","NAP_GER_AA_4blocks_noglides.osexp","/Users/aviadalbert/Documents/Academisch/UoC/Dissertation/Experiment/OpenSesame/NAP-FC/NAP_GER_AA_4blocks_noglides","yes","no","sans","no","20","no","black","no","Weiter","yes","768","legacy","2","2","0","/Users/aviadalbert/Documents/Academisch/UoC/Dissertation/Experiment/OpenSesame/NAP-FC/NAP_GER_AA_4blocks_noglides/subject-50.csv","xpyriment","Jazzy James","3.1.9","yes","yes","59a800d99ad5a1025d81bb03","59a801616c613b0251691de0","yes","no","0","j","f","NA","NA","space","space","j","1053","2765","NA","NA","39382","12097","1053","2","legacy","1024","1","44100","-16","experiment","emtal","3","2","0","0","1","Englisch","50","","even","7440899","NA","NA","NA","NA","NA","NA","7311729","NA","7311730","7311729","7389131","7428518","7452457","7450954","7453512","7443665","7440895","NA","NA","7328151","7370062","NA","7440684","NA","7440899","NA","7452457","7452457","NA","NA","7450950","NAP perception","3","4616","3","yes","1024"
"100","yes","100","1580.75","1580.75","white","no","xpyriment","Ich habe die obigen Informationen gelesen und verstanden.","legacy","legacy","0","uniform","1","0","NA","undefined","undefined","1","f","0","0","NA","NA","NA","NA","NA","0","0","0","0","0","0","3","3","3","0","0","NA","NA","0","0","0","0","NA","0","0","3","3","3","3","3","Sat Nov 11 21:22:16 2017","Forced-choice identification task with a practice and an experimental phase","yes","NAP_GER_AA_4blocks_noglides.osexp","/Users/aviadalbert/Documents/Academisch/UoC/Dissertation/Experiment/OpenSesame/NAP-FC/NAP_GER_AA_4blocks_noglides","yes","no","sans","no","20","no","black","no","Weiter","yes","768","legacy","3","3","0","/Users/aviadalbert/Documents/Academisch/UoC/Dissertation/Experiment/OpenSesame/NAP-FC/NAP_GER_AA_4blocks_noglides/subject-50.csv","xpyriment","Jazzy James","3.1.9","yes","yes","59a800d99ad5a1025d81bb03","59a801616c613b0251691de0","yes","no","0","f","f","NA","NA","space","space","f","1707","2765","NA","NA","39382","12097","1707","2","legacy","1024","1","44100","-16","experiment","ʃpal","3","2","0","0","1","Englisch","50","","even","7440899","NA","NA","NA","NA","NA","NA","7311729","NA","7311730","7311729","7389131","7428518","7455282","7453779","7456990","7443665","7440895","NA","NA","7328151","7370062","NA","7440684","NA","7440899","NA","7455282","7455282","NA","NA","7453774","NAP perception","4","6323","4","yes","1024"
"100","yes","100","1535.2","1535.2","white","no","xpyriment","Ich habe die obigen Informationen gelesen und verstanden.","legacy","legacy","0","uniform","1","0","NA","undefined","undefined","1","j","0","0","NA","NA","NA","NA","NA","0","0","0","0","0","0","4","4","4","0","0","NA","NA","0","0","0","0","NA","0","0","4","4","4","4","4","Sat Nov 11 21:22:16 2017","Forced-choice identification task with a practice and an experimental phase","yes","NAP_GER_AA_4blocks_noglides.osexp","/Users/aviadalbert/Documents/Academisch/UoC/Dissertation/Experiment/OpenSesame/NAP-FC/NAP_GER_AA_4blocks_noglides","yes","no","sans","no","20","no","black","no","Weiter","yes","768","legacy","4","4","0","/Users/aviadalbert/Documents/Academisch/UoC/Dissertation/Experiment/OpenSesame/NAP-FC/NAP_GER_AA_4blocks_noglides/subject-50.csv","xpyriment","Jazzy James","3.1.9","yes","yes","59a800d99ad5a1025d81bb03","59a801616c613b0251691de0","yes","no","0","j","f","NA","NA","space","space","j","1353","2765","NA","NA","39382","12097","1353","2","legacy","1024","1","44100","-16","experiment","nefal","3","2","0","0","1","Englisch","50","","even","7440899","NA","NA","NA","NA","NA","NA","7311729","NA","7311730","7311729","7389131","7428518","7458760","7457256","7460114","7443665","7440895","NA","NA","7328151","7370062","NA","7440684","NA","7440899","NA","7458760","7458760","NA","NA","7457252","NAP perception","5","7676","5","yes","1024"
"100","yes","100","1460.66666667","1460.66666667","white","no","xpyriment","Ich habe die obigen Informationen gelesen und verstanden.","legacy","legacy","0","uniform","1","0","NA","undefined","undefined","1","f","0","0","NA","NA","NA","NA","NA","0","0","0","0","0","0","5","5","5","0","0","NA","NA","0","0","0","0","NA","0","0","5","5","5","5","5","Sat Nov 11 21:22:16 2017","Forced-choice identification task with a practice and an experimental phase","yes","NAP_GER_AA_4blocks_noglides.osexp","/Users/aviadalbert/Documents/Academisch/UoC/Dissertation/Experiment/OpenSesame/NAP-FC/NAP_GER_AA_4blocks_noglides","yes","no","sans","no","20","no","black","no","Weiter","yes","768","legacy","5","5","0","/Users/aviadalbert/Documents/Academisch/UoC/Dissertation/Experiment/OpenSesame/NAP-FC/NAP_GER_AA_4blocks_noglides/subject-50.csv","xpyriment","Jazzy James","3.1.9","yes","yes","59a800d99ad5a1025d81bb03","59a801616c613b0251691de0","yes","no","0","f","f","NA","NA","space","space","f","1088","2765","NA","NA","39382","12097","1088","2","legacy","1024","1","44100","-16","experiment","sfal","3","2","0","0","1","Englisch","50","","even","7440899","NA","NA","NA","NA","NA","NA","7311729","NA","7311730","7311729","7389131","7428518","7461901","7460394","7462990","7443665","7440895","NA","NA","7328151","7370062","NA","7440684","NA","7440899","NA","7461901","7461901","NA","NA","7460391","NAP perception","6","8764","6","yes","1024"
"100","yes","100","1458.71428571","1458.71428571","white","no","xpyriment","Ich habe die obigen Informationen gelesen und verstanden.","legacy","legacy","0","uniform","1","0","NA","undefined","undefined","1","f","0","0","NA","NA","NA","NA","NA","0","0","0","0","0","0","6","6","6","0","0","NA","NA","0","0","0","0","NA","0","0","6","6","6","6","6","Sat Nov 11 21:22:16 2017","Forced-choice identification task with a practice and an experimental phase","yes","NAP_GER_AA_4blocks_noglides.osexp","/Users/aviadalbert/Documents/Academisch/UoC/Dissertation/Experiment/OpenSesame/NAP-FC/NAP_GER_AA_4blocks_noglides","yes","no","sans","no","20","no","black","no","Weiter","yes","768","legacy","6","6","0","/Users/aviadalbert/Documents/Academisch/UoC/Dissertation/Experiment/OpenSesame/NAP-FC/NAP_GER_AA_4blocks_noglides/subject-50.csv","xpyriment","Jazzy James","3.1.9","yes","yes","59a800d99ad5a1025d81bb03","59a801616c613b0251691de0","yes","no","0","f","f","NA","NA","space","space","f","1447","2765","NA","NA","39382","12097","1447","2","legacy","1024","1","44100","-16","experiment","zmal","3","2","0","0","1","Englisch","50","","even","7440899","NA","NA","NA","NA","NA","NA","7311729","NA","7311730","7311729","7389131","7428518","7464763","7463258","7466211","7443665","7440895","NA","NA","7328151","7370062","NA","7440684","NA","7440899","NA","7464762","7464762","NA","NA","7463254","NAP perception","7","10211","7","yes","1024"
"100","yes","100","1375.125","1375.125","white","no","xpyriment","Ich habe die obigen Informationen gelesen und verstanden.","legacy","legacy","0","uniform","1","0","NA","undefined","undefined","1","j","0","0","NA","NA","NA","NA","NA","0","0","0","0","0","0","7","7","7","0","0","NA","NA","0","0","0","0","NA","0","0","7","7","7","7","7","Sat Nov 11 21:22:16 2017","Forced-choice identification task with a practice and an experimental phase","yes","NAP_GER_AA_4blocks_noglides.osexp","/Users/aviadalbert/Documents/Academisch/UoC/Dissertation/Experiment/OpenSesame/NAP-FC/NAP_GER_AA_4blocks_noglides","yes","no","sans","no","20","no","black","no","Weiter","yes","768","legacy","7","7","0","/Users/aviadalbert/Documents/Academisch/UoC/Dissertation/Experiment/OpenSesame/NAP-FC/NAP_GER_AA_4blocks_noglides/subject-50.csv","xpyriment","Jazzy James","3.1.9","yes","yes","59a800d99ad5a1025d81bb03","59a801616c613b0251691de0","yes","no","0","j","f","NA","NA","space","space","j","790","2765","NA","NA","39382","12097","790","2","legacy","1024","1","44100","-16","experiment","mesal","3","2","0","0","1","Englisch","50","","even","7440899","NA","NA","NA","NA","NA","NA","7311729","NA","7311730","7311729","7389131","7428518","7467997","7466491","7468788","7443665","7440895","NA","NA","7328151","7370062","NA","7440684","NA","7440899","NA","7467996","7467996","NA","NA","7466487","NAP perception","8","11001","8","yes","1024"
"100","yes","100","1399.11111111","1399.11111111","white","no","xpyriment","Ich habe die obigen Informationen gelesen und verstanden.","legacy","legacy","0","uniform","1","0","NA","undefined","undefined","1","j","0","0","NA","NA","NA","NA","NA","0","0","0","0","0","0","8","8","8","0","0","NA","NA","0","0","0","0","NA","0","0","8","8","8","8","8","Sat Nov 11 21:22:16 2017","Forced-choice identification task with a practice and an experimental phase","yes","NAP_GER_AA_4blocks_noglides.osexp","/Users/aviadalbert/Documents/Academisch/UoC/Dissertation/Experiment/OpenSesame/NAP-FC/NAP_GER_AA_4blocks_noglides","yes","no","sans","no","20","no","black","no","Weiter","yes","768","legacy","8","8","0","/Users/aviadalbert/Documents/Academisch/UoC/Dissertation/Experiment/OpenSesame/NAP-FC/NAP_GER_AA_4blocks_noglides/subject-50.csv","xpyriment","Jazzy James","3.1.9","yes","yes","59a800d99ad5a1025d81bb03","59a801616c613b0251691de0","yes","no","0","j","f","NA","NA","space","space","j","1591","2765","NA","NA","39382","12097","1591","2","legacy","1024","1","44100","-16","experiment","enval","3","2","0","0","1","Englisch","50","","even","7440899","NA","NA","NA","NA","NA","NA","7311729","NA","7311730","7311729","7389131","7428518","7470557","7469054","7472149","7443665","7440895","NA","NA","7328151","7370062","NA","7440684","NA","7440899","NA","7470557","7470557","NA","NA","7469050","NAP perception","9","12592","9","yes","1024"
"100","yes","100","1411.2","1411.2","white","no","xpyriment","Ich habe die obigen Informationen gelesen und verstanden.","legacy","legacy","0","uniform","1","0","NA","undefined","undefined","1","f","0","0","NA","NA","NA","NA","NA","0","0","0","0","0","0","9","9","9","0","0","NA","NA","0","0","0","0","NA","0","0","9","9","9","9","9","Sat Nov 11 21:22:16 2017","Forced-choice identification task with a practice and an experimental phase","yes","NAP_GER_AA_4blocks_noglides.osexp","/Users/aviadalbert/Documents/Academisch/UoC/Dissertation/Experiment/OpenSesame/NAP-FC/NAP_GER_AA_4blocks_noglides","yes","no","sans","no","20","no","black","no","Weiter","yes","768","legacy","9","9","0","/Users/aviadalbert/Documents/Academisch/UoC/Dissertation/Experiment/OpenSesame/NAP-FC/NAP_GER_AA_4blocks_noglides/subject-50.csv","xpyriment","Jazzy James","3.1.9","yes","yes","59a800d99ad5a1025d81bb03","59a801616c613b0251691de0","yes","no","0","f","f","NA","NA","space","space","f","1520","2765","NA","NA","39382","12097","1520","2","legacy","1024","1","44100","-16","experiment","vlal","3","2","0","0","1","Englisch","50","","even","7440899","NA","NA","NA","NA","NA","NA","7311729","NA","7311730","7311729","7389131","7428518","7473933","7472428","7475454","7443665","7440895","NA","NA","7328151","7370062","NA","7440684","NA","7440899","NA","7473933","7473933","NA","NA","7472424","NAP perception","10","14112","10","yes","1024"
"100","yes","100","1172","1172","white","no","xpyriment","Ich habe die obigen Informationen gelesen und verstanden.","legacy","legacy","0","uniform","1","0","0","undefined","undefined","1","j","2","1","NA","0","1","0","0","0","0","0","0","0","0","10","10","10","0","0","0","NA","0","0","2","0","0","0","2","10","10","10","10","10","Sat Nov 11 21:22:16 2017","Forced-choice identification task with a practice and an experimental phase","yes","NAP_GER_AA_4blocks_noglides.osexp","/Users/aviadalbert/Documents/Academisch/UoC/Dissertation/Experiment/OpenSesame/NAP-FC/NAP_GER_AA_4blocks_noglides","yes","no","sans","no","20","no","black","no","Weiter","yes","768","legacy","0","9","0","/Users/aviadalbert/Documents/Academisch/UoC/Dissertation/Experiment/OpenSesame/NAP-FC/NAP_GER_AA_4blocks_noglides/subject-50.csv","xpyriment","Jazzy James","3.1.9","yes","yes","59a800d99ad5a1025d81bb03","59a801616c613b0251691de0","no","no","0","j","f","space","NA","space","space","j","1172","1826","64544","NA","39382","12097","1172","2","legacy","1024","1","44100","-16","experiment","esmal","3","2","0","0","1","Englisch","50","","even","7542238","7477167","NA","NA","7544066","7542234","NA","7311729","7541767","7311730","7311729","7389131","7428518","7545794","7544287","7546967","7443665","7440895","7477167","NA","7328151","7370062","7475516","7440684","7542237","7440899","NA","7545794","7545794","NA","NA","7544283","NAP perception","1","1172","1","yes","1024"
"50","yes","50","1425.5","1425.5","white","no","xpyriment","Ich habe die obigen Informationen gelesen und verstanden.","legacy","legacy","0","uniform","0","0","0","undefined","undefined","0","f","2","1","NA","0","1","0","0","0","0","0","0","0","0","11","11","11","0","0","0","NA","0","0","2","0","0","0","2","11","11","11","11","11","Sat Nov 11 21:22:16 2017","Forced-choice identification task with a practice and an experimental phase","yes","NAP_GER_AA_4blocks_noglides.osexp","/Users/aviadalbert/Documents/Academisch/UoC/Dissertation/Experiment/OpenSesame/NAP-FC/NAP_GER_AA_4blocks_noglides","yes","no","sans","no","20","no","black","no","Weiter","yes","768","legacy","1","9","0","/Users/aviadalbert/Documents/Academisch/UoC/Dissertation/Experiment/OpenSesame/NAP-FC/NAP_GER_AA_4blocks_noglides/subject-50.csv","xpyriment","Jazzy James","3.1.9","yes","yes","59a800d99ad5a1025d81bb03","59a801616c613b0251691de0","no","no","0","j","f","space","NA","space","space","j","1679","1826","64544","NA","39382","12097","1679","2","legacy","1024","1","44100","-16","experiment","zval","3","2","0","0","1","Englisch","50","","even","7542238","7477167","NA","NA","7544066","7542234","NA","7311729","7541767","7311730","7311729","7389131","7428518","7548749","7547242","7550429","7443665","7440895","7477167","NA","7328151","7370062","7475516","7440684","7542237","7440899","NA","7548749","7548749","NA","NA","7547238","NAP perception","1","2851","2","yes","1024"
"66.6666666667","yes","66.6666666667","1226","1226","white","no","xpyriment","Ich habe die obigen Informationen gelesen und verstanden.","legacy","legacy","0","uniform","1","0","0","undefined","undefined","1","j","2","1","NA","0","1","0","0","0","0","0","0","0","0","12","12","12","0","0","0","NA","0","0","2","0","0","0","2","12","12","12","12","12","Sat Nov 11 21:22:16 2017","Forced-choice identification task with a practice and an experimental phase","yes","NAP_GER_AA_4blocks_noglides.osexp","/Users/aviadalbert/Documents/Academisch/UoC/Dissertation/Experiment/OpenSesame/NAP-FC/NAP_GER_AA_4blocks_noglides","yes","no","sans","no","20","no","black","no","Weiter","yes","768","legacy","2","9","0","/Users/aviadalbert/Documents/Academisch/UoC/Dissertation/Experiment/OpenSesame/NAP-FC/NAP_GER_AA_4blocks_noglides/subject-50.csv","xpyriment","Jazzy James","3.1.9","yes","yes","59a800d99ad5a1025d81bb03","59a801616c613b0251691de0","no","no","0","j","f","space","NA","space","space","j","827","1826","64544","NA","39382","12097","827","2","legacy","1024","1","44100","-16","experiment","mezal","3","2","0","0","1","Englisch","50","","even","7542238","7477167","NA","NA","7544066","7542234","NA","7311729","7541767","7311730","7311729","7389131","7428518","7552207","7550700","7553035","7443665","7440895","7477167","NA","7328151","7370062","7475516","7440684","7542237","7440899","NA","7552207","7552207","NA","NA","7550696","NAP perception","2","3678","3","yes","1024"
"75","yes","75","1110.5","1110.5","white","no","xpyriment","Ich habe die obigen Informationen gelesen und verstanden.","legacy","legacy","0","uniform","1","0","0","undefined","undefined","1","j","2","1","NA","0","1","0","0","0","0","0","0","0","0","13","13","13","0","0","0","NA","0","0","2","0","0","0","2","13","13","13","13","13","Sat Nov 11 21:22:16 2017","Forced-choice identification task with a practice and an experimental phase","yes","NAP_GER_AA_4blocks_noglides.osexp","/Users/aviadalbert/Documents/Academisch/UoC/Dissertation/Experiment/OpenSesame/NAP-FC/NAP_GER_AA_4blocks_noglides","yes","no","sans","no","20","no","black","no","Weiter","yes","768","legacy","3","9","0","/Users/aviadalbert/Documents/Academisch/UoC/Dissertation/Experiment/OpenSesame/NAP-FC/NAP_GER_AA_4blocks_noglides/subject-50.csv","xpyriment","Jazzy James","3.1.9","yes","yes","59a800d99ad5a1025d81bb03","59a801616c613b0251691de0","no","no","0","j","f","space","NA","space","space","j","764","1826","64544","NA","39382","12097","764","2","legacy","1024","1","44100","-16","experiment","enpal","3","2","0","0","1","Englisch","50","","even","7542238","7477167","NA","NA","7544066","7542234","NA","7311729","7541767","7311730","7311729","7389131","7428518","7554809","7553302","7555574","7443665","7440895","7477167","NA","7328151","7370062","7475516","7440684","7542237","7440899","NA","7554809","7554809","NA","NA","7553298","NAP perception","3","4442","4","yes","1024"
"80","yes","80","1021","1021","white","no","xpyriment","Ich habe die obigen Informationen gelesen und verstanden.","legacy","legacy","0","uniform","1","0","0","undefined","undefined","1","f","2","1","NA","0","1","0","0","0","0","0","0","0","0","14","14","14","0","0","0","NA","0","0","2","0","0","0","2","14","14","14","14","14","Sat Nov 11 21:22:16 2017","Forced-choice identification task with a practice and an experimental phase","yes","NAP_GER_AA_4blocks_noglides.osexp","/Users/aviadalbert/Documents/Academisch/UoC/Dissertation/Experiment/OpenSesame/NAP-FC/NAP_GER_AA_4blocks_noglides","yes","no","sans","no","20","no","black","no","Weiter","yes","768","legacy","4","9","0","/Users/aviadalbert/Documents/Academisch/UoC/Dissertation/Experiment/OpenSesame/NAP-FC/NAP_GER_AA_4blocks_noglides/subject-50.csv","xpyriment","Jazzy James","3.1.9","yes","yes","59a800d99ad5a1025d81bb03","59a801616c613b0251691de0","no","no","0","f","f","space","NA","space","space","f","663","1826","64544","NA","39382","12097","663","2","legacy","1024","1","44100","-16","experiment","spal","3","2","0","0","1","Englisch","50","","even","7542238","7477167","NA","NA","7544066","7542234","NA","7311729","7541767","7311730","7311729","7389131","7428518","7557356","7555850","7558020","7443665","7440895","7477167","NA","7328151","7370062","7475516","7440684","7542237","7440899","NA","7557356","7557356","NA","NA","7555846","NAP perception","4","5105","5","yes","1024"
"83.3333333333","yes","83.3333333333","968.166666667","968.166666667","white","no","xpyriment","Ich habe die obigen Informationen gelesen und verstanden.","legacy","legacy","0","uniform","1","0","0","undefined","undefined","1","j","2","1","NA","0","1","0","0","0","0","0","0","0","0","15","15","15","0","0","0","NA","0","0","2","0","0","0","2","15","15","15","15","15","Sat Nov 11 21:22:16 2017","Forced-choice identification task with a practice and an experimental phase","yes","NAP_GER_AA_4blocks_noglides.osexp","/Users/aviadalbert/Documents/Academisch/UoC/Dissertation/Experiment/OpenSesame/NAP-FC/NAP_GER_AA_4blocks_noglides","yes","no","sans","no","20","no","black","no","Weiter","yes","768","legacy","5","9","0","/Users/aviadalbert/Documents/Academisch/UoC/Dissertation/Experiment/OpenSesame/NAP-FC/NAP_GER_AA_4blocks_noglides/subject-50.csv","xpyriment","Jazzy James","3.1.9","yes","yes","59a800d99ad5a1025d81bb03","59a801616c613b0251691de0","no","no","0","j","f","space","NA","space","space","j","704","1826","64544","NA","39382","12097","704","2","legacy","1024","1","44100","-16","experiment","evlal","3","2","0","0","1","Englisch","50","","even","7542238","7477167","NA","NA","7544066","7542234","NA","7311729","7541767","7311730","7311729","7389131","7428518","7559795","7558290","7560501","7443665","7440895","7477167","NA","7328151","7370062","7475516","7440684","7542237","7440899","NA","7559795","7559795","NA","NA","7558286","NAP perception","5","5809","6","yes","1024"
"85.7142857143","yes","85.7142857143","929.857142857","929.857142857","white","no","xpyriment","Ich habe die obigen Informationen gelesen und verstanden.","legacy","legacy","0","uniform","1","0","0","undefined","undefined","1","j","2","1","NA","0","1","0","0","0","0","0","0","0","0","16","16","16","0","0","0","NA","0","0","2","0","0","0","2","16","16","16","16","16","Sat Nov 11 21:22:16 2017","Forced-choice identification task with a practice and an experimental phase","yes","NAP_GER_AA_4blocks_noglides.osexp","/Users/aviadalbert/Documents/Academisch/UoC/Dissertation/Experiment/OpenSesame/NAP-FC/NAP_GER_AA_4blocks_noglides","yes","no","sans","no","20","no","black","no","Weiter","yes","768","legacy","6","9","0","/Users/aviadalbert/Documents/Academisch/UoC/Dissertation/Experiment/OpenSesame/NAP-FC/NAP_GER_AA_4blocks_noglides/subject-50.csv","xpyriment","Jazzy James","3.1.9","yes","yes","59a800d99ad5a1025d81bb03","59a801616c613b0251691de0","no","no","0","j","f","space","NA","space","space","j","700","1826","64544","NA","39382","12097","700","2","legacy","1024","1","44100","-16","experiment","elkal","3","2","0","0","1","Englisch","50","","even","7542238","7477167","NA","NA","7544066","7542234","NA","7311729","7541767","7311730","7311729","7389131","7428518","7562286","7560780","7562987","7443665","7440895","7477167","NA","7328151","7370062","7475516","7440684","7542237","7440899","NA","7562285","7562285","NA","NA","7560775","NAP perception","6","6509","7","yes","1024"
"87.5","yes","87.5","934.875","934.875","white","no","xpyriment","Ich habe die obigen Informationen gelesen und verstanden.","legacy","legacy","0","uniform","1","0","0","undefined","undefined","1","j","2","1","NA","0","1","0","0","0","0","0","0","0","0","17","17","17","0","0","0","NA","0","0","2","0","0","0","2","17","17","17","17","17","Sat Nov 11 21:22:16 2017","Forced-choice identification task with a practice and an experimental phase","yes","NAP_GER_AA_4blocks_noglides.osexp","/Users/aviadalbert/Documents/Academisch/UoC/Dissertation/Experiment/OpenSesame/NAP-FC/NAP_GER_AA_4blocks_noglides","yes","no","sans","no","20","no","black","no","Weiter","yes","768","legacy","7","9","0","/Users/aviadalbert/Documents/Academisch/UoC/Dissertation/Experiment/OpenSesame/NAP-FC/NAP_GER_AA_4blocks_noglides/subject-50.csv","xpyriment","Jazzy James","3.1.9","yes","yes","59a800d99ad5a1025d81bb03","59a801616c613b0251691de0","no","no","0","j","f","space","NA","space","space","j","970","1826","64544","NA","39382","12097","970","2","legacy","1024","1","44100","-16","experiment","efnal","3","2","0","0","1","Englisch","50","","even","7542238","7477167","NA","NA","7544066","7542234","NA","7311729","7541767","7311730","7311729","7389131","7428518","7564770","7563264","7565741","7443665","7440895","7477167","NA","7328151","7370062","7475516","7440684","7542237","7440899","NA","7564770","7564770","NA","NA","7563260","NAP perception","7","7479","8","yes","1024"
"88.8888888889","yes","88.8888888889","942.777777778","942.777777778","white","no","xpyriment","Ich habe die obigen Informationen gelesen und verstanden.","legacy","legacy","0","uniform","1","0","0","undefined","undefined","1","j","2","1","NA","0","1","0","0","0","0","0","0","0","0","18","18","18","0","0","0","NA","0","0","2","0","0","0","2","18","18","18","18","18","Sat Nov 11 21:22:16 2017","Forced-choice identification task with a practice and an experimental phase","yes","NAP_GER_AA_4blocks_noglides.osexp","/Users/aviadalbert/Documents/Academisch/UoC/Dissertation/Experiment/OpenSesame/NAP-FC/NAP_GER_AA_4blocks_noglides","yes","no","sans","no","20","no","black","no","Weiter","yes","768","legacy","8","9","0","/Users/aviadalbert/Documents/Academisch/UoC/Dissertation/Experiment/OpenSesame/NAP-FC/NAP_GER_AA_4blocks_noglides/subject-50.csv","xpyriment","Jazzy James","3.1.9","yes","yes","59a800d99ad5a1025d81bb03","59a801616c613b0251691de0","no","no","0","j","f","space","NA","space","space","j","1006","1826","64544","NA","39382","12097","1006","2","legacy","1024","1","44100","-16","experiment","fetal","3","2","0","0","1","Englisch","50","","even","7542238","7477167","NA","NA","7544066","7542234","NA","7311729","7541767","7311730","7311729","7389131","7428518","7567513","7566009","7568521","7443665","7440895","7477167","NA","7328151","7370062","7475516","7440684","7542237","7440899","NA","7567512","7567513","NA","NA","7566005","NAP perception","8","8485","9","yes","1024"
"90","yes","90","945.2","945.2","white","no","xpyriment","Ich habe die obigen Informationen gelesen und verstanden.","legacy","legacy","0","uniform","1","0","0","undefined","undefined","1","j","2","1","NA","0","1","0","0","0","0","0","0","0","0","19","19","19","0","0","0","NA","0","0","2","0","0","0","2","19","19","19","19","19","Sat Nov 11 21:22:16 2017","Forced-choice identification task with a practice and an experimental phase","yes","NAP_GER_AA_4blocks_noglides.osexp","/Users/aviadalbert/Documents/Academisch/UoC/Dissertation/Experiment/OpenSesame/NAP-FC/NAP_GER_AA_4blocks_noglides","yes","no","sans","no","20","no","black","no","Weiter","yes","768","legacy","9","9","0","/Users/aviadalbert/Documents/Academisch/UoC/Dissertation/Experiment/OpenSesame/NAP-FC/NAP_GER_AA_4blocks_noglides/subject-50.csv","xpyriment","Jazzy James","3.1.9","yes","yes","59a800d99ad5a1025d81bb03","59a801616c613b0251691de0","no","no","0","j","f","space","NA","space","space","j","967","1826","64544","NA","39382","12097","967","2","legacy","1024","1","44100","-16","experiment","emnal","3","2","0","0","1","Englisch","50","","even","7542238","7477167","NA","NA","7544066","7542234","NA","7311729","7541767","7311730","7311729","7389131","7428518","7570321","7568817","7571289","7443665","7440895","7477167","NA","7328151","7370062","7475516","7440684","7542237","7440899","NA","7570321","7570321","NA","NA","7568813","NAP perception","9","9452","10","yes","1024"
"90.9090909091","yes","90.9090909091","941.818181818","941.818181818","white","no","xpyriment","Ich habe die obigen Informationen gelesen und verstanden.","legacy","legacy","0","uniform","1","0","0","undefined","undefined","1","j","2","1","NA","0","1","0","0","0","0","0","0","0","0","20","20","20","0","0","0","NA","0","0","2","0","0","0","2","20","20","20","20","20","Sat Nov 11 21:22:16 2017","Forced-choice identification task with a practice and an experimental phase","yes","NAP_GER_AA_4blocks_noglides.osexp","/Users/aviadalbert/Documents/Academisch/UoC/Dissertation/Experiment/OpenSesame/NAP-FC/NAP_GER_AA_4blocks_noglides","yes","no","sans","no","20","no","black","no","Weiter","yes","768","legacy","10","9","0","/Users/aviadalbert/Documents/Academisch/UoC/Dissertation/Experiment/OpenSesame/NAP-FC/NAP_GER_AA_4blocks_noglides/subject-50.csv","xpyriment","Jazzy James","3.1.9","yes","yes","59a800d99ad5a1025d81bb03","59a801616c613b0251691de0","no","no","0","j","f","space","NA","space","space","j","908","1826","64544","NA","39382","12097","908","2","legacy","1024","1","44100","-16","experiment","nepal","3","2","0","0","1","Englisch","50","","even","7542238","7477167","NA","NA","7544066","7542234","NA","7311729","7541767","7311730","7311729","7389131","7428518","7573054","7571551","7573963","7443665","7440895","7477167","NA","7328151","7370062","7475516","7440684","7542237","7440899","NA","7573054","7573054","NA","NA","7571547","NAP perception","10","10360","11","yes","1024"
"83.3333333333","yes","83.3333333333","928.583333333","928.583333333","white","no","xpyriment","Ich habe die obigen Informationen gelesen und verstanden.","legacy","legacy","0","uniform","0","0","0","undefined","undefined","0","f","2","1","NA","0","1","0","0","0","0","0","0","0","0","21","21","21","0","0","0","NA","0","0","2","0","0","0","2","21","21","21","21","21","Sat Nov 11 21:22:16 2017","Forced-choice identification task with a practice and an experimental phase","yes","NAP_GER_AA_4blocks_noglides.osexp","/Users/aviadalbert/Documents/Academisch/UoC/Dissertation/Experiment/OpenSesame/NAP-FC/NAP_GER_AA_4blocks_noglides","yes","no","sans","no","20","no","black","no","Weiter","yes","768","legacy","11","9","0","/Users/aviadalbert/Documents/Academisch/UoC/Dissertation/Experiment/OpenSesame/NAP-FC/NAP_GER_AA_4blocks_noglides/subject-50.csv","xpyriment","Jazzy James","3.1.9","yes","yes","59a800d99ad5a1025d81bb03","59a801616c613b0251691de0","no","no","0","j","f","space","NA","space","space","j","783","1826","64544","NA","39382","12097","783","2","legacy","1024","1","44100","-16","experiment","nmal","3","2","0","0","1","Englisch","50","","even","7542238","7477167","NA","NA","7544066","7542234","NA","7311729","7541767","7311730","7311729","7389131","7428518","7575745","7574242","7576529","7443665","7440895","7477167","NA","7328151","7370062","7475516","7440684","7542237","7440899","NA","7575745","7575745","NA","NA","7574238","NAP perception","10","11143","12","yes","1024"
"76.9230769231","yes","76.9230769231","969.923076923","969.923076923","white","no","xpyriment","Ich habe die obigen Informationen gelesen und verstanden.","legacy","legacy","0","uniform","0","0","0","undefined","undefined","0","f","2","1","NA","0","1","0","0","0","0","0","0","0","0","22","22","22","0","0","0","NA","0","0","2","0","0","0","2","22","22","22","22","22","Sat Nov 11 21:22:16 2017","Forced-choice identification task with a practice and an experimental phase","yes","NAP_GER_AA_4blocks_noglides.osexp","/Users/aviadalbert/Documents/Academisch/UoC/Dissertation/Experiment/OpenSesame/NAP-FC/NAP_GER_AA_4blocks_noglides","yes","no","sans","no","20","no","black","no","Weiter","yes","768","legacy","12","9","0","/Users/aviadalbert/Documents/Academisch/UoC/Dissertation/Experiment/OpenSesame/NAP-FC/NAP_GER_AA_4blocks_noglides/subject-50.csv","xpyriment","Jazzy James","3.1.9","yes","yes","59a800d99ad5a1025d81bb03","59a801616c613b0251691de0","no","no","0","j","f","space","NA","space","space","j","1466","1826","64544","NA","39382","12097","1466","2","legacy","1024","1","44100","-16","experiment","lmal","3","2","0","0","1","Englisch","50","","even","7542238","7477167","NA","NA","7544066","7542234","NA","7311729","7541767","7311730","7311729","7389131","7428518","7578315","7576811","7579782","7443665","7440895","7477167","NA","7328151","7370062","7475516","7440684","7542237","7440899","NA","7578315","7578315","NA","NA","7576807","NAP perception","10","12609","13","yes","1024"
"78.5714285714","yes","78.5714285714","986.714285714","986.714285714","white","no","xpyriment","Ich habe die obigen Informationen gelesen und verstanden.","legacy","legacy","0","uniform","1","0","0","undefined","undefined","1","f","2","1","NA","0","1","0","0","0","0","0","0","0","0","23","23","23","0","0","0","NA","0","0","2","0","0","0","2","23","23","23","23","23","Sat Nov 11 21:22:16 2017","Forced-choice identification task with a practice and an experimental phase","yes","NAP_GER_AA_4blocks_noglides.osexp","/Users/aviadalbert/Documents/Academisch/UoC/Dissertation/Experiment/OpenSesame/NAP-FC/NAP_GER_AA_4blocks_noglides","yes","no","sans","no","20","no","black","no","Weiter","yes","768","legacy","13","9","0","/Users/aviadalbert/Documents/Academisch/UoC/Dissertation/Experiment/OpenSesame/NAP-FC/NAP_GER_AA_4blocks_noglides/subject-50.csv","xpyriment","Jazzy James","3.1.9","yes","yes","59a800d99ad5a1025d81bb03","59a801616c613b0251691de0","no","no","0","f","f","space","NA","space","space","f","1205","1826","64544","NA","39382","12097","1205","2","legacy","1024","1","44100","-16","experiment","vnal","3","2","0","0","1","Englisch","50","","even","7542238","7477167","NA","NA","7544066","7542234","NA","7311729","7541767","7311730","7311729","7389131","7428518","7581550","7580047","7582756","7443665","7440895","7477167","NA","7328151","7370062","7475516","7440684","7542237","7440899","NA","7581550","7581550","NA","NA","7580043","NAP perception","11","13814","14","yes","1024"
"80","yes","80","972.333333333","972.333333333","white","no","xpyriment","Ich habe die obigen Informationen gelesen und verstanden.","legacy","legacy","0","uniform","1","0","0","undefined","undefined","1","j","2","1","NA","0","1","0","0","0","0","0","0","0","0","24","24","24","0","0","0","NA","0","0","2","0","0","0","2","24","24","24","24","24","Sat Nov 11 21:22:16 2017","Forced-choice identification task with a practice and an experimental phase","yes","NAP_GER_AA_4blocks_noglides.osexp","/Users/aviadalbert/Documents/Academisch/UoC/Dissertation/Experiment/OpenSesame/NAP-FC/NAP_GER_AA_4blocks_noglides","yes","no","sans","no","20","no","black","no","Weiter","yes","768","legacy","14","9","0","/Users/aviadalbert/Documents/Academisch/UoC/Dissertation/Experiment/OpenSesame/NAP-FC/NAP_GER_AA_4blocks_noglides/subject-50.csv","xpyriment","Jazzy James","3.1.9","yes","yes","59a800d99ad5a1025d81bb03","59a801616c613b0251691de0","no","no","0","j","f","space","NA","space","space","j","771","1826","64544","NA","39382","12097","771","2","legacy","1024","1","44100","-16","experiment","vezal","3","2","0","0","1","Englisch","50","","even","7542238","7477167","NA","NA","7544066","7542234","NA","7311729","7541767","7311730","7311729","7389131","7428518","7584539","7583034","7585311","7443665","7440895","7477167","NA","7328151","7370062","7475516","7440684","7542237","7440899","NA","7584538","7584539","NA","NA","7583031","NAP perception","12","14585","15","yes","1024"
"75","yes","75","979.0625","979.0625","white","no","xpyriment","Ich habe die obigen Informationen gelesen und verstanden.","legacy","legacy","0","uniform","0","0","0","undefined","undefined","0","f","2","1","NA","0","1","0","0","0","0","0","0","0","0","25","25","25","0","0","0","NA","0","0","2","0","0","0","2","25","25","25","25","25","Sat Nov 11 21:22:16 2017","Forced-choice identification task with a practice and an experimental phase","yes","NAP_GER_AA_4blocks_noglides.osexp","/Users/aviadalbert/Documents/Academisch/UoC/Dissertation/Experiment/OpenSesame/NAP-FC/NAP_GER_AA_4blocks_noglides","yes","no","sans","no","20","no","black","no","Weiter","yes","768","legacy","15","9","0","/Users/aviadalbert/Documents/Academisch/UoC/Dissertation/Experiment/OpenSesame/NAP-FC/NAP_GER_AA_4blocks_noglides/subject-50.csv","xpyriment","Jazzy James","3.1.9","yes","yes","59a800d99ad5a1025d81bb03","59a801616c613b0251691de0","no","no","0","j","f","space","NA","space","space","j","1080","1826","64544","NA","39382","12097","1080","2","legacy","1024","1","44100","-16","experiment","vnal","3","2","0","0","1","Englisch","50","","even","7542238","7477167","NA","NA","7544066","7542234","NA","7311729","7541767","7311730","7311729","7389131","7428518","7587079","7585575","7588160","7443665","7440895","7477167","NA","7328151","7370062","7475516","7440684","7542237","7440899","NA","7587079","7587079","NA","NA","7585571","NAP perception","12","15665","16","yes","1024"
"70.5882352941","yes","70.5882352941","987.588235294","987.588235294","white","no","xpyriment","Ich habe die obigen Informationen gelesen und verstanden.","legacy","legacy","0","uniform","0","0","0","undefined","undefined","0","f","2","1","NA","0","1","0","0","0","0","0","0","0","0","26","26","26","0","0","0","NA","0","0","2","0","0","0","2","26","26","26","26","26","Sat Nov 11 21:22:16 2017","Forced-choice identification task with a practice and an experimental phase","yes","NAP_GER_AA_4blocks_noglides.osexp","/Users/aviadalbert/Documents/Academisch/UoC/Dissertation/Experiment/OpenSesame/NAP-FC/NAP_GER_AA_4blocks_noglides","yes","no","sans","no","20","no","black","no","Weiter","yes","768","legacy","16","9","0","/Users/aviadalbert/Documents/Academisch/UoC/Dissertation/Experiment/OpenSesame/NAP-FC/NAP_GER_AA_4blocks_noglides/subject-50.csv","xpyriment","Jazzy James","3.1.9","yes","yes","59a800d99ad5a1025d81bb03","59a801616c613b0251691de0","no","no","0","j","f","space","NA","space","space","j","1124","1826","64544","NA","39382","12097","1124","2","legacy","1024","1","44100","-16","experiment","lpal","3","2","0","0","1","Englisch","50","","even","7542238","7477167","NA","NA","7544066","7542234","NA","7311729","7541767","7311730","7311729","7389131","7428518","7589947","7588442","7591072","7443665","7440895","7477167","NA","7328151","7370062","7475516","7440684","7542237","7440899","NA","7589947","7589947","NA","NA","7588438","NAP perception","12","16789","17","yes","1024"
"72.2222222222","yes","72.2222222222","976.944444444","976.944444444","white","no","xpyriment","Ich habe die obigen Informationen gelesen und verstanden.","legacy","legacy","0","uniform","1","0","0","undefined","undefined","1","j","2","1","NA","0","1","0","0","0","0","0","0","0","0","27","27","27","0","0","0","NA","0","0","2","0","0","0","2","27","27","27","27","27","Sat Nov 11 21:22:16 2017","Forced-choice identification task with a practice and an experimental phase","yes","NAP_GER_AA_4blocks_noglides.osexp","/Users/aviadalbert/Documents/Academisch/UoC/Dissertation/Experiment/OpenSesame/NAP-FC/NAP_GER_AA_4blocks_noglides","yes","no","sans","no","20","no","black","no","Weiter","yes","768","legacy","17","9","0","/Users/aviadalbert/Documents/Academisch/UoC/Dissertation/Experiment/OpenSesame/NAP-FC/NAP_GER_AA_4blocks_noglides/subject-50.csv","xpyriment","Jazzy James","3.1.9","yes","yes","59a800d99ad5a1025d81bb03","59a801616c613b0251691de0","no","no","0","j","f","space","NA","space","space","j","796","1826","64544","NA","39382","12097","796","2","legacy","1024","1","44100","-16","experiment","ʃemal","3","2","0","0","1","Englisch","50","","even","7542238","7477167","NA","NA","7544066","7542234","NA","7311729","7541767","7311730","7311729","7389131","7428518","7592848","7591343","7593645","7443665","7440895","7477167","NA","7328151","7370062","7475516","7440684","7542237","7440899","NA","7592848","7592848","NA","NA","7591339","NAP perception","13","17585","18","yes","1024"
"68.4210526316","yes","68.4210526316","985.894736842","985.894736842","white","no","xpyriment","Ich habe die obigen Informationen gelesen und verstanden.","legacy","legacy","0","uniform","0","0","0","undefined","undefined","0","f","2","1","NA","0","1","0","0","0","0","0","0","0","0","28","28","28","0","0","0","NA","0","0","2","0","0","0","2","28","28","28","28","28","Sat Nov 11 21:22:16 2017","Forced-choice identification task with a practice and an experimental phase","yes","NAP_GER_AA_4blocks_noglides.osexp","/Users/aviadalbert/Documents/Academisch/UoC/Dissertation/Experiment/OpenSesame/NAP-FC/NAP_GER_AA_4blocks_noglides","yes","no","sans","no","20","no","black","no","Weiter","yes","768","legacy","18","9","0","/Users/aviadalbert/Documents/Academisch/UoC/Dissertation/Experiment/OpenSesame/NAP-FC/NAP_GER_AA_4blocks_noglides/subject-50.csv","xpyriment","Jazzy James","3.1.9","yes","yes","59a800d99ad5a1025d81bb03","59a801616c613b0251691de0","no","no","0","j","f","space","NA","space","space","j","1147","1826","64544","NA","39382","12097","1147","2","legacy","1024","1","44100","-16","experiment","vzal","3","2","0","0","1","Englisch","50","","even","7542238","7477167","NA","NA","7544066","7542234","NA","7311729","7541767","7311730","7311729","7389131","7428518","7595437","7593934","7596585","7443665","7440895","7477167","NA","7328151","7370062","7475516","7440684","7542237","7440899","NA","7595437","7595437","NA","NA","7593930","NAP perception","13","18732","19","yes","1024"
"70","yes","70","973.7","973.7","white","no","xpyriment","Ich habe die obigen Informationen gelesen und verstanden.","legacy","legacy","0","uniform","1","0","0","undefined","undefined","1","j","2","1","NA","0","1","0","0","0","0","0","0","0","0","29","29","29","0","0","0","NA","0","0","2","0","0","0","2","29","29","29","29","29","Sat Nov 11 21:22:16 2017","Forced-choice identification task with a practice and an experimental phase","yes","NAP_GER_AA_4blocks_noglides.osexp","/Users/aviadalbert/Documents/Academisch/UoC/Dissertation/Experiment/OpenSesame/NAP-FC/NAP_GER_AA_4blocks_noglides","yes","no","sans","no","20","no","black","no","Weiter","yes","768","legacy","19","9","0","/Users/aviadalbert/Documents/Academisch/UoC/Dissertation/Experiment/OpenSesame/NAP-FC/NAP_GER_AA_4blocks_noglides/subject-50.csv","xpyriment","Jazzy James","3.1.9","yes","yes","59a800d99ad5a1025d81bb03","59a801616c613b0251691de0","no","no","0","j","f","space","NA","space","space","j","742","1826","64544","NA","39382","12097","742","2","legacy","1024","1","44100","-16","experiment","ezmal","3","2","0","0","1","Englisch","50","","even","7542238","7477167","NA","NA","7544066","7542234","NA","7311729","7541767","7311730","7311729","7389131","7428518","7598352","7596849","7599095","7443665","7440895","7477167","NA","7328151","7370062","7475516","7440684","7542237","7440899","NA","7598352","7598352","NA","NA","7596845","NAP perception","14","19474","20","yes","1024"
"71.4285714286","yes","71.4285714286","962.904761905","962.904761905","white","no","xpyriment","Ich habe die obigen Informationen gelesen und verstanden.","legacy","legacy","0","uniform","1","0","0","undefined","undefined","1","j","2","1","NA","0","1","0","0","0","0","0","0","0","0","30","30","30","0","0","0","NA","0","0","2","0","0","0","2","30","30","30","30","30","Sat Nov 11 21:22:16 2017","Forced-choice identification task with a practice and an experimental phase","yes","NAP_GER_AA_4blocks_noglides.osexp","/Users/aviadalbert/Documents/Academisch/UoC/Dissertation/Experiment/OpenSesame/NAP-FC/NAP_GER_AA_4blocks_noglides","yes","no","sans","no","20","no","black","no","Weiter","yes","768","legacy","20","9","0","/Users/aviadalbert/Documents/Academisch/UoC/Dissertation/Experiment/OpenSesame/NAP-FC/NAP_GER_AA_4blocks_noglides/subject-50.csv","xpyriment","Jazzy James","3.1.9","yes","yes","59a800d99ad5a1025d81bb03","59a801616c613b0251691de0","no","no","0","j","f","space","NA","space","space","j","747","1826","64544","NA","39382","12097","747","2","legacy","1024","1","44100","-16","experiment","enval","3","2","0","0","1","Englisch","50","","even","7542238","7477167","NA","NA","7544066","7542234","NA","7311729","7541767","7311730","7311729","7389131","7428518","7600879","7599375","7601627","7443665","7440895","7477167","NA","7328151","7370062","7475516","7440684","7542237","7440899","NA","7600879","7600879","NA","NA","7599371","NAP perception","15","20221","21","yes","1024"
"72.7272727273","yes","72.7272727273","954.772727273","954.772727273","white","no","xpyriment","Ich habe die obigen Informationen gelesen und verstanden.","legacy","legacy","0","uniform","1","0","0","undefined","undefined","1","f","2","1","NA","0","1","0","0","0","0","0","0","0","0","31","31","31","0","0","0","NA","0","0","2","0","0","0","2","31","31","31","31","31","Sat Nov 11 21:22:16 2017","Forced-choice identification task with a practice and an experimental phase","yes","NAP_GER_AA_4blocks_noglides.osexp","/Users/aviadalbert/Documents/Academisch/UoC/Dissertation/Experiment/OpenSesame/NAP-FC/NAP_GER_AA_4blocks_noglides","yes","no","sans","no","20","no","black","no","Weiter","yes","768","legacy","21","9","0","/Users/aviadalbert/Documents/Academisch/UoC/Dissertation/Experiment/OpenSesame/NAP-FC/NAP_GER_AA_4blocks_noglides/subject-50.csv","xpyriment","Jazzy James","3.1.9","yes","yes","59a800d99ad5a1025d81bb03","59a801616c613b0251691de0","no","no","0","f","f","space","NA","space","space","f","784","1826","64544","NA","39382","12097","784","2","legacy","1024","1","44100","-16","experiment","zval","3","2","0","0","1","Englisch","50","","even","7542238","7477167","NA","NA","7544066","7542234","NA","7311729","7541767","7311730","7311729","7389131","7428518","7603414","7601911","7604200","7443665","7440895","7477167","NA","7328151","7370062","7475516","7440684","7542237","7440899","NA","7603414","7603414","NA","NA","7601907","NAP perception","16","21005","22","yes","1024"
"69.5652173913","yes","69.5652173913","960.565217391","960.565217391","white","no","xpyriment","Ich habe die obigen Informationen gelesen und verstanden.","legacy","legacy","0","uniform","0","0","0","undefined","undefined","0","f","2","1","NA","0","1","0","0","0","0","0","0","0","0","32","32","32","0","0","0","NA","0","0","2","0","0","0","2","32","32","32","32","32","Sat Nov 11 21:22:16 2017","Forced-choice identification task with a practice and an experimental phase","yes","NAP_GER_AA_4blocks_noglides.osexp","/Users/aviadalbert/Documents/Academisch/UoC/Dissertation/Experiment/OpenSesame/NAP-FC/NAP_GER_AA_4blocks_noglides","yes","no","sans","no","20","no","black","no","Weiter","yes","768","legacy","22","9","0","/Users/aviadalbert/Documents/Academisch/UoC/Dissertation/Experiment/OpenSesame/NAP-FC/NAP_GER_AA_4blocks_noglides/subject-50.csv","xpyriment","Jazzy James","3.1.9","yes","yes","59a800d99ad5a1025d81bb03","59a801616c613b0251691de0","no","no","0","j","f","space","NA","space","space","j","1088","1826","64544","NA","39382","12097","1088","2","legacy","1024","1","44100","-16","experiment","msal","3","2","0","0","1","Englisch","50","","even","7542238","7477167","NA","NA","7544066","7542234","NA","7311729","7541767","7311730","7311729","7389131","7428518","7605982","7604479","7607071","7443665","7440895","7477167","NA","7328151","7370062","7475516","7440684","7542237","7440899","NA","7605982","7605982","NA","NA","7604475","NAP perception","16","22093","23","yes","1024"
"70.8333333333","yes","70.8333333333","954.958333333","954.958333333","white","no","xpyriment","Ich habe die obigen Informationen gelesen und verstanden.","legacy","legacy","0","uniform","1","0","0","undefined","undefined","1","j","2","1","NA","0","1","0","0","0","0","0","0","0","0","33","33","33","0","0","0","NA","0","0","2","0","0","0","2","33","33","33","33","33","Sat Nov 11 21:22:16 2017","Forced-choice identification task with a practice and an experimental phase","yes","NAP_GER_AA_4blocks_noglides.osexp","/Users/aviadalbert/Documents/Academisch/UoC/Dissertation/Experiment/OpenSesame/NAP-FC/NAP_GER_AA_4blocks_noglides","yes","no","sans","no","20","no","black","no","Weiter","yes","768","legacy","23","9","0","/Users/aviadalbert/Documents/Academisch/UoC/Dissertation/Experiment/OpenSesame/NAP-FC/NAP_GER_AA_4blocks_noglides/subject-50.csv","xpyriment","Jazzy James","3.1.9","yes","yes","59a800d99ad5a1025d81bb03","59a801616c613b0251691de0","no","no","0","j","f","space","NA","space","space","j","826","1826","64544","NA","39382","12097","826","2","legacy","1024","1","44100","-16","experiment","elfal","3","2","0","0","1","Englisch","50","","even","7542238","7477167","NA","NA","7544066","7542234","NA","7311729","7541767","7311730","7311729","7389131","7428518","7608847","7607343","7609675","7443665","7440895","7477167","NA","7328151","7370062","7475516","7440684","7542237","7440899","NA","7608847","7608847","NA","NA","7607339","NAP perception","17","22919","24","yes","1024"
"68","yes","68","945.68","945.68","white","no","xpyriment","Ich habe die obigen Informationen gelesen und verstanden.","legacy","legacy","0","uniform","0","0","0","undefined","undefined","0","f","2","1","NA","0","1","0","0","0","0","0","0","0","0","34","34","34","0","0","0","NA","0","0","2","0","0","0","2","34","34","34","34","34","Sat Nov 11 21:22:16 2017","Forced-choice identification task with a practice and an experimental phase","yes","NAP_GER_AA_4blocks_noglides.osexp","/Users/aviadalbert/Documents/Academisch/UoC/Dissertation/Experiment/OpenSesame/NAP-FC/NAP_GER_AA_4blocks_noglides","yes","no","sans","no","20","no","black","no","Weiter","yes","768","legacy","24","9","0","/Users/aviadalbert/Documents/Academisch/UoC/Dissertation/Experiment/OpenSesame/NAP-FC/NAP_GER_AA_4blocks_noglides/subject-50.csv","xpyriment","Jazzy James","3.1.9","yes","yes","59a800d99ad5a1025d81bb03","59a801616c613b0251691de0","no","no","0","j","f","space","NA","space","space","j","723","1826","64544","NA","39382","12097","723","2","legacy","1024","1","44100","-16","experiment","mzal","3","2","0","0","1","Englisch","50","","even","7542238","7477167","NA","NA","7544066","7542234","NA","7311729","7541767","7311730","7311729","7389131","7428518","7611456","7609952","7612181","7443665","7440895","7477167","NA","7328151","7370062","7475516","7440684","7542237","7440899","NA","7611456","7611456","NA","NA","7609948","NAP perception","17","23642","25","yes","1024"
"69.2307692308","yes","69.2307692308","934.769230769","934.769230769","white","no","xpyriment","Ich habe die obigen Informationen gelesen und verstanden.","legacy","legacy","0","uniform","1","0","0","undefined","undefined","1","f","2","1","NA","0","1","0","0","0","0","0","0","0","0","35","35","35","0","0","0","NA","0","0","2","0","0","0","2","35","35","35","35","35","Sat Nov 11 21:22:16 2017","Forced-choice identification task with a practice and an experimental phase","yes","NAP_GER_AA_4blocks_noglides.osexp","/Users/aviadalbert/Documents/Academisch/UoC/Dissertation/Experiment/OpenSesame/NAP-FC/NAP_GER_AA_4blocks_noglides","yes","no","sans","no","20","no","black","no","Weiter","yes","768","legacy","25","9","0","/Users/aviadalbert/Documents/Academisch/UoC/Dissertation/Experiment/OpenSesame/NAP-FC/NAP_GER_AA_4blocks_noglides/subject-50.csv","xpyriment","Jazzy James","3.1.9","yes","yes","59a800d99ad5a1025d81bb03","59a801616c613b0251691de0","no","no","0","f","f","space","NA","space","space","f","662","1826","64544","NA","39382","12097","662","2","legacy","1024","1","44100","-16","experiment","ftal","3","2","0","0","1","Englisch","50","","even","7542238","7477167","NA","NA","7544066","7542234","NA","7311729","7541767","7311730","7311729","7389131","7428518","7613960","7612452","7614623","7443665","7440895","7477167","NA","7328151","7370062","7475516","7440684","7542237","7440899","NA","7613960","7613960","NA","NA","7612448","NAP perception","18","24304","26","yes","1024"
"70.3703703704","yes","70.3703703704","930.074074074","930.074074074","white","no","xpyriment","Ich habe die obigen Informationen gelesen und verstanden.","legacy","legacy","0","uniform","1","0","0","undefined","undefined","1","f","2","1","NA","0","1","0","0","0","0","0","0","0","0","36","36","36","0","0","0","NA","0","0","2","0","0","0","2","36","36","36","36","36","Sat Nov 11 21:22:16 2017","Forced-choice identification task with a practice and an experimental phase","yes","NAP_GER_AA_4blocks_noglides.osexp","/Users/aviadalbert/Documents/Academisch/UoC/Dissertation/Experiment/OpenSesame/NAP-FC/NAP_GER_AA_4blocks_noglides","yes","no","sans","no","20","no","black","no","Weiter","yes","768","legacy","26","9","0","/Users/aviadalbert/Documents/Academisch/UoC/Dissertation/Experiment/OpenSesame/NAP-FC/NAP_GER_AA_4blocks_noglides/subject-50.csv","xpyriment","Jazzy James","3.1.9","yes","yes","59a800d99ad5a1025d81bb03","59a801616c613b0251691de0","no","no","0","f","f","space","NA","space","space","f","808","1826","64544","NA","39382","12097","808","2","legacy","1024","1","44100","-16","experiment","ʃpal","3","2","0","0","1","Englisch","50","","even","7542238","7477167","NA","NA","7544066","7542234","NA","7311729","7541767","7311730","7311729","7389131","7428518","7616395","7614892","7617204","7443665","7440895","7477167","NA","7328151","7370062","7475516","7440684","7542237","7440899","NA","7616395","7616395","NA","NA","7614888","NAP perception","19","25112","27","yes","1024"
"71.4285714286","yes","71.4285714286","942.714285714","942.714285714","white","no","xpyriment","Ich habe die obigen Informationen gelesen und verstanden.","legacy","legacy","0","uniform","1","0","0","undefined","undefined","1","j","2","1","NA","0","1","0","0","0","0","0","0","0","0","37","37","37","0","0","0","NA","0","0","2","0","0","0","2","37","37","37","37","37","Sat Nov 11 21:22:16 2017","Forced-choice identification task with a practice and an experimental phase","yes","NAP_GER_AA_4blocks_noglides.osexp","/Users/aviadalbert/Documents/Academisch/UoC/Dissertation/Experiment/OpenSesame/NAP-FC/NAP_GER_AA_4blocks_noglides","yes","no","sans","no","20","no","black","no","Weiter","yes","768","legacy","27","9","0","/Users/aviadalbert/Documents/Academisch/UoC/Dissertation/Experiment/OpenSesame/NAP-FC/NAP_GER_AA_4blocks_noglides/subject-50.csv","xpyriment","Jazzy James","3.1.9","yes","yes","59a800d99ad5a1025d81bb03","59a801616c613b0251691de0","no","no","0","j","f","space","NA","space","space","j","1284","1826","64544","NA","39382","12097","1284","2","legacy","1024","1","44100","-16","experiment","eʃpal","3","2","0","0","1","Englisch","50","","even","7542238","7477167","NA","NA","7544066","7542234","NA","7311729","7541767","7311730","7311729","7389131","7428518","7618987","7617483","7620273","7443665","7440895","7477167","NA","7328151","7370062","7475516","7440684","7542237","7440899","NA","7618987","7618987","NA","NA","7617479","NAP perception","20","26396","28","yes","1024"
"72.4137931034","yes","72.4137931034","936.620689655","936.620689655","white","no","xpyriment","Ich habe die obigen Informationen gelesen und verstanden.","legacy","legacy","0","uniform","1","0","0","undefined","undefined","1","j","2","1","NA","0","1","0","0","0","0","0","0","0","0","38","38","38","0","0","0","NA","0","0","2","0","0","0","2","38","38","38","38","38","Sat Nov 11 21:22:16 2017","Forced-choice identification task with a practice and an experimental phase","yes","NAP_GER_AA_4blocks_noglides.osexp","/Users/aviadalbert/Documents/Academisch/UoC/Dissertation/Experiment/OpenSesame/NAP-FC/NAP_GER_AA_4blocks_noglides","yes","no","sans","no","20","no","black","no","Weiter","yes","768","legacy","28","9","0","/Users/aviadalbert/Documents/Academisch/UoC/Dissertation/Experiment/OpenSesame/NAP-FC/NAP_GER_AA_4blocks_noglides/subject-50.csv","xpyriment","Jazzy James","3.1.9","yes","yes","59a800d99ad5a1025d81bb03","59a801616c613b0251691de0","no","no","0","j","f","space","NA","space","space","j","766","1826","64544","NA","39382","12097","766","2","legacy","1024","1","44100","-16","experiment","melal","3","2","0","0","1","Englisch","50","","even","7542238","7477167","NA","NA","7544066","7542234","NA","7311729","7541767","7311730","7311729","7389131","7428518","7622057","7620553","7622824","7443665","7440895","7477167","NA","7328151","7370062","7475516","7440684","7542237","7440899","NA","7622057","7622057","NA","NA","7620549","NAP perception","21","27162","29","yes","1024"
"70","yes","70","956.066666667","956.066666667","white","no","xpyriment","Ich habe die obigen Informationen gelesen und verstanden.","legacy","legacy","0","uniform","0","0","0","undefined","undefined","0","f","2","1","NA","0","1","0","0","0","0","0","0","0","0","39","39","39","0","0","0","NA","0","0","2","0","0","0","2","39","39","39","39","39","Sat Nov 11 21:22:16 2017","Forced-choice identification task with a practice and an experimental phase","yes","NAP_GER_AA_4blocks_noglides.osexp","/Users/aviadalbert/Documents/Academisch/UoC/Dissertation/Experiment/OpenSesame/NAP-FC/NAP_GER_AA_4blocks_noglides","yes","no","sans","no","20","no","black","no","Weiter","yes","768","legacy","29","9","0","/Users/aviadalbert/Documents/Academisch/UoC/Dissertation/Experiment/OpenSesame/NAP-FC/NAP_GER_AA_4blocks_noglides/subject-50.csv","xpyriment","Jazzy James","3.1.9","yes","yes","59a800d99ad5a1025d81bb03","59a801616c613b0251691de0","no","no","0","j","f","space","NA","space","space","j","1520","1826","64544","NA","39382","12097","1520","2","legacy","1024","1","44100","-16","experiment","lfal","3","2","0","0","1","Englisch","50","","even","7542238","7477167","NA","NA","7544066","7542234","NA","7311729","7541767","7311730","7311729","7389131","7428518","7624611","7623108","7626132","7443665","7440895","7477167","NA","7328151","7370062","7475516","7440684","7542237","7440899","NA","7624611","7624611","NA","NA","7623104","NAP perception","21","28682","30","yes","1024"
"70.9677419355","yes","70.9677419355","950.322580645","950.322580645","white","no","xpyriment","Ich habe die obigen Informationen gelesen und verstanden.","legacy","legacy","0","uniform","1","0","0","undefined","undefined","1","j","2","1","NA","0","1","0","0","0","0","0","0","0","0","40","40","40","0","0","0","NA","0","0","2","0","0","0","2","40","40","40","40","40","Sat Nov 11 21:22:16 2017","Forced-choice identification task with a practice and an experimental phase","yes","NAP_GER_AA_4blocks_noglides.osexp","/Users/aviadalbert/Documents/Academisch/UoC/Dissertation/Experiment/OpenSesame/NAP-FC/NAP_GER_AA_4blocks_noglides","yes","no","sans","no","20","no","black","no","Weiter","yes","768","legacy","30","9","0","/Users/aviadalbert/Documents/Academisch/UoC/Dissertation/Experiment/OpenSesame/NAP-FC/NAP_GER_AA_4blocks_noglides/subject-50.csv","xpyriment","Jazzy James","3.1.9","yes","yes","59a800d99ad5a1025d81bb03","59a801616c613b0251691de0","no","no","0","j","f","space","NA","space","space","j","778","1826","64544","NA","39382","12097","778","2","legacy","1024","1","44100","-16","experiment","emzal","3","2","0","0","1","Englisch","50","","even","7542238","7477167","NA","NA","7544066","7542234","NA","7311729","7541767","7311730","7311729","7389131","7428518","7627902","7626398","7628681","7443665","7440895","7477167","NA","7328151","7370062","7475516","7440684","7542237","7440899","NA","7627902","7627902","NA","NA","7626394","NAP perception","22","29460","31","yes","1024"
"68.75","yes","68.75","948.3125","948.3125","white","no","xpyriment","Ich habe die obigen Informationen gelesen und verstanden.","legacy","legacy","0","uniform","0","0","0","undefined","undefined","0","f","2","1","NA","0","1","0","0","0","0","0","0","0","0","41","41","41","0","0","0","NA","0","0","2","0","0","0","2","41","41","41","41","41","Sat Nov 11 21:22:16 2017","Forced-choice identification task with a practice and an experimental phase","yes","NAP_GER_AA_4blocks_noglides.osexp","/Users/aviadalbert/Documents/Academisch/UoC/Dissertation/Experiment/OpenSesame/NAP-FC/NAP_GER_AA_4blocks_noglides","yes","no","sans","no","20","no","black","no","Weiter","yes","768","legacy","31","9","0","/Users/aviadalbert/Documents/Academisch/UoC/Dissertation/Experiment/OpenSesame/NAP-FC/NAP_GER_AA_4blocks_noglides/subject-50.csv","xpyriment","Jazzy James","3.1.9","yes","yes","59a800d99ad5a1025d81bb03","59a801616c613b0251691de0","no","no","0","j","f","space","NA","space","space","j","886","1826","64544","NA","39382","12097","886","2","legacy","1024","1","44100","-16","experiment","nval","3","2","0","0","1","Englisch","50","","even","7542238","7477167","NA","NA","7544066","7542234","NA","7311729","7541767","7311730","7311729","7389131","7428518","7630475","7628972","7631362","7443665","7440895","7477167","NA","7328151","7370062","7475516","7440684","7542237","7440899","NA","7630475","7630475","NA","NA","7628968","NAP perception","22","30346","32","yes","1024"
"69.696969697","yes","69.696969697","960.787878788","960.787878788","white","no","xpyriment","Ich habe die obigen Informationen gelesen und verstanden.","legacy","legacy","0","uniform","1","0","0","undefined","undefined","1","j","2","1","NA","0","1","0","0","0","0","0","0","0","0","42","42","42","0","0","0","NA","0","0","2","0","0","0","2","42","42","42","42","42","Sat Nov 11 21:22:16 2017","Forced-choice identification task with a practice and an experimental phase","yes","NAP_GER_AA_4blocks_noglides.osexp","/Users/aviadalbert/Documents/Academisch/UoC/Dissertation/Experiment/OpenSesame/NAP-FC/NAP_GER_AA_4blocks_noglides","yes","no","sans","no","20","no","black","no","Weiter","yes","768","legacy","32","9","0","/Users/aviadalbert/Documents/Academisch/UoC/Dissertation/Experiment/OpenSesame/NAP-FC/NAP_GER_AA_4blocks_noglides/subject-50.csv","xpyriment","Jazzy James","3.1.9","yes","yes","59a800d99ad5a1025d81bb03","59a801616c613b0251691de0","no","no","0","j","f","space","NA","space","space","j","1360","1826","64544","NA","39382","12097","1360","2","legacy","1024","1","44100","-16","experiment","emsal","3","2","0","0","1","Englisch","50","","even","7542238","7477167","NA","NA","7544066","7542234","NA","7311729","7541767","7311730","7311729","7389131","7428518","7633136","7631632","7634497","7443665","7440895","7477167","NA","7328151","7370062","7475516","7440684","7542237","7440899","NA","7633135","7633136","NA","NA","7631628","NAP perception","23","31706","33","yes","1024"
"70.5882352941","yes","70.5882352941","954.647058824","954.647058824","white","no","xpyriment","Ich habe die obigen Informationen gelesen und verstanden.","legacy","legacy","0","uniform","1","0","0","undefined","undefined","1","j","2","1","NA","0","1","0","0","0","0","0","0","0","0","43","43","43","0","0","0","NA","0","0","2","0","0","0","2","43","43","43","43","43","Sat Nov 11 21:22:16 2017","Forced-choice identification task with a practice and an experimental phase","yes","NAP_GER_AA_4blocks_noglides.osexp","/Users/aviadalbert/Documents/Academisch/UoC/Dissertation/Experiment/OpenSesame/NAP-FC/NAP_GER_AA_4blocks_noglides","yes","no","sans","no","20","no","black","no","Weiter","yes","768","legacy","33","9","0","/Users/aviadalbert/Documents/Academisch/UoC/Dissertation/Experiment/OpenSesame/NAP-FC/NAP_GER_AA_4blocks_noglides/subject-50.csv","xpyriment","Jazzy James","3.1.9","yes","yes","59a800d99ad5a1025d81bb03","59a801616c613b0251691de0","no","no","0","j","f","space","NA","space","space","j","752","1826","64544","NA","39382","12097","752","2","legacy","1024","1","44100","-16","experiment","zeval","3","2","0","0","1","Englisch","50","","even","7542238","7477167","NA","NA","7544066","7542234","NA","7311729","7541767","7311730","7311729","7389131","7428518","7636259","7634756","7637012","7443665","7440895","7477167","NA","7328151","7370062","7475516","7440684","7542237","7440899","NA","7636259","7636259","NA","NA","7634752","NAP perception","24","32458","34","yes","1024"
"68.5714285714","yes","68.5714285714","959.342857143","959.342857143","white","no","xpyriment","Ich habe die obigen Informationen gelesen und verstanden.","legacy","legacy","0","uniform","0","0","0","undefined","undefined","0","f","2","1","NA","0","1","0","0","0","0","0","0","0","0","44","44","44","0","0","0","NA","0","0","2","0","0","0","2","44","44","44","44","44","Sat Nov 11 21:22:16 2017","Forced-choice identification task with a practice and an experimental phase","yes","NAP_GER_AA_4blocks_noglides.osexp","/Users/aviadalbert/Documents/Academisch/UoC/Dissertation/Experiment/OpenSesame/NAP-FC/NAP_GER_AA_4blocks_noglides","yes","no","sans","no","20","no","black","no","Weiter","yes","768","legacy","34","9","0","/Users/aviadalbert/Documents/Academisch/UoC/Dissertation/Experiment/OpenSesame/NAP-FC/NAP_GER_AA_4blocks_noglides/subject-50.csv","xpyriment","Jazzy James","3.1.9","yes","yes","59a800d99ad5a1025d81bb03","59a801616c613b0251691de0","no","no","0","j","f","space","NA","space","space","j","1119","1826","64544","NA","39382","12097","1119","2","legacy","1024","1","44100","-16","experiment","ʃpal","3","2","0","0","1","Englisch","50","","even","7542238","7477167","NA","NA","7544066","7542234","NA","7311729","7541767","7311730","7311729","7389131","7428518","7638795","7637288","7639915","7443665","7440895","7477167","NA","7328151","7370062","7475516","7440684","7542237","7440899","NA","7638795","7638795","NA","NA","7637284","NAP perception","24","33577","35","yes","1024"
"66.6666666667","yes","66.6666666667","967.111111111","967.111111111","white","no","xpyriment","Ich habe die obigen Informationen gelesen und verstanden.","legacy","legacy","0","uniform","0","0","0","undefined","undefined","0","f","2","1","NA","0","1","0","0","0","0","0","0","0","0","45","45","45","0","0","0","NA","0","0","2","0","0","0","2","45","45","45","45","45","Sat Nov 11 21:22:16 2017","Forced-choice identification task with a practice and an experimental phase","yes","NAP_GER_AA_4blocks_noglides.osexp","/Users/aviadalbert/Documents/Academisch/UoC/Dissertation/Experiment/OpenSesame/NAP-FC/NAP_GER_AA_4blocks_noglides","yes","no","sans","no","20","no","black","no","Weiter","yes","768","legacy","35","9","0","/Users/aviadalbert/Documents/Academisch/UoC/Dissertation/Experiment/OpenSesame/NAP-FC/NAP_GER_AA_4blocks_noglides/subject-50.csv","xpyriment","Jazzy James","3.1.9","yes","yes","59a800d99ad5a1025d81bb03","59a801616c613b0251691de0","no","no","0","j","f","space","NA","space","space","j","1239","1826","64544","NA","39382","12097","1239","2","legacy","1024","1","44100","-16","experiment","nfal","3","2","0","0","1","Englisch","50","","even","7542238","7477167","NA","NA","7544066","7542234","NA","7311729","7541767","7311730","7311729","7389131","7428518","7641701","7640195","7642941","7443665","7440895","7477167","NA","7328151","7370062","7475516","7440684","7542237","7440899","NA","7641700","7641700","NA","NA","7640191","NAP perception","24","34816","36","yes","1024"
"67.5675675676","yes","67.5675675676","976.648648649","976.648648649","white","no","xpyriment","Ich habe die obigen Informationen gelesen und verstanden.","legacy","legacy","0","uniform","1","0","0","undefined","undefined","1","j","2","1","NA","0","1","0","0","0","0","0","0","0","0","46","46","46","0","0","0","NA","0","0","2","0","0","0","2","46","46","46","46","46","Sat Nov 11 21:22:16 2017","Forced-choice identification task with a practice and an experimental phase","yes","NAP_GER_AA_4blocks_noglides.osexp","/Users/aviadalbert/Documents/Academisch/UoC/Dissertation/Experiment/OpenSesame/NAP-FC/NAP_GER_AA_4blocks_noglides","yes","no","sans","no","20","no","black","no","Weiter","yes","768","legacy","36","9","0","/Users/aviadalbert/Documents/Academisch/UoC/Dissertation/Experiment/OpenSesame/NAP-FC/NAP_GER_AA_4blocks_noglides/subject-50.csv","xpyriment","Jazzy James","3.1.9","yes","yes","59a800d99ad5a1025d81bb03","59a801616c613b0251691de0","no","no","0","j","f","space","NA","space","space","j","1320","1826","64544","NA","39382","12097","1320","2","legacy","1024","1","44100","-16","experiment","esfal","3","2","0","0","1","Englisch","50","","even","7542238","7477167","NA","NA","7544066","7542234","NA","7311729","7541767","7311730","7311729","7389131","7428518","7644700","7643196","7646021","7443665","7440895","7477167","NA","7328151","7370062","7475516","7440684","7542237","7440899","NA","7644699","7644700","NA","NA","7643192","NAP perception","25","36136","37","yes","1024"
"68.4210526316","yes","68.4210526316","982","982","white","no","xpyriment","Ich habe die obigen Informationen gelesen und verstanden.","legacy","legacy","0","uniform","1","0","0","undefined","undefined","1","j","2","1","NA","0","1","0","0","0","0","0","0","0","0","47","47","47","0","0","0","NA","0","0","2","0","0","0","2","47","47","47","47","47","Sat Nov 11 21:22:16 2017","Forced-choice identification task with a practice and an experimental phase","yes","NAP_GER_AA_4blocks_noglides.osexp","/Users/aviadalbert/Documents/Academisch/UoC/Dissertation/Experiment/OpenSesame/NAP-FC/NAP_GER_AA_4blocks_noglides","yes","no","sans","no","20","no","black","no","Weiter","yes","768","legacy","37","9","0","/Users/aviadalbert/Documents/Academisch/UoC/Dissertation/Experiment/OpenSesame/NAP-FC/NAP_GER_AA_4blocks_noglides/subject-50.csv","xpyriment","Jazzy James","3.1.9","yes","yes","59a800d99ad5a1025d81bb03","59a801616c613b0251691de0","no","no","0","j","f","space","NA","space","space","j","1180","1826","64544","NA","39382","12097","1180","2","legacy","1024","1","44100","-16","experiment","efsal","3","2","0","0","1","Englisch","50","","even","7542238","7477167","NA","NA","7544066","7542234","NA","7311729","7541767","7311730","7311729","7389131","7428518","7647809","7646302","7648990","7443665","7440895","7477167","NA","7328151","7370062","7475516","7440684","7542237","7440899","NA","7647809","7647809","NA","NA","7646298","NAP perception","26","37316","38","yes","1024"
"66.6666666667","yes","66.6666666667","991.769230769","991.769230769","white","no","xpyriment","Ich habe die obigen Informationen gelesen und verstanden.","legacy","legacy","0","uniform","0","0","0","undefined","undefined","0","f","2","1","NA","0","1","0","0","0","0","0","0","0","0","48","48","48","0","0","0","NA","0","0","2","0","0","0","2","48","48","48","48","48","Sat Nov 11 21:22:16 2017","Forced-choice identification task with a practice and an experimental phase","yes","NAP_GER_AA_4blocks_noglides.osexp","/Users/aviadalbert/Documents/Academisch/UoC/Dissertation/Experiment/OpenSesame/NAP-FC/NAP_GER_AA_4blocks_noglides","yes","no","sans","no","20","no","black","no","Weiter","yes","768","legacy","38","9","0","/Users/aviadalbert/Documents/Academisch/UoC/Dissertation/Experiment/OpenSesame/NAP-FC/NAP_GER_AA_4blocks_noglides/subject-50.csv","xpyriment","Jazzy James","3.1.9","yes","yes","59a800d99ad5a1025d81bb03","59a801616c613b0251691de0","no","no","0","j","f","space","NA","space","space","j","1363","1826","64544","NA","39382","12097","1363","2","legacy","1024","1","44100","-16","experiment","mtal","3","2","0","0","1","Englisch","50","","even","7542238","7477167","NA","NA","7544066","7542234","NA","7311729","7541767","7311730","7311729","7389131","7428518","7650763","7649260","7652128","7443665","7440895","7477167","NA","7328151","7370062","7475516","7440684","7542237","7440899","NA","7650763","7650763","NA","NA","7649256","NAP perception","26","38679","39","yes","1024"
"67.5","yes","67.5","998.85","998.85","white","no","xpyriment","Ich habe die obigen Informationen gelesen und verstanden.","legacy","legacy","0","uniform","1","0","0","undefined","undefined","1","j","2","1","NA","0","1","0","0","0","0","0","0","0","0","49","49","49","0","0","0","NA","0","0","2","0","0","0","2","49","49","49","49","49","Sat Nov 11 21:22:16 2017","Forced-choice identification task with a practice and an experimental phase","yes","NAP_GER_AA_4blocks_noglides.osexp","/Users/aviadalbert/Documents/Academisch/UoC/Dissertation/Experiment/OpenSesame/NAP-FC/NAP_GER_AA_4blocks_noglides","yes","no","sans","no","20","no","black","no","Weiter","yes","768","legacy","39","9","0","/Users/aviadalbert/Documents/Academisch/UoC/Dissertation/Experiment/OpenSesame/NAP-FC/NAP_GER_AA_4blocks_noglides/subject-50.csv","xpyriment","Jazzy James","3.1.9","yes","yes","59a800d99ad5a1025d81bb03","59a801616c613b0251691de0","no","no","0","j","f","space","NA","space","space","j","1275","1826","64544","NA","39382","12097","1275","2","legacy","1024","1","44100","-16","experiment","nemal","3","2","0","0","1","Englisch","50","","even","7542238","7477167","NA","NA","7544066","7542234","NA","7311729","7541767","7311730","7311729","7389131","7428518","7653904","7652397","7655180","7443665","7440895","7477167","NA","7328151","7370062","7475516","7440684","7542237","7440899","NA","7653904","7653904","NA","NA","7652393","NAP perception","27","39954","40","yes","1024"
"68.2926829268","yes","68.2926829268","1008.24390244","1008.24390244","white","no","xpyriment","Ich habe die obigen Informationen gelesen und verstanden.","legacy","legacy","0","uniform","1","0","0","undefined","undefined","1","j","2","1","NA","0","1","0","0","0","0","0","0","0","0","50","50","50","0","0","0","NA","0","0","2","0","0","0","2","50","50","50","50","50","Sat Nov 11 21:22:16 2017","Forced-choice identification task with a practice and an experimental phase","yes","NAP_GER_AA_4blocks_noglides.osexp","/Users/aviadalbert/Documents/Academisch/UoC/Dissertation/Experiment/OpenSesame/NAP-FC/NAP_GER_AA_4blocks_noglides","yes","no","sans","no","20","no","black","no","Weiter","yes","768","legacy","40","9","0","/Users/aviadalbert/Documents/Academisch/UoC/Dissertation/Experiment/OpenSesame/NAP-FC/NAP_GER_AA_4blocks_noglides/subject-50.csv","xpyriment","Jazzy James","3.1.9","yes","yes","59a800d99ad5a1025d81bb03","59a801616c613b0251691de0","no","no","0","j","f","space","NA","space","space","j","1384","1826","64544","NA","39382","12097","1384","2","legacy","1024","1","44100","-16","experiment","lemal","3","2","0","0","1","Englisch","50","","even","7542238","7477167","NA","NA","7544066","7542234","NA","7311729","7541767","7311730","7311729","7389131","7428518","7656939","7655435","7658324","7443665","7440895","7477167","NA","7328151","7370062","7475516","7440684","7542237","7440899","NA","7656938","7656939","NA","NA","7655431","NAP perception","28","41338","41","yes","1024"
"69.0476190476","yes","69.0476190476","1017.19047619","1017.19047619","white","no","xpyriment","Ich habe die obigen Informationen gelesen und verstanden.","legacy","legacy","0","uniform","1","0","0","undefined","undefined","1","f","2","1","NA","0","1","0","0","0","0","0","0","0","0","51","51","51","0","0","0","NA","0","0","2","0","0","0","2","51","51","51","51","51","Sat Nov 11 21:22:16 2017","Forced-choice identification task with a practice and an experimental phase","yes","NAP_GER_AA_4blocks_noglides.osexp","/Users/aviadalbert/Documents/Academisch/UoC/Dissertation/Experiment/OpenSesame/NAP-FC/NAP_GER_AA_4blocks_noglides","yes","no","sans","no","20","no","black","no","Weiter","yes","768","legacy","41","9","0","/Users/aviadalbert/Documents/Academisch/UoC/Dissertation/Experiment/OpenSesame/NAP-FC/NAP_GER_AA_4blocks_noglides/subject-50.csv","xpyriment","Jazzy James","3.1.9","yes","yes","59a800d99ad5a1025d81bb03","59a801616c613b0251691de0","no","no","0","f","f","space","NA","space","space","f","1384","1826","64544","NA","39382","12097","1384","2","legacy","1024","1","44100","-16","experiment","npal","3","2","0","0","1","Englisch","50","","even","7542238","7477167","NA","NA","7544066","7542234","NA","7311729","7541767","7311730","7311729","7389131","7428518","7660093","7658589","7661478","7443665","7440895","7477167","NA","7328151","7370062","7475516","7440684","7542237","7440899","NA","7660093","7660093","NA","NA","7658586","NAP perception","29","42722","42","yes","1024"
"69.7674418605","yes","69.7674418605","1012.53488372","1012.53488372","white","no","xpyriment","Ich habe die obigen Informationen gelesen und verstanden.","legacy","legacy","0","uniform","1","0","0","undefined","undefined","1","j","2","1","NA","0","1","0","0","0","0","0","0","0","0","52","52","52","0","0","0","NA","0","0","2","0","0","0","2","52","52","52","52","52","Sat Nov 11 21:22:16 2017","Forced-choice identification task with a practice and an experimental phase","yes","NAP_GER_AA_4blocks_noglides.osexp","/Users/aviadalbert/Documents/Academisch/UoC/Dissertation/Experiment/OpenSesame/NAP-FC/NAP_GER_AA_4blocks_noglides","yes","no","sans","no","20","no","black","no","Weiter","yes","768","legacy","42","9","0","/Users/aviadalbert/Documents/Academisch/UoC/Dissertation/Experiment/OpenSesame/NAP-FC/NAP_GER_AA_4blocks_noglides/subject-50.csv","xpyriment","Jazzy James","3.1.9","yes","yes","59a800d99ad5a1025d81bb03","59a801616c613b0251691de0","no","no","0","j","f","space","NA","space","space","j","817","1826","64544","NA","39382","12097","817","2","legacy","1024","1","44100","-16","experiment","lepal","3","2","0","0","1","Englisch","50","","even","7542238","7477167","NA","NA","7544066","7542234","NA","7311729","7541767","7311730","7311729","7389131","7428518","7663254","7661747","7664072","7443665","7440895","7477167","NA","7328151","7370062","7475516","7440684","7542237","7440899","NA","7663253","7663253","NA","NA","7661743","NAP perception","30","43539","43","yes","1024"
"70.4545454545","yes","70.4545454545","1004.13636364","1004.13636364","white","no","xpyriment","Ich habe die obigen Informationen gelesen und verstanden.","legacy","legacy","0","uniform","1","0","0","undefined","undefined","1","j","2","1","NA","0","1","0","0","0","0","0","0","0","0","53","53","53","0","0","0","NA","0","0","2","0","0","0","2","53","53","53","53","53","Sat Nov 11 21:22:16 2017","Forced-choice identification task with a practice and an experimental phase","yes","NAP_GER_AA_4blocks_noglides.osexp","/Users/aviadalbert/Documents/Academisch/UoC/Dissertation/Experiment/OpenSesame/NAP-FC/NAP_GER_AA_4blocks_noglides","yes","no","sans","no","20","no","black","no","Weiter","yes","768","legacy","43","9","0","/Users/aviadalbert/Documents/Academisch/UoC/Dissertation/Experiment/OpenSesame/NAP-FC/NAP_GER_AA_4blocks_noglides/subject-50.csv","xpyriment","Jazzy James","3.1.9","yes","yes","59a800d99ad5a1025d81bb03","59a801616c613b0251691de0","no","no","0","j","f","space","NA","space","space","j","643","1826","64544","NA","39382","12097","643","2","legacy","1024","1","44100","-16","experiment","leval","3","2","0","0","1","Englisch","50","","even","7542238","7477167","NA","NA","7544066","7542234","NA","7311729","7541767","7311730","7311729","7389131","7428518","7665845","7664341","7666489","7443665","7440895","7477167","NA","7328151","7370062","7475516","7440684","7542237","7440899","NA","7665845","7665845","NA","NA","7664337","NAP perception","31","44182","44","yes","1024"
"68.8888888889","yes","68.8888888889","1014","1014","white","no","xpyriment","Ich habe die obigen Informationen gelesen und verstanden.","legacy","legacy","0","uniform","0","0","0","undefined","undefined","0","f","2","1","NA","0","1","0","0","0","0","0","0","0","0","54","54","54","0","0","0","NA","0","0","2","0","0","0","2","54","54","54","54","54","Sat Nov 11 21:22:16 2017","Forced-choice identification task with a practice and an experimental phase","yes","NAP_GER_AA_4blocks_noglides.osexp","/Users/aviadalbert/Documents/Academisch/UoC/Dissertation/Experiment/OpenSesame/NAP-FC/NAP_GER_AA_4blocks_noglides","yes","no","sans","no","20","no","black","no","Weiter","yes","768","legacy","44","9","0","/Users/aviadalbert/Documents/Academisch/UoC/Dissertation/Experiment/OpenSesame/NAP-FC/NAP_GER_AA_4blocks_noglides/subject-50.csv","xpyriment","Jazzy James","3.1.9","yes","yes","59a800d99ad5a1025d81bb03","59a801616c613b0251691de0","no","no","0","j","f","space","NA","space","space","j","1448","1826","64544","NA","39382","12097","1448","2","legacy","1024","1","44100","-16","experiment","lfal","3","2","0","0","1","Englisch","50","","even","7542238","7477167","NA","NA","7544066","7542234","NA","7311729","7541767","7311730","7311729","7389131","7428518","7668278","7666773","7669727","7443665","7440895","7477167","NA","7328151","7370062","7475516","7440684","7542237","7440899","NA","7668278","7668278","NA","NA","7666769","NAP perception","31","45630","45","yes","1024"
"69.5652173913","yes","69.5652173913","1009.13043478","1009.13043478","white","no","xpyriment","Ich habe die obigen Informationen gelesen und verstanden.","legacy","legacy","0","uniform","1","0","0","undefined","undefined","1","f","2","1","NA","0","1","0","0","0","0","0","0","0","0","55","55","55","0","0","0","NA","0","0","2","0","0","0","2","55","55","55","55","55","Sat Nov 11 21:22:16 2017","Forced-choice identification task with a practice and an experimental phase","yes","NAP_GER_AA_4blocks_noglides.osexp","/Users/aviadalbert/Documents/Academisch/UoC/Dissertation/Experiment/OpenSesame/NAP-FC/NAP_GER_AA_4blocks_noglides","yes","no","sans","no","20","no","black","no","Weiter","yes","768","legacy","45","9","0","/Users/aviadalbert/Documents/Academisch/UoC/Dissertation/Experiment/OpenSesame/NAP-FC/NAP_GER_AA_4blocks_noglides/subject-50.csv","xpyriment","Jazzy James","3.1.9","yes","yes","59a800d99ad5a1025d81bb03","59a801616c613b0251691de0","no","no","0","f","f","space","NA","space","space","f","790","1826","64544","NA","39382","12097","790","2","legacy","1024","1","44100","-16","experiment","zmal","3","2","0","0","1","Englisch","50","","even","7542238","7477167","NA","NA","7544066","7542234","NA","7311729","7541767","7311730","7311729","7389131","7428518","7671505","7670000","7672296","7443665","7440895","7477167","NA","7328151","7370062","7475516","7440684","7542237","7440899","NA","7671504","7671505","NA","NA","7669997","NAP perception","32","46420","46","yes","1024"
"70.2127659574","yes","70.2127659574","1003.17021277","1003.17021277","white","no","xpyriment","Ich habe die obigen Informationen gelesen und verstanden.","legacy","legacy","0","uniform","1","0","0","undefined","undefined","1","f","2","1","NA","0","1","0","0","0","0","0","0","0","0","56","56","56","0","0","0","NA","0","0","2","0","0","0","2","56","56","56","56","56","Sat Nov 11 21:22:16 2017","Forced-choice identification task with a practice and an experimental phase","yes","NAP_GER_AA_4blocks_noglides.osexp","/Users/aviadalbert/Documents/Academisch/UoC/Dissertation/Experiment/OpenSesame/NAP-FC/NAP_GER_AA_4blocks_noglides","yes","no","sans","no","20","no","black","no","Weiter","yes","768","legacy","46","9","0","/Users/aviadalbert/Documents/Academisch/UoC/Dissertation/Experiment/OpenSesame/NAP-FC/NAP_GER_AA_4blocks_noglides/subject-50.csv","xpyriment","Jazzy James","3.1.9","yes","yes","59a800d99ad5a1025d81bb03","59a801616c613b0251691de0","no","no","0","f","f","space","NA","space","space","f","729","1826","64544","NA","39382","12097","729","2","legacy","1024","1","44100","-16","experiment","lmal","3","2","0","0","1","Englisch","50","","even","7542238","7477167","NA","NA","7544066","7542234","NA","7311729","7541767","7311730","7311729","7389131","7428518","7674083","7672580","7674813","7443665","7440895","7477167","NA","7328151","7370062","7475516","7440684","7542237","7440899","NA","7674083","7674083","NA","NA","7672576","NAP perception","33","47149","47","yes","1024"
"70.8333333333","yes","70.8333333333","1003","1003","white","no","xpyriment","Ich habe die obigen Informationen gelesen und verstanden.","legacy","legacy","0","uniform","1","0","0","undefined","undefined","1","f","2","1","NA","0","1","0","0","0","0","0","0","0","0","57","57","57","0","0","0","NA","0","0","2","0","0","0","2","57","57","57","57","57","Sat Nov 11 21:22:16 2017","Forced-choice identification task with a practice and an experimental phase","yes","NAP_GER_AA_4blocks_noglides.osexp","/Users/aviadalbert/Documents/Academisch/UoC/Dissertation/Experiment/OpenSesame/NAP-FC/NAP_GER_AA_4blocks_noglides","yes","no","sans","no","20","no","black","no","Weiter","yes","768","legacy","47","9","0","/Users/aviadalbert/Documents/Academisch/UoC/Dissertation/Experiment/OpenSesame/NAP-FC/NAP_GER_AA_4blocks_noglides/subject-50.csv","xpyriment","Jazzy James","3.1.9","yes","yes","59a800d99ad5a1025d81bb03","59a801616c613b0251691de0","no","no","0","f","f","space","NA","space","space","f","995","1826","64544","NA","39382","12097","995","2","legacy","1024","1","44100","-16","experiment","ʃfal","3","2","0","0","1","Englisch","50","","even","7542238","7477167","NA","NA","7544066","7542234","NA","7311729","7541767","7311730","7311729","7389131","7428518","7676579","7675073","7677576","7443665","7440895","7477167","NA","7328151","7370062","7475516","7440684","7542237","7440899","NA","7676579","7676579","NA","NA","7675070","NAP perception","34","48144","48","yes","1024"
"71.4285714286","yes","71.4285714286","1001.97959184","1001.97959184","white","no","xpyriment","Ich habe die obigen Informationen gelesen und verstanden.","legacy","legacy","0","uniform","1","0","0","undefined","undefined","1","j","2","1","NA","0","1","0","0","0","0","0","0","0","0","58","58","58","0","0","0","NA","0","0","2","0","0","0","2","58","58","58","58","58","Sat Nov 11 21:22:16 2017","Forced-choice identification task with a practice and an experimental phase","yes","NAP_GER_AA_4blocks_noglides.osexp","/Users/aviadalbert/Documents/Academisch/UoC/Dissertation/Experiment/OpenSesame/NAP-FC/NAP_GER_AA_4blocks_noglides","yes","no","sans","no","20","no","black","no","Weiter","yes","768","legacy","48","9","0","/Users/aviadalbert/Documents/Academisch/UoC/Dissertation/Experiment/OpenSesame/NAP-FC/NAP_GER_AA_4blocks_noglides/subject-50.csv","xpyriment","Jazzy James","3.1.9","yes","yes","59a800d99ad5a1025d81bb03","59a801616c613b0251691de0","no","no","0","j","f","space","NA","space","space","j","953","1826","64544","NA","39382","12097","953","2","legacy","1024","1","44100","-16","experiment","eftal","3","2","0","0","1","Englisch","50","","even","7542238","7477167","NA","NA","7544066","7542234","NA","7311729","7541767","7311730","7311729","7389131","7428518","7679357","7677853","7680312","7443665","7440895","7477167","NA","7328151","7370062","7475516","7440684","7542237","7440899","NA","7679356","7679356","NA","NA","7677849","NAP perception","35","49097","49","yes","1024"
"72","yes","72","1014.22","1014.22","white","no","xpyriment","Ich habe die obigen Informationen gelesen und verstanden.","legacy","legacy","0","uniform","1","0","0","undefined","undefined","1","f","2","1","NA","0","1","0","0","0","0","0","0","0","0","59","59","59","0","0","0","NA","0","0","2","0","0","0","2","59","59","59","59","59","Sat Nov 11 21:22:16 2017","Forced-choice identification task with a practice and an experimental phase","yes","NAP_GER_AA_4blocks_noglides.osexp","/Users/aviadalbert/Documents/Academisch/UoC/Dissertation/Experiment/OpenSesame/NAP-FC/NAP_GER_AA_4blocks_noglides","yes","no","sans","no","20","no","black","no","Weiter","yes","768","legacy","49","9","0","/Users/aviadalbert/Documents/Academisch/UoC/Dissertation/Experiment/OpenSesame/NAP-FC/NAP_GER_AA_4blocks_noglides/subject-50.csv","xpyriment","Jazzy James","3.1.9","yes","yes","59a800d99ad5a1025d81bb03","59a801616c613b0251691de0","no","no","0","f","f","space","NA","space","space","f","1614","1826","64544","NA","39382","12097","1614","2","legacy","1024","1","44100","-16","experiment","mlal","3","2","0","0","1","Englisch","50","","even","7542238","7477167","NA","NA","7544066","7542234","NA","7311729","7541767","7311730","7311729","7389131","7428518","7682101","7680598","7683717","7443665","7440895","7477167","NA","7328151","7370062","7475516","7440684","7542237","7440899","NA","7682101","7682101","NA","NA","7680594","NAP perception","36","50711","50","yes","1024"
"72.5490196078","yes","72.5490196078","1017.62745098","1017.62745098","white","no","xpyriment","Ich habe die obigen Informationen gelesen und verstanden.","legacy","legacy","0","uniform","1","0","0","undefined","undefined","1","j","2","1","NA","0","1","0","0","0","0","0","0","0","0","60","60","60","0","0","0","NA","0","0","2","0","0","0","2","60","60","60","60","60","Sat Nov 11 21:22:16 2017","Forced-choice identification task with a practice and an experimental phase","yes","NAP_GER_AA_4blocks_noglides.osexp","/Users/aviadalbert/Documents/Academisch/UoC/Dissertation/Experiment/OpenSesame/NAP-FC/NAP_GER_AA_4blocks_noglides","yes","no","sans","no","20","no","black","no","Weiter","yes","768","legacy","50","9","0","/Users/aviadalbert/Documents/Academisch/UoC/Dissertation/Experiment/OpenSesame/NAP-FC/NAP_GER_AA_4blocks_noglides/subject-50.csv","xpyriment","Jazzy James","3.1.9","yes","yes","59a800d99ad5a1025d81bb03","59a801616c613b0251691de0","no","no","0","j","f","space","NA","space","space","j","1188","1826","64544","NA","39382","12097","1188","2","legacy","1024","1","44100","-16","experiment","emlal","3","2","0","0","1","Englisch","50","","even","7542238","7477167","NA","NA","7544066","7542234","NA","7311729","7541767","7311730","7311729","7389131","7428518","7685496","7683992","7686686","7443665","7440895","7477167","NA","7328151","7370062","7475516","7440684","7542237","7440899","NA","7685496","7685496","NA","NA","7683989","NAP perception","37","51899","51","yes","1024"
"73.0769230769","yes","73.0769230769","1017.26923077","1017.26923077","white","no","xpyriment","Ich habe die obigen Informationen gelesen und verstanden.","legacy","legacy","0","uniform","1","0","0","undefined","undefined","1","j","2","1","NA","0","1","0","0","0","0","0","0","0","0","61","61","61","0","0","0","NA","0","0","2","0","0","0","2","61","61","61","61","61","Sat Nov 11 21:22:16 2017","Forced-choice identification task with a practice and an experimental phase","yes","NAP_GER_AA_4blocks_noglides.osexp","/Users/aviadalbert/Documents/Academisch/UoC/Dissertation/Experiment/OpenSesame/NAP-FC/NAP_GER_AA_4blocks_noglides","yes","no","sans","no","20","no","black","no","Weiter","yes","768","legacy","51","9","0","/Users/aviadalbert/Documents/Academisch/UoC/Dissertation/Experiment/OpenSesame/NAP-FC/NAP_GER_AA_4blocks_noglides/subject-50.csv","xpyriment","Jazzy James","3.1.9","yes","yes","59a800d99ad5a1025d81bb03","59a801616c613b0251691de0","no","no","0","j","f","space","NA","space","space","j","999","1826","64544","NA","39382","12097","999","2","legacy","1024","1","44100","-16","experiment","nefal","3","2","0","0","1","Englisch","50","","even","7542238","7477167","NA","NA","7544066","7542234","NA","7311729","7541767","7311730","7311729","7389131","7428518","7688461","7686958","7689462","7443665","7440895","7477167","NA","7328151","7370062","7475516","7440684","7542237","7440899","NA","7688461","7688461","NA","NA","7686955","NAP perception","38","52898","52","yes","1024"
"73.5849056604","yes","73.5849056604","1019.54716981","1019.54716981","white","no","xpyriment","Ich habe die obigen Informationen gelesen und verstanden.","legacy","legacy","0","uniform","1","0","0","undefined","undefined","1","f","2","1","NA","0","1","0","0","0","0","0","0","0","0","62","62","62","0","0","0","NA","0","0","2","0","0","0","2","62","62","62","62","62","Sat Nov 11 21:22:16 2017","Forced-choice identification task with a practice and an experimental phase","yes","NAP_GER_AA_4blocks_noglides.osexp","/Users/aviadalbert/Documents/Academisch/UoC/Dissertation/Experiment/OpenSesame/NAP-FC/NAP_GER_AA_4blocks_noglides","yes","no","sans","no","20","no","black","no","Weiter","yes","768","legacy","52","9","0","/Users/aviadalbert/Documents/Academisch/UoC/Dissertation/Experiment/OpenSesame/NAP-FC/NAP_GER_AA_4blocks_noglides/subject-50.csv","xpyriment","Jazzy James","3.1.9","yes","yes","59a800d99ad5a1025d81bb03","59a801616c613b0251691de0","no","no","0","f","f","space","NA","space","space","f","1138","1826","64544","NA","39382","12097","1138","2","legacy","1024","1","44100","-16","experiment","flal","3","2","0","0","1","Englisch","50","","even","7542238","7477167","NA","NA","7544066","7542234","NA","7311729","7541767","7311730","7311729","7389131","7428518","7691238","7689734","7692378","7443665","7440895","7477167","NA","7328151","7370062","7475516","7440684","7542237","7440899","NA","7691237","7691238","NA","NA","7689730","NAP perception","39","54036","53","yes","1024"
"74.0740740741","yes","74.0740740741","1029.07407407","1029.07407407","white","no","xpyriment","Ich habe die obigen Informationen gelesen und verstanden.","legacy","legacy","0","uniform","1","0","0","undefined","undefined","1","j","2","1","NA","0","1","0","0","0","0","0","0","0","0","63","63","63","0","0","0","NA","0","0","2","0","0","0","2","63","63","63","63","63","Sat Nov 11 21:22:16 2017","Forced-choice identification task with a practice and an experimental phase","yes","NAP_GER_AA_4blocks_noglides.osexp","/Users/aviadalbert/Documents/Academisch/UoC/Dissertation/Experiment/OpenSesame/NAP-FC/NAP_GER_AA_4blocks_noglides","yes","no","sans","no","20","no","black","no","Weiter","yes","768","legacy","53","9","0","/Users/aviadalbert/Documents/Academisch/UoC/Dissertation/Experiment/OpenSesame/NAP-FC/NAP_GER_AA_4blocks_noglides/subject-50.csv","xpyriment","Jazzy James","3.1.9","yes","yes","59a800d99ad5a1025d81bb03","59a801616c613b0251691de0","no","no","0","j","f","space","NA","space","space","j","1534","1826","64544","NA","39382","12097","1534","2","legacy","1024","1","44100","-16","experiment","lekal","3","2","0","0","1","Englisch","50","","even","7542238","7477167","NA","NA","7544066","7542234","NA","7311729","7541767","7311730","7311729","7389131","7428518","7694160","7692657","7695696","7443665","7440895","7477167","NA","7328151","7370062","7475516","7440684","7542237","7440899","NA","7694160","7694160","NA","NA","7692653","NAP perception","40","55570","54","yes","1024"
"74.5454545455","yes","74.5454545455","1031.61818182","1031.61818182","white","no","xpyriment","Ich habe die obigen Informationen gelesen und verstanden.","legacy","legacy","0","uniform","1","0","0","undefined","undefined","1","f","2","1","NA","0","1","0","0","0","0","0","0","0","0","64","64","64","0","0","0","NA","0","0","2","0","0","0","2","64","64","64","64","64","Sat Nov 11 21:22:16 2017","Forced-choice identification task with a practice and an experimental phase","yes","NAP_GER_AA_4blocks_noglides.osexp","/Users/aviadalbert/Documents/Academisch/UoC/Dissertation/Experiment/OpenSesame/NAP-FC/NAP_GER_AA_4blocks_noglides","yes","no","sans","no","20","no","black","no","Weiter","yes","768","legacy","54","9","0","/Users/aviadalbert/Documents/Academisch/UoC/Dissertation/Experiment/OpenSesame/NAP-FC/NAP_GER_AA_4blocks_noglides/subject-50.csv","xpyriment","Jazzy James","3.1.9","yes","yes","59a800d99ad5a1025d81bb03","59a801616c613b0251691de0","no","no","0","f","f","space","NA","space","space","f","1169","1826","64544","NA","39382","12097","1169","2","legacy","1024","1","44100","-16","experiment","mnal","3","2","0","0","1","Englisch","50","","even","7542238","7477167","NA","NA","7544066","7542234","NA","7311729","7541767","7311730","7311729","7389131","7428518","7697474","7695971","7698646","7443665","7440895","7477167","NA","7328151","7370062","7475516","7440684","7542237","7440899","NA","7697474","7697474","NA","NA","7695967","NAP perception","41","56739","55","yes","1024"
