"acc","accept_status","accuracy","average_response_time","avg_rt","background","bidi","canvas_backend","checkbox_status","clock_backend","color_backend","compensation","coordinates","correct","correct_block_activation","correct_block_exit","correct_instructions_1","correct_instructions_2","correct_keyboard_response","correct_response","count_block_activation","count_block_exit","count_block_info_QA","count_cont_e_block_message","count_e_block_loop","count_e_block_sequence","count_end_of_experiment","count_experiment","count_experimental_loop","count_form_consent","count_info_forms","count_instructions_1","count_instructions_2","count_keyboard_response","count_listen_message","count_logger","count_p_block_loop","count_p_block_sequence","count_p_feedback","count_pause_feedback","count_personal_details_form_1","count_personal_details_form_2","count_post_loop_blank","count_practice_loop","count_pre_e_block_message","count_pre_p_block_message","count_reset_feedback","count_stimulus_image","count_stimulus_sound","count_timeout_message","count_timeout_sound","count_trial_sequence","datetime","description","disable_garbage_collection","experiment_file","experiment_path","expyriment_opengl","font_bold","font_family","font_italic","font_size","font_underline","foreground","form_clicks","form_response","fullscreen","height","keyboard_backend","live_row","live_row_p_block_loop","live_row_practice_loop","logfile","mouse_backend","opensesame_codename","opensesame_version","osf_always_upload_data","osf_always_upload_experiment","osf_datanode_id","osf_id","practice","pygame_doublebuf","repeat_cycle","response","response_block_activation","response_block_exit","response_block_info_QA","response_instructions_1","response_instructions_2","response_keyboard_response","response_time","response_time_block_activation","response_time_block_exit","response_time_block_info_QA","response_time_instructions_1","response_time_instructions_2","response_time_keyboard_response","round_decimals","sampler_backend","sound_buf_size","sound_channels","sound_freq","sound_sample_size","start","stimulus","subject_age","subject_education","subject_gender","subject_german_native","subject_handedness","subject_language_other","subject_nr","subject_other_native_lang","subject_parity","time_block_activation","time_block_exit","time_block_info_QA","time_cont_e_block_message","time_e_block_loop","time_e_block_sequence","time_end_of_experiment","time_experiment","time_experimental_loop","time_form_consent","time_info_forms","time_instructions_1","time_instructions_2","time_keyboard_response","time_listen_message","time_logger","time_p_block_loop","time_p_block_sequence","time_p_feedback","time_pause_feedback","time_personal_details_form_1","time_personal_details_form_2","time_post_loop_blank","time_practice_loop","time_pre_e_block_message","time_pre_p_block_message","time_reset_feedback","time_stimulus_image","time_stimulus_sound","time_timeout_message","time_timeout_sound","time_trial_sequence","title","total_correct","total_response_time","total_responses","uniform_coordinates","width"
"100","yes","100","1106","1106","white","no","xpyriment","Ich habe die obigen Informationen gelesen und verstanden.","legacy","legacy","0","uniform","1","0","NA","undefined","undefined","1","f","0","0","NA","NA","NA","NA","NA","0","0","0","0","0","0","0","0","0","0","0","NA","NA","0","0","0","0","NA","0","0","0","0","0","0","0","Thu Oct 26 09:50:27 2017","Forced-choice identification task with a practice and an experimental phase","yes","NAP_GER_AA_4blocks_noglides.osexp","/Users/aviadalbert/Documents/Academisch/UoC/Dissertation/Experiment/OpenSesame/NAP-FC/NAP_GER_AA_4blocks_noglides","yes","no","sans","no","20","no","black","no","Weiter","yes","768","legacy","0","0","0","/Users/aviadalbert/Documents/Academisch/UoC/Dissertation/Experiment/OpenSesame/NAP-FC/NAP_GER_AA_4blocks_noglides/subject-19.csv","xpyriment","Jazzy James","3.1.9","yes","yes","59a800d99ad5a1025d81bb03","59a801616c613b0251691de0","yes","no","0","f","f","NA","NA","return","return","f","1106","13645","NA","NA","17935","7072","1106","2","legacy","1024","1","44100","-16","experiment","flal","2","1","1","1","1","Englich, Spansch","19","Hebraeisch","odd","1052407","NA","NA","NA","NA","NA","NA","1791","NA","1791","1791","1027110","1045049","1067767","1066263","1068874","1066053","1052403","NA","NA","952925","1016527","NA","1052184","NA","1052406","NA","1067766","1067767","NA","NA","1066259","NAP perception","1","1106","1","yes","1024"
"100","yes","100","916","916","white","no","xpyriment","Ich habe die obigen Informationen gelesen und verstanden.","legacy","legacy","0","uniform","1","0","NA","undefined","undefined","1","j","0","0","NA","NA","NA","NA","NA","0","0","0","0","0","0","1","1","1","0","0","NA","NA","0","0","0","0","NA","0","0","1","1","1","1","1","Thu Oct 26 09:50:27 2017","Forced-choice identification task with a practice and an experimental phase","yes","NAP_GER_AA_4blocks_noglides.osexp","/Users/aviadalbert/Documents/Academisch/UoC/Dissertation/Experiment/OpenSesame/NAP-FC/NAP_GER_AA_4blocks_noglides","yes","no","sans","no","20","no","black","no","Weiter","yes","768","legacy","1","1","0","/Users/aviadalbert/Documents/Academisch/UoC/Dissertation/Experiment/OpenSesame/NAP-FC/NAP_GER_AA_4blocks_noglides/subject-19.csv","xpyriment","Jazzy James","3.1.9","yes","yes","59a800d99ad5a1025d81bb03","59a801616c613b0251691de0","yes","no","0","j","f","NA","NA","return","return","j","726","13645","NA","NA","17935","7072","726","2","legacy","1024","1","44100","-16","experiment","lepal","2","1","1","1","1","Englich, Spansch","19","Hebraeisch","odd","1052407","NA","NA","NA","NA","NA","NA","1791","NA","1791","1791","1027110","1045049","1070665","1069159","1071392","1066053","1052403","NA","NA","952925","1016527","NA","1052184","NA","1052406","NA","1070664","1070664","NA","NA","1069155","NAP perception","2","1832","2","yes","1024"
"100","yes","100","860.333333333","860.333333333","white","no","xpyriment","Ich habe die obigen Informationen gelesen und verstanden.","legacy","legacy","0","uniform","1","0","NA","undefined","undefined","1","j","0","0","NA","NA","NA","NA","NA","0","0","0","0","0","0","2","2","2","0","0","NA","NA","0","0","0","0","NA","0","0","2","2","2","2","2","Thu Oct 26 09:50:27 2017","Forced-choice identification task with a practice and an experimental phase","yes","NAP_GER_AA_4blocks_noglides.osexp","/Users/aviadalbert/Documents/Academisch/UoC/Dissertation/Experiment/OpenSesame/NAP-FC/NAP_GER_AA_4blocks_noglides","yes","no","sans","no","20","no","black","no","Weiter","yes","768","legacy","2","2","0","/Users/aviadalbert/Documents/Academisch/UoC/Dissertation/Experiment/OpenSesame/NAP-FC/NAP_GER_AA_4blocks_noglides/subject-19.csv","xpyriment","Jazzy James","3.1.9","yes","yes","59a800d99ad5a1025d81bb03","59a801616c613b0251691de0","yes","no","0","j","f","NA","NA","return","return","j","749","13645","NA","NA","17935","7072","749","2","legacy","1024","1","44100","-16","experiment","emtal","2","1","1","1","1","Englich, Spansch","19","Hebraeisch","odd","1052407","NA","NA","NA","NA","NA","NA","1791","NA","1791","1791","1027110","1045049","1073178","1071675","1073928","1066053","1052403","NA","NA","952925","1016527","NA","1052184","NA","1052406","NA","1073178","1073178","NA","NA","1071671","NAP perception","3","2581","3","yes","1024"
"100","yes","100","844.5","844.5","white","no","xpyriment","Ich habe die obigen Informationen gelesen und verstanden.","legacy","legacy","0","uniform","1","0","NA","undefined","undefined","1","f","0","0","NA","NA","NA","NA","NA","0","0","0","0","0","0","3","3","3","0","0","NA","NA","0","0","0","0","NA","0","0","3","3","3","3","3","Thu Oct 26 09:50:27 2017","Forced-choice identification task with a practice and an experimental phase","yes","NAP_GER_AA_4blocks_noglides.osexp","/Users/aviadalbert/Documents/Academisch/UoC/Dissertation/Experiment/OpenSesame/NAP-FC/NAP_GER_AA_4blocks_noglides","yes","no","sans","no","20","no","black","no","Weiter","yes","768","legacy","3","3","0","/Users/aviadalbert/Documents/Academisch/UoC/Dissertation/Experiment/OpenSesame/NAP-FC/NAP_GER_AA_4blocks_noglides/subject-19.csv","xpyriment","Jazzy James","3.1.9","yes","yes","59a800d99ad5a1025d81bb03","59a801616c613b0251691de0","yes","no","0","f","f","NA","NA","return","return","f","797","13645","NA","NA","17935","7072","797","2","legacy","1024","1","44100","-16","experiment","ʃpal","2","1","1","1","1","Englich, Spansch","19","Hebraeisch","odd","1052407","NA","NA","NA","NA","NA","NA","1791","NA","1791","1791","1027110","1045049","1075706","1074201","1076504","1066053","1052403","NA","NA","952925","1016527","NA","1052184","NA","1052406","NA","1075705","1075705","NA","NA","1074197","NAP perception","4","3378","4","yes","1024"
"100","yes","100","787.6","787.6","white","no","xpyriment","Ich habe die obigen Informationen gelesen und verstanden.","legacy","legacy","0","uniform","1","0","NA","undefined","undefined","1","j","0","0","NA","NA","NA","NA","NA","0","0","0","0","0","0","4","4","4","0","0","NA","NA","0","0","0","0","NA","0","0","4","4","4","4","4","Thu Oct 26 09:50:27 2017","Forced-choice identification task with a practice and an experimental phase","yes","NAP_GER_AA_4blocks_noglides.osexp","/Users/aviadalbert/Documents/Academisch/UoC/Dissertation/Experiment/OpenSesame/NAP-FC/NAP_GER_AA_4blocks_noglides","yes","no","sans","no","20","no","black","no","Weiter","yes","768","legacy","4","4","0","/Users/aviadalbert/Documents/Academisch/UoC/Dissertation/Experiment/OpenSesame/NAP-FC/NAP_GER_AA_4blocks_noglides/subject-19.csv","xpyriment","Jazzy James","3.1.9","yes","yes","59a800d99ad5a1025d81bb03","59a801616c613b0251691de0","yes","no","0","j","f","NA","NA","return","return","j","560","13645","NA","NA","17935","7072","560","2","legacy","1024","1","44100","-16","experiment","nefal","2","1","1","1","1","Englich, Spansch","19","Hebraeisch","odd","1052407","NA","NA","NA","NA","NA","NA","1791","NA","1791","1791","1027110","1045049","1078292","1076788","1078853","1066053","1052403","NA","NA","952925","1016527","NA","1052184","NA","1052406","NA","1078292","1078292","NA","NA","1076784","NAP perception","5","3938","5","yes","1024"
"100","yes","100","773.666666667","773.666666667","white","no","xpyriment","Ich habe die obigen Informationen gelesen und verstanden.","legacy","legacy","0","uniform","1","0","NA","undefined","undefined","1","f","0","0","NA","NA","NA","NA","NA","0","0","0","0","0","0","5","5","5","0","0","NA","NA","0","0","0","0","NA","0","0","5","5","5","5","5","Thu Oct 26 09:50:27 2017","Forced-choice identification task with a practice and an experimental phase","yes","NAP_GER_AA_4blocks_noglides.osexp","/Users/aviadalbert/Documents/Academisch/UoC/Dissertation/Experiment/OpenSesame/NAP-FC/NAP_GER_AA_4blocks_noglides","yes","no","sans","no","20","no","black","no","Weiter","yes","768","legacy","5","5","0","/Users/aviadalbert/Documents/Academisch/UoC/Dissertation/Experiment/OpenSesame/NAP-FC/NAP_GER_AA_4blocks_noglides/subject-19.csv","xpyriment","Jazzy James","3.1.9","yes","yes","59a800d99ad5a1025d81bb03","59a801616c613b0251691de0","yes","no","0","f","f","NA","NA","return","return","f","704","13645","NA","NA","17935","7072","704","2","legacy","1024","1","44100","-16","experiment","sfal","2","1","1","1","1","Englich, Spansch","19","Hebraeisch","odd","1052407","NA","NA","NA","NA","NA","NA","1791","NA","1791","1791","1027110","1045049","1080649","1079142","1081354","1066053","1052403","NA","NA","952925","1016527","NA","1052184","NA","1052406","NA","1080648","1080649","NA","NA","1079138","NAP perception","6","4642","6","yes","1024"
"100","yes","100","791.142857143","791.142857143","white","no","xpyriment","Ich habe die obigen Informationen gelesen und verstanden.","legacy","legacy","0","uniform","1","0","NA","undefined","undefined","1","f","0","0","NA","NA","NA","NA","NA","0","0","0","0","0","0","6","6","6","0","0","NA","NA","0","0","0","0","NA","0","0","6","6","6","6","6","Thu Oct 26 09:50:27 2017","Forced-choice identification task with a practice and an experimental phase","yes","NAP_GER_AA_4blocks_noglides.osexp","/Users/aviadalbert/Documents/Academisch/UoC/Dissertation/Experiment/OpenSesame/NAP-FC/NAP_GER_AA_4blocks_noglides","yes","no","sans","no","20","no","black","no","Weiter","yes","768","legacy","6","6","0","/Users/aviadalbert/Documents/Academisch/UoC/Dissertation/Experiment/OpenSesame/NAP-FC/NAP_GER_AA_4blocks_noglides/subject-19.csv","xpyriment","Jazzy James","3.1.9","yes","yes","59a800d99ad5a1025d81bb03","59a801616c613b0251691de0","yes","no","0","f","f","NA","NA","return","return","f","896","13645","NA","NA","17935","7072","896","2","legacy","1024","1","44100","-16","experiment","zmal","2","1","1","1","1","Englich, Spansch","19","Hebraeisch","odd","1052407","NA","NA","NA","NA","NA","NA","1791","NA","1791","1791","1027110","1045049","1083145","1081642","1084042","1066053","1052403","NA","NA","952925","1016527","NA","1052184","NA","1052406","NA","1083145","1083145","NA","NA","1081638","NAP perception","7","5538","7","yes","1024"
"100","yes","100","775","775","white","no","xpyriment","Ich habe die obigen Informationen gelesen und verstanden.","legacy","legacy","0","uniform","1","0","NA","undefined","undefined","1","j","0","0","NA","NA","NA","NA","NA","0","0","0","0","0","0","7","7","7","0","0","NA","NA","0","0","0","0","NA","0","0","7","7","7","7","7","Thu Oct 26 09:50:27 2017","Forced-choice identification task with a practice and an experimental phase","yes","NAP_GER_AA_4blocks_noglides.osexp","/Users/aviadalbert/Documents/Academisch/UoC/Dissertation/Experiment/OpenSesame/NAP-FC/NAP_GER_AA_4blocks_noglides","yes","no","sans","no","20","no","black","no","Weiter","yes","768","legacy","7","7","0","/Users/aviadalbert/Documents/Academisch/UoC/Dissertation/Experiment/OpenSesame/NAP-FC/NAP_GER_AA_4blocks_noglides/subject-19.csv","xpyriment","Jazzy James","3.1.9","yes","yes","59a800d99ad5a1025d81bb03","59a801616c613b0251691de0","yes","no","0","j","f","NA","NA","return","return","j","662","13645","NA","NA","17935","7072","662","2","legacy","1024","1","44100","-16","experiment","mesal","2","1","1","1","1","Englich, Spansch","19","Hebraeisch","odd","1052407","NA","NA","NA","NA","NA","NA","1791","NA","1791","1791","1027110","1045049","1085834","1084329","1086497","1066053","1052403","NA","NA","952925","1016527","NA","1052184","NA","1052406","NA","1085833","1085833","NA","NA","1084325","NAP perception","8","6200","8","yes","1024"
"100","yes","100","776.111111111","776.111111111","white","no","xpyriment","Ich habe die obigen Informationen gelesen und verstanden.","legacy","legacy","0","uniform","1","0","NA","undefined","undefined","1","j","0","0","NA","NA","NA","NA","NA","0","0","0","0","0","0","8","8","8","0","0","NA","NA","0","0","0","0","NA","0","0","8","8","8","8","8","Thu Oct 26 09:50:27 2017","Forced-choice identification task with a practice and an experimental phase","yes","NAP_GER_AA_4blocks_noglides.osexp","/Users/aviadalbert/Documents/Academisch/UoC/Dissertation/Experiment/OpenSesame/NAP-FC/NAP_GER_AA_4blocks_noglides","yes","no","sans","no","20","no","black","no","Weiter","yes","768","legacy","8","8","0","/Users/aviadalbert/Documents/Academisch/UoC/Dissertation/Experiment/OpenSesame/NAP-FC/NAP_GER_AA_4blocks_noglides/subject-19.csv","xpyriment","Jazzy James","3.1.9","yes","yes","59a800d99ad5a1025d81bb03","59a801616c613b0251691de0","yes","no","0","j","f","NA","NA","return","return","j","785","13645","NA","NA","17935","7072","785","2","legacy","1024","1","44100","-16","experiment","enval","2","1","1","1","1","Englich, Spansch","19","Hebraeisch","odd","1052407","NA","NA","NA","NA","NA","NA","1791","NA","1791","1791","1027110","1045049","1088290","1086787","1089076","1066053","1052403","NA","NA","952925","1016527","NA","1052184","NA","1052406","NA","1088290","1088290","NA","NA","1086783","NAP perception","9","6985","9","yes","1024"
"100","yes","100","775.8","775.8","white","no","xpyriment","Ich habe die obigen Informationen gelesen und verstanden.","legacy","legacy","0","uniform","1","0","NA","undefined","undefined","1","f","0","0","NA","NA","NA","NA","NA","0","0","0","0","0","0","9","9","9","0","0","NA","NA","0","0","0","0","NA","0","0","9","9","9","9","9","Thu Oct 26 09:50:27 2017","Forced-choice identification task with a practice and an experimental phase","yes","NAP_GER_AA_4blocks_noglides.osexp","/Users/aviadalbert/Documents/Academisch/UoC/Dissertation/Experiment/OpenSesame/NAP-FC/NAP_GER_AA_4blocks_noglides","yes","no","sans","no","20","no","black","no","Weiter","yes","768","legacy","9","9","0","/Users/aviadalbert/Documents/Academisch/UoC/Dissertation/Experiment/OpenSesame/NAP-FC/NAP_GER_AA_4blocks_noglides/subject-19.csv","xpyriment","Jazzy James","3.1.9","yes","yes","59a800d99ad5a1025d81bb03","59a801616c613b0251691de0","yes","no","0","f","f","NA","NA","return","return","f","773","13645","NA","NA","17935","7072","773","2","legacy","1024","1","44100","-16","experiment","vlal","2","1","1","1","1","Englich, Spansch","19","Hebraeisch","odd","1052407","NA","NA","NA","NA","NA","NA","1791","NA","1791","1791","1027110","1045049","1090857","1089349","1091631","1066053","1052403","NA","NA","952925","1016527","NA","1052184","NA","1052406","NA","1090857","1090857","NA","NA","1089345","NAP perception","10","7758","10","yes","1024"
"100","yes","100","784","784","white","no","xpyriment","Ich habe die obigen Informationen gelesen und verstanden.","legacy","legacy","0","uniform","1","0","0","undefined","undefined","1","j","2","1","NA","0","1","0","0","0","0","0","0","0","0","10","10","10","0","0","0","NA","0","0","2","0","0","0","2","10","10","10","10","10","Thu Oct 26 09:50:27 2017","Forced-choice identification task with a practice and an experimental phase","yes","NAP_GER_AA_4blocks_noglides.osexp","/Users/aviadalbert/Documents/Academisch/UoC/Dissertation/Experiment/OpenSesame/NAP-FC/NAP_GER_AA_4blocks_noglides","yes","no","sans","no","20","no","black","no","Weiter","yes","768","legacy","0","9","0","/Users/aviadalbert/Documents/Academisch/UoC/Dissertation/Experiment/OpenSesame/NAP-FC/NAP_GER_AA_4blocks_noglides/subject-19.csv","xpyriment","Jazzy James","3.1.9","yes","yes","59a800d99ad5a1025d81bb03","59a801616c613b0251691de0","no","no","0","j","f","space","NA","return","return","j","784","1960","15427","NA","17935","7072","784","2","legacy","1024","1","44100","-16","experiment","elpal","2","1","1","1","1","Englich, Spansch","19","Hebraeisch","odd","1109307","1093348","NA","NA","1111268","1109303","NA","1791","1108829","1791","1791","1027110","1045049","1112990","1111485","1113775","1066053","1052403","1093348","NA","952925","1016527","1091692","1052184","1109307","1052406","NA","1112989","1112990","NA","NA","1111482","NAP perception","1","784","1","yes","1024"
"100","yes","100","690.5","690.5","white","no","xpyriment","Ich habe die obigen Informationen gelesen und verstanden.","legacy","legacy","0","uniform","1","0","0","undefined","undefined","1","j","2","1","NA","0","1","0","0","0","0","0","0","0","0","11","11","11","0","0","0","NA","0","0","2","0","0","0","2","11","11","11","11","11","Thu Oct 26 09:50:27 2017","Forced-choice identification task with a practice and an experimental phase","yes","NAP_GER_AA_4blocks_noglides.osexp","/Users/aviadalbert/Documents/Academisch/UoC/Dissertation/Experiment/OpenSesame/NAP-FC/NAP_GER_AA_4blocks_noglides","yes","no","sans","no","20","no","black","no","Weiter","yes","768","legacy","1","9","0","/Users/aviadalbert/Documents/Academisch/UoC/Dissertation/Experiment/OpenSesame/NAP-FC/NAP_GER_AA_4blocks_noglides/subject-19.csv","xpyriment","Jazzy James","3.1.9","yes","yes","59a800d99ad5a1025d81bb03","59a801616c613b0251691de0","no","no","0","j","f","space","NA","return","return","j","597","1960","15427","NA","17935","7072","597","2","legacy","1024","1","44100","-16","experiment","mezal","2","1","1","1","1","Englich, Spansch","19","Hebraeisch","odd","1109307","1093348","NA","NA","1111268","1109303","NA","1791","1108829","1791","1791","1027110","1045049","1115563","1114057","1116161","1066053","1052403","1093348","NA","952925","1016527","1091692","1052184","1109307","1052406","NA","1115563","1115563","NA","NA","1114053","NAP perception","2","1381","2","yes","1024"
"100","yes","100","674","674","white","no","xpyriment","Ich habe die obigen Informationen gelesen und verstanden.","legacy","legacy","0","uniform","1","0","0","undefined","undefined","1","f","2","1","NA","0","1","0","0","0","0","0","0","0","0","12","12","12","0","0","0","NA","0","0","2","0","0","0","2","12","12","12","12","12","Thu Oct 26 09:50:27 2017","Forced-choice identification task with a practice and an experimental phase","yes","NAP_GER_AA_4blocks_noglides.osexp","/Users/aviadalbert/Documents/Academisch/UoC/Dissertation/Experiment/OpenSesame/NAP-FC/NAP_GER_AA_4blocks_noglides","yes","no","sans","no","20","no","black","no","Weiter","yes","768","legacy","2","9","0","/Users/aviadalbert/Documents/Academisch/UoC/Dissertation/Experiment/OpenSesame/NAP-FC/NAP_GER_AA_4blocks_noglides/subject-19.csv","xpyriment","Jazzy James","3.1.9","yes","yes","59a800d99ad5a1025d81bb03","59a801616c613b0251691de0","no","no","0","f","f","space","NA","return","return","f","641","1960","15427","NA","17935","7072","641","2","legacy","1024","1","44100","-16","experiment","zmal","2","1","1","1","1","Englich, Spansch","19","Hebraeisch","odd","1109307","1093348","NA","NA","1111268","1109303","NA","1791","1108829","1791","1791","1027110","1045049","1117944","1116441","1118586","1066053","1052403","1093348","NA","952925","1016527","1091692","1052184","1109307","1052406","NA","1117944","1117944","NA","NA","1116437","NAP perception","3","2022","3","yes","1024"
"100","yes","100","785","785","white","no","xpyriment","Ich habe die obigen Informationen gelesen und verstanden.","legacy","legacy","0","uniform","1","0","0","undefined","undefined","1","f","2","1","NA","0","1","0","0","0","0","0","0","0","0","13","13","13","0","0","0","NA","0","0","2","0","0","0","2","13","13","13","13","13","Thu Oct 26 09:50:27 2017","Forced-choice identification task with a practice and an experimental phase","yes","NAP_GER_AA_4blocks_noglides.osexp","/Users/aviadalbert/Documents/Academisch/UoC/Dissertation/Experiment/OpenSesame/NAP-FC/NAP_GER_AA_4blocks_noglides","yes","no","sans","no","20","no","black","no","Weiter","yes","768","legacy","3","9","0","/Users/aviadalbert/Documents/Academisch/UoC/Dissertation/Experiment/OpenSesame/NAP-FC/NAP_GER_AA_4blocks_noglides/subject-19.csv","xpyriment","Jazzy James","3.1.9","yes","yes","59a800d99ad5a1025d81bb03","59a801616c613b0251691de0","no","no","0","f","f","space","NA","return","return","f","1118","1960","15427","NA","17935","7072","1118","2","legacy","1024","1","44100","-16","experiment","nval","2","1","1","1","1","Englich, Spansch","19","Hebraeisch","odd","1109307","1093348","NA","NA","1111268","1109303","NA","1791","1108829","1791","1791","1027110","1045049","1120378","1118875","1121497","1066053","1052403","1093348","NA","952925","1016527","1091692","1052184","1109307","1052406","NA","1120378","1120378","NA","NA","1118871","NAP perception","4","3140","4","yes","1024"
"100","yes","100","850.8","850.8","white","no","xpyriment","Ich habe die obigen Informationen gelesen und verstanden.","legacy","legacy","0","uniform","1","0","0","undefined","undefined","1","j","2","1","NA","0","1","0","0","0","0","0","0","0","0","14","14","14","0","0","0","NA","0","0","2","0","0","0","2","14","14","14","14","14","Thu Oct 26 09:50:27 2017","Forced-choice identification task with a practice and an experimental phase","yes","NAP_GER_AA_4blocks_noglides.osexp","/Users/aviadalbert/Documents/Academisch/UoC/Dissertation/Experiment/OpenSesame/NAP-FC/NAP_GER_AA_4blocks_noglides","yes","no","sans","no","20","no","black","no","Weiter","yes","768","legacy","4","9","0","/Users/aviadalbert/Documents/Academisch/UoC/Dissertation/Experiment/OpenSesame/NAP-FC/NAP_GER_AA_4blocks_noglides/subject-19.csv","xpyriment","Jazzy James","3.1.9","yes","yes","59a800d99ad5a1025d81bb03","59a801616c613b0251691de0","no","no","0","j","f","space","NA","return","return","j","1114","1960","15427","NA","17935","7072","1114","2","legacy","1024","1","44100","-16","experiment","zemal","2","1","1","1","1","Englich, Spansch","19","Hebraeisch","odd","1109307","1093348","NA","NA","1111268","1109303","NA","1791","1108829","1791","1791","1027110","1045049","1123269","1121766","1124384","1066053","1052403","1093348","NA","952925","1016527","1091692","1052184","1109307","1052406","NA","1123269","1123269","NA","NA","1121762","NAP perception","5","4254","5","yes","1024"
"83.3333333333","yes","83.3333333333","845","845","white","no","xpyriment","Ich habe die obigen Informationen gelesen und verstanden.","legacy","legacy","0","uniform","0","0","0","undefined","undefined","0","f","2","1","NA","0","1","0","0","0","0","0","0","0","0","15","15","15","0","0","0","NA","0","0","2","0","0","0","2","15","15","15","15","15","Thu Oct 26 09:50:27 2017","Forced-choice identification task with a practice and an experimental phase","yes","NAP_GER_AA_4blocks_noglides.osexp","/Users/aviadalbert/Documents/Academisch/UoC/Dissertation/Experiment/OpenSesame/NAP-FC/NAP_GER_AA_4blocks_noglides","yes","no","sans","no","20","no","black","no","Weiter","yes","768","legacy","5","9","0","/Users/aviadalbert/Documents/Academisch/UoC/Dissertation/Experiment/OpenSesame/NAP-FC/NAP_GER_AA_4blocks_noglides/subject-19.csv","xpyriment","Jazzy James","3.1.9","yes","yes","59a800d99ad5a1025d81bb03","59a801616c613b0251691de0","no","no","0","j","f","space","NA","return","return","j","816","1960","15427","NA","17935","7072","816","2","legacy","1024","1","44100","-16","experiment","lpal","2","1","1","1","1","Englich, Spansch","19","Hebraeisch","odd","1109307","1093348","NA","NA","1111268","1109303","NA","1791","1108829","1791","1791","1027110","1045049","1126174","1124669","1126991","1066053","1052403","1093348","NA","952925","1016527","1091692","1052184","1109307","1052406","NA","1126173","1126173","NA","NA","1124666","NAP perception","5","5070","6","yes","1024"
"85.7142857143","yes","85.7142857143","856.714285714","856.714285714","white","no","xpyriment","Ich habe die obigen Informationen gelesen und verstanden.","legacy","legacy","0","uniform","1","0","0","undefined","undefined","1","f","2","1","NA","0","1","0","0","0","0","0","0","0","0","16","16","16","0","0","0","NA","0","0","2","0","0","0","2","16","16","16","16","16","Thu Oct 26 09:50:27 2017","Forced-choice identification task with a practice and an experimental phase","yes","NAP_GER_AA_4blocks_noglides.osexp","/Users/aviadalbert/Documents/Academisch/UoC/Dissertation/Experiment/OpenSesame/NAP-FC/NAP_GER_AA_4blocks_noglides","yes","no","sans","no","20","no","black","no","Weiter","yes","768","legacy","6","9","0","/Users/aviadalbert/Documents/Academisch/UoC/Dissertation/Experiment/OpenSesame/NAP-FC/NAP_GER_AA_4blocks_noglides/subject-19.csv","xpyriment","Jazzy James","3.1.9","yes","yes","59a800d99ad5a1025d81bb03","59a801616c613b0251691de0","no","no","0","f","f","space","NA","return","return","f","927","1960","15427","NA","17935","7072","927","2","legacy","1024","1","44100","-16","experiment","ftal","2","1","1","1","1","Englich, Spansch","19","Hebraeisch","odd","1109307","1093348","NA","NA","1111268","1109303","NA","1791","1108829","1791","1791","1027110","1045049","1128775","1127268","1129703","1066053","1052403","1093348","NA","952925","1016527","1091692","1052184","1109307","1052406","NA","1128775","1128775","NA","NA","1127264","NAP perception","6","5997","7","yes","1024"
"87.5","yes","87.5","913.125","913.125","white","no","xpyriment","Ich habe die obigen Informationen gelesen und verstanden.","legacy","legacy","0","uniform","1","0","0","undefined","undefined","1","j","2","1","NA","0","1","0","0","0","0","0","0","0","0","17","17","17","0","0","0","NA","0","0","2","0","0","0","2","17","17","17","17","17","Thu Oct 26 09:50:27 2017","Forced-choice identification task with a practice and an experimental phase","yes","NAP_GER_AA_4blocks_noglides.osexp","/Users/aviadalbert/Documents/Academisch/UoC/Dissertation/Experiment/OpenSesame/NAP-FC/NAP_GER_AA_4blocks_noglides","yes","no","sans","no","20","no","black","no","Weiter","yes","768","legacy","7","9","0","/Users/aviadalbert/Documents/Academisch/UoC/Dissertation/Experiment/OpenSesame/NAP-FC/NAP_GER_AA_4blocks_noglides/subject-19.csv","xpyriment","Jazzy James","3.1.9","yes","yes","59a800d99ad5a1025d81bb03","59a801616c613b0251691de0","no","no","0","j","f","space","NA","return","return","j","1308","1960","15427","NA","17935","7072","1308","2","legacy","1024","1","44100","-16","experiment","nepal","2","1","1","1","1","Englich, Spansch","19","Hebraeisch","odd","1109307","1093348","NA","NA","1111268","1109303","NA","1791","1108829","1791","1791","1027110","1045049","1131501","1129995","1132810","1066053","1052403","1093348","NA","952925","1016527","1091692","1052184","1109307","1052406","NA","1131501","1131501","NA","NA","1129991","NAP perception","7","7305","8","yes","1024"
"88.8888888889","yes","88.8888888889","894.222222222","894.222222222","white","no","xpyriment","Ich habe die obigen Informationen gelesen und verstanden.","legacy","legacy","0","uniform","1","0","0","undefined","undefined","1","j","2","1","NA","0","1","0","0","0","0","0","0","0","0","18","18","18","0","0","0","NA","0","0","2","0","0","0","2","18","18","18","18","18","Thu Oct 26 09:50:27 2017","Forced-choice identification task with a practice and an experimental phase","yes","NAP_GER_AA_4blocks_noglides.osexp","/Users/aviadalbert/Documents/Academisch/UoC/Dissertation/Experiment/OpenSesame/NAP-FC/NAP_GER_AA_4blocks_noglides","yes","no","sans","no","20","no","black","no","Weiter","yes","768","legacy","8","9","0","/Users/aviadalbert/Documents/Academisch/UoC/Dissertation/Experiment/OpenSesame/NAP-FC/NAP_GER_AA_4blocks_noglides/subject-19.csv","xpyriment","Jazzy James","3.1.9","yes","yes","59a800d99ad5a1025d81bb03","59a801616c613b0251691de0","no","no","0","j","f","space","NA","return","return","j","743","1960","15427","NA","17935","7072","743","2","legacy","1024","1","44100","-16","experiment","velal","2","1","1","1","1","Englich, Spansch","19","Hebraeisch","odd","1109307","1093348","NA","NA","1111268","1109303","NA","1791","1108829","1791","1791","1027110","1045049","1134602","1133096","1135346","1066053","1052403","1093348","NA","952925","1016527","1091692","1052184","1109307","1052406","NA","1134602","1134602","NA","NA","1133092","NAP perception","8","8048","9","yes","1024"
"90","yes","90","890.4","890.4","white","no","xpyriment","Ich habe die obigen Informationen gelesen und verstanden.","legacy","legacy","0","uniform","1","0","0","undefined","undefined","1","f","2","1","NA","0","1","0","0","0","0","0","0","0","0","19","19","19","0","0","0","NA","0","0","2","0","0","0","2","19","19","19","19","19","Thu Oct 26 09:50:27 2017","Forced-choice identification task with a practice and an experimental phase","yes","NAP_GER_AA_4blocks_noglides.osexp","/Users/aviadalbert/Documents/Academisch/UoC/Dissertation/Experiment/OpenSesame/NAP-FC/NAP_GER_AA_4blocks_noglides","yes","no","sans","no","20","no","black","no","Weiter","yes","768","legacy","9","9","0","/Users/aviadalbert/Documents/Academisch/UoC/Dissertation/Experiment/OpenSesame/NAP-FC/NAP_GER_AA_4blocks_noglides/subject-19.csv","xpyriment","Jazzy James","3.1.9","yes","yes","59a800d99ad5a1025d81bb03","59a801616c613b0251691de0","no","no","0","f","f","space","NA","return","return","f","856","1960","15427","NA","17935","7072","856","2","legacy","1024","1","44100","-16","experiment","ʃfal","2","1","1","1","1","Englich, Spansch","19","Hebraeisch","odd","1109307","1093348","NA","NA","1111268","1109303","NA","1791","1108829","1791","1791","1027110","1045049","1137132","1135628","1137989","1066053","1052403","1093348","NA","952925","1016527","1091692","1052184","1109307","1052406","NA","1137132","1137132","NA","NA","1135625","NAP perception","9","8904","10","yes","1024"
"90.9090909091","yes","90.9090909091","876.818181818","876.818181818","white","no","xpyriment","Ich habe die obigen Informationen gelesen und verstanden.","legacy","legacy","0","uniform","1","0","0","undefined","undefined","1","j","2","1","NA","0","1","0","0","0","0","0","0","0","0","20","20","20","0","0","0","NA","0","0","2","0","0","0","2","20","20","20","20","20","Thu Oct 26 09:50:27 2017","Forced-choice identification task with a practice and an experimental phase","yes","NAP_GER_AA_4blocks_noglides.osexp","/Users/aviadalbert/Documents/Academisch/UoC/Dissertation/Experiment/OpenSesame/NAP-FC/NAP_GER_AA_4blocks_noglides","yes","no","sans","no","20","no","black","no","Weiter","yes","768","legacy","10","9","0","/Users/aviadalbert/Documents/Academisch/UoC/Dissertation/Experiment/OpenSesame/NAP-FC/NAP_GER_AA_4blocks_noglides/subject-19.csv","xpyriment","Jazzy James","3.1.9","yes","yes","59a800d99ad5a1025d81bb03","59a801616c613b0251691de0","no","no","0","j","f","space","NA","return","return","j","741","1960","15427","NA","17935","7072","741","2","legacy","1024","1","44100","-16","experiment","esmal","2","1","1","1","1","Englich, Spansch","19","Hebraeisch","odd","1109307","1093348","NA","NA","1111268","1109303","NA","1791","1108829","1791","1791","1027110","1045049","1139769","1138266","1140511","1066053","1052403","1093348","NA","952925","1016527","1091692","1052184","1109307","1052406","NA","1139769","1139769","NA","NA","1138262","NAP perception","10","9645","11","yes","1024"
"91.6666666667","yes","91.6666666667","857.5","857.5","white","no","xpyriment","Ich habe die obigen Informationen gelesen und verstanden.","legacy","legacy","0","uniform","1","0","0","undefined","undefined","1","j","2","1","NA","0","1","0","0","0","0","0","0","0","0","21","21","21","0","0","0","NA","0","0","2","0","0","0","2","21","21","21","21","21","Thu Oct 26 09:50:27 2017","Forced-choice identification task with a practice and an experimental phase","yes","NAP_GER_AA_4blocks_noglides.osexp","/Users/aviadalbert/Documents/Academisch/UoC/Dissertation/Experiment/OpenSesame/NAP-FC/NAP_GER_AA_4blocks_noglides","yes","no","sans","no","20","no","black","no","Weiter","yes","768","legacy","11","9","0","/Users/aviadalbert/Documents/Academisch/UoC/Dissertation/Experiment/OpenSesame/NAP-FC/NAP_GER_AA_4blocks_noglides/subject-19.csv","xpyriment","Jazzy James","3.1.9","yes","yes","59a800d99ad5a1025d81bb03","59a801616c613b0251691de0","no","no","0","j","f","space","NA","return","return","j","645","1960","15427","NA","17935","7072","645","2","legacy","1024","1","44100","-16","experiment","efsal","2","1","1","1","1","Englich, Spansch","19","Hebraeisch","odd","1109307","1093348","NA","NA","1111268","1109303","NA","1791","1108829","1791","1791","1027110","1045049","1142300","1140796","1142947","1066053","1052403","1093348","NA","952925","1016527","1091692","1052184","1109307","1052406","NA","1142300","1142300","NA","NA","1140792","NAP perception","11","10290","12","yes","1024"
"84.6153846154","yes","84.6153846154","872.153846154","872.153846154","white","no","xpyriment","Ich habe die obigen Informationen gelesen und verstanden.","legacy","legacy","0","uniform","0","0","0","undefined","undefined","0","f","2","1","NA","0","1","0","0","0","0","0","0","0","0","22","22","22","0","0","0","NA","0","0","2","0","0","0","2","22","22","22","22","22","Thu Oct 26 09:50:27 2017","Forced-choice identification task with a practice and an experimental phase","yes","NAP_GER_AA_4blocks_noglides.osexp","/Users/aviadalbert/Documents/Academisch/UoC/Dissertation/Experiment/OpenSesame/NAP-FC/NAP_GER_AA_4blocks_noglides","yes","no","sans","no","20","no","black","no","Weiter","yes","768","legacy","12","9","0","/Users/aviadalbert/Documents/Academisch/UoC/Dissertation/Experiment/OpenSesame/NAP-FC/NAP_GER_AA_4blocks_noglides/subject-19.csv","xpyriment","Jazzy James","3.1.9","yes","yes","59a800d99ad5a1025d81bb03","59a801616c613b0251691de0","no","no","0","j","f","space","NA","return","return","j","1048","1960","15427","NA","17935","7072","1048","2","legacy","1024","1","44100","-16","experiment","zval","2","1","1","1","1","Englich, Spansch","19","Hebraeisch","odd","1109307","1093348","NA","NA","1111268","1109303","NA","1791","1108829","1791","1791","1027110","1045049","1144736","1143232","1145785","1066053","1052403","1093348","NA","952925","1016527","1091692","1052184","1109307","1052406","NA","1144736","1144736","NA","NA","1143228","NAP perception","11","11338","13","yes","1024"
"85.7142857143","yes","85.7142857143","877.071428571","877.071428571","white","no","xpyriment","Ich habe die obigen Informationen gelesen und verstanden.","legacy","legacy","0","uniform","1","0","0","undefined","undefined","1","j","2","1","NA","0","1","0","0","0","0","0","0","0","0","23","23","23","0","0","0","NA","0","0","2","0","0","0","2","23","23","23","23","23","Thu Oct 26 09:50:27 2017","Forced-choice identification task with a practice and an experimental phase","yes","NAP_GER_AA_4blocks_noglides.osexp","/Users/aviadalbert/Documents/Academisch/UoC/Dissertation/Experiment/OpenSesame/NAP-FC/NAP_GER_AA_4blocks_noglides","yes","no","sans","no","20","no","black","no","Weiter","yes","768","legacy","13","9","0","/Users/aviadalbert/Documents/Academisch/UoC/Dissertation/Experiment/OpenSesame/NAP-FC/NAP_GER_AA_4blocks_noglides/subject-19.csv","xpyriment","Jazzy James","3.1.9","yes","yes","59a800d99ad5a1025d81bb03","59a801616c613b0251691de0","no","no","0","j","f","space","NA","return","return","j","941","1960","15427","NA","17935","7072","941","2","legacy","1024","1","44100","-16","experiment","elfal","2","1","1","1","1","Englich, Spansch","19","Hebraeisch","odd","1109307","1093348","NA","NA","1111268","1109303","NA","1791","1108829","1791","1791","1027110","1045049","1147562","1146059","1148504","1066053","1052403","1093348","NA","952925","1016527","1091692","1052184","1109307","1052406","NA","1147562","1147562","NA","NA","1146055","NAP perception","12","12279","14","yes","1024"
"86.6666666667","yes","86.6666666667","869.133333333","869.133333333","white","no","xpyriment","Ich habe die obigen Informationen gelesen und verstanden.","legacy","legacy","0","uniform","1","0","0","undefined","undefined","1","j","2","1","NA","0","1","0","0","0","0","0","0","0","0","24","24","24","0","0","0","NA","0","0","2","0","0","0","2","24","24","24","24","24","Thu Oct 26 09:50:27 2017","Forced-choice identification task with a practice and an experimental phase","yes","NAP_GER_AA_4blocks_noglides.osexp","/Users/aviadalbert/Documents/Academisch/UoC/Dissertation/Experiment/OpenSesame/NAP-FC/NAP_GER_AA_4blocks_noglides","yes","no","sans","no","20","no","black","no","Weiter","yes","768","legacy","14","9","0","/Users/aviadalbert/Documents/Academisch/UoC/Dissertation/Experiment/OpenSesame/NAP-FC/NAP_GER_AA_4blocks_noglides/subject-19.csv","xpyriment","Jazzy James","3.1.9","yes","yes","59a800d99ad5a1025d81bb03","59a801616c613b0251691de0","no","no","0","j","f","space","NA","return","return","j","758","1960","15427","NA","17935","7072","758","2","legacy","1024","1","44100","-16","experiment","evzal","2","1","1","1","1","Englich, Spansch","19","Hebraeisch","odd","1109307","1093348","NA","NA","1111268","1109303","NA","1791","1108829","1791","1791","1027110","1045049","1150280","1148777","1151040","1066053","1052403","1093348","NA","952925","1016527","1091692","1052184","1109307","1052406","NA","1150280","1150280","NA","NA","1148773","NAP perception","13","13037","15","yes","1024"
"87.5","yes","87.5","860.25","860.25","white","no","xpyriment","Ich habe die obigen Informationen gelesen und verstanden.","legacy","legacy","0","uniform","1","0","0","undefined","undefined","1","f","2","1","NA","0","1","0","0","0","0","0","0","0","0","25","25","25","0","0","0","NA","0","0","2","0","0","0","2","25","25","25","25","25","Thu Oct 26 09:50:27 2017","Forced-choice identification task with a practice and an experimental phase","yes","NAP_GER_AA_4blocks_noglides.osexp","/Users/aviadalbert/Documents/Academisch/UoC/Dissertation/Experiment/OpenSesame/NAP-FC/NAP_GER_AA_4blocks_noglides","yes","no","sans","no","20","no","black","no","Weiter","yes","768","legacy","15","9","0","/Users/aviadalbert/Documents/Academisch/UoC/Dissertation/Experiment/OpenSesame/NAP-FC/NAP_GER_AA_4blocks_noglides/subject-19.csv","xpyriment","Jazzy James","3.1.9","yes","yes","59a800d99ad5a1025d81bb03","59a801616c613b0251691de0","no","no","0","f","f","space","NA","return","return","f","727","1960","15427","NA","17935","7072","727","2","legacy","1024","1","44100","-16","experiment","sfal","2","1","1","1","1","Englich, Spansch","19","Hebraeisch","odd","1109307","1093348","NA","NA","1111268","1109303","NA","1791","1108829","1791","1791","1027110","1045049","1152824","1151318","1153552","1066053","1052403","1093348","NA","952925","1016527","1091692","1052184","1109307","1052406","NA","1152824","1152824","NA","NA","1151315","NAP perception","14","13764","16","yes","1024"
"88.2352941176","yes","88.2352941176","856.882352941","856.882352941","white","no","xpyriment","Ich habe die obigen Informationen gelesen und verstanden.","legacy","legacy","0","uniform","1","0","0","undefined","undefined","1","f","2","1","NA","0","1","0","0","0","0","0","0","0","0","26","26","26","0","0","0","NA","0","0","2","0","0","0","2","26","26","26","26","26","Thu Oct 26 09:50:27 2017","Forced-choice identification task with a practice and an experimental phase","yes","NAP_GER_AA_4blocks_noglides.osexp","/Users/aviadalbert/Documents/Academisch/UoC/Dissertation/Experiment/OpenSesame/NAP-FC/NAP_GER_AA_4blocks_noglides","yes","no","sans","no","20","no","black","no","Weiter","yes","768","legacy","16","9","0","/Users/aviadalbert/Documents/Academisch/UoC/Dissertation/Experiment/OpenSesame/NAP-FC/NAP_GER_AA_4blocks_noglides/subject-19.csv","xpyriment","Jazzy James","3.1.9","yes","yes","59a800d99ad5a1025d81bb03","59a801616c613b0251691de0","no","no","0","f","f","space","NA","return","return","f","803","1960","15427","NA","17935","7072","803","2","legacy","1024","1","44100","-16","experiment","flal","2","1","1","1","1","Englich, Spansch","19","Hebraeisch","odd","1109307","1093348","NA","NA","1111268","1109303","NA","1791","1108829","1791","1791","1027110","1045049","1155337","1153833","1156141","1066053","1052403","1093348","NA","952925","1016527","1091692","1052184","1109307","1052406","NA","1155337","1155337","NA","NA","1153829","NAP perception","15","14567","17","yes","1024"
"88.8888888889","yes","88.8888888889","840.833333333","840.833333333","white","no","xpyriment","Ich habe die obigen Informationen gelesen und verstanden.","legacy","legacy","0","uniform","1","0","0","undefined","undefined","1","j","2","1","NA","0","1","0","0","0","0","0","0","0","0","27","27","27","0","0","0","NA","0","0","2","0","0","0","2","27","27","27","27","27","Thu Oct 26 09:50:27 2017","Forced-choice identification task with a practice and an experimental phase","yes","NAP_GER_AA_4blocks_noglides.osexp","/Users/aviadalbert/Documents/Academisch/UoC/Dissertation/Experiment/OpenSesame/NAP-FC/NAP_GER_AA_4blocks_noglides","yes","no","sans","no","20","no","black","no","Weiter","yes","768","legacy","17","9","0","/Users/aviadalbert/Documents/Academisch/UoC/Dissertation/Experiment/OpenSesame/NAP-FC/NAP_GER_AA_4blocks_noglides/subject-19.csv","xpyriment","Jazzy James","3.1.9","yes","yes","59a800d99ad5a1025d81bb03","59a801616c613b0251691de0","no","no","0","j","f","space","NA","return","return","j","568","1960","15427","NA","17935","7072","568","2","legacy","1024","1","44100","-16","experiment","lepal","2","1","1","1","1","Englich, Spansch","19","Hebraeisch","odd","1109307","1093348","NA","NA","1111268","1109303","NA","1791","1108829","1791","1791","1027110","1045049","1157928","1156422","1158497","1066053","1052403","1093348","NA","952925","1016527","1091692","1052184","1109307","1052406","NA","1157927","1157928","NA","NA","1156418","NAP perception","16","15135","18","yes","1024"
"89.4736842105","yes","89.4736842105","894.789473684","894.789473684","white","no","xpyriment","Ich habe die obigen Informationen gelesen und verstanden.","legacy","legacy","0","uniform","1","0","0","undefined","undefined","1","f","2","1","NA","0","1","0","0","0","0","0","0","0","0","28","28","28","0","0","0","NA","0","0","2","0","0","0","2","28","28","28","28","28","Thu Oct 26 09:50:27 2017","Forced-choice identification task with a practice and an experimental phase","yes","NAP_GER_AA_4blocks_noglides.osexp","/Users/aviadalbert/Documents/Academisch/UoC/Dissertation/Experiment/OpenSesame/NAP-FC/NAP_GER_AA_4blocks_noglides","yes","no","sans","no","20","no","black","no","Weiter","yes","768","legacy","18","9","0","/Users/aviadalbert/Documents/Academisch/UoC/Dissertation/Experiment/OpenSesame/NAP-FC/NAP_GER_AA_4blocks_noglides/subject-19.csv","xpyriment","Jazzy James","3.1.9","yes","yes","59a800d99ad5a1025d81bb03","59a801616c613b0251691de0","no","no","0","f","f","space","NA","return","return","f","1866","1960","15427","NA","17935","7072","1866","2","legacy","1024","1","44100","-16","experiment","fnal","2","1","1","1","1","Englich, Spansch","19","Hebraeisch","odd","1109307","1093348","NA","NA","1111268","1109303","NA","1791","1108829","1791","1791","1027110","1045049","1160285","1158782","1162152","1066053","1052403","1093348","NA","952925","1016527","1091692","1052184","1109307","1052406","NA","1160285","1160285","NA","NA","1158778","NAP perception","17","17001","19","yes","1024"
"90","yes","90","890.95","890.95","white","no","xpyriment","Ich habe die obigen Informationen gelesen und verstanden.","legacy","legacy","0","uniform","1","0","0","undefined","undefined","1","j","2","1","NA","0","1","0","0","0","0","0","0","0","0","29","29","29","0","0","0","NA","0","0","2","0","0","0","2","29","29","29","29","29","Thu Oct 26 09:50:27 2017","Forced-choice identification task with a practice and an experimental phase","yes","NAP_GER_AA_4blocks_noglides.osexp","/Users/aviadalbert/Documents/Academisch/UoC/Dissertation/Experiment/OpenSesame/NAP-FC/NAP_GER_AA_4blocks_noglides","yes","no","sans","no","20","no","black","no","Weiter","yes","768","legacy","19","9","0","/Users/aviadalbert/Documents/Academisch/UoC/Dissertation/Experiment/OpenSesame/NAP-FC/NAP_GER_AA_4blocks_noglides/subject-19.csv","xpyriment","Jazzy James","3.1.9","yes","yes","59a800d99ad5a1025d81bb03","59a801616c613b0251691de0","no","no","0","j","f","space","NA","return","return","j","818","1960","15427","NA","17935","7072","818","2","legacy","1024","1","44100","-16","experiment","metal","2","1","1","1","1","Englich, Spansch","19","Hebraeisch","odd","1109307","1093348","NA","NA","1111268","1109303","NA","1791","1108829","1791","1791","1027110","1045049","1163942","1162434","1164762","1066053","1052403","1093348","NA","952925","1016527","1091692","1052184","1109307","1052406","NA","1163941","1163942","NA","NA","1162430","NAP perception","18","17819","20","yes","1024"
"90.4761904762","yes","90.4761904762","875.142857143","875.142857143","white","no","xpyriment","Ich habe die obigen Informationen gelesen und verstanden.","legacy","legacy","0","uniform","1","0","0","undefined","undefined","1","j","2","1","NA","0","1","0","0","0","0","0","0","0","0","30","30","30","0","0","0","NA","0","0","2","0","0","0","2","30","30","30","30","30","Thu Oct 26 09:50:27 2017","Forced-choice identification task with a practice and an experimental phase","yes","NAP_GER_AA_4blocks_noglides.osexp","/Users/aviadalbert/Documents/Academisch/UoC/Dissertation/Experiment/OpenSesame/NAP-FC/NAP_GER_AA_4blocks_noglides","yes","no","sans","no","20","no","black","no","Weiter","yes","768","legacy","20","9","0","/Users/aviadalbert/Documents/Academisch/UoC/Dissertation/Experiment/OpenSesame/NAP-FC/NAP_GER_AA_4blocks_noglides/subject-19.csv","xpyriment","Jazzy James","3.1.9","yes","yes","59a800d99ad5a1025d81bb03","59a801616c613b0251691de0","no","no","0","j","f","space","NA","return","return","j","559","1960","15427","NA","17935","7072","559","2","legacy","1024","1","44100","-16","experiment","esfal","2","1","1","1","1","Englich, Spansch","19","Hebraeisch","odd","1109307","1093348","NA","NA","1111268","1109303","NA","1791","1108829","1791","1791","1027110","1045049","1166544","1165038","1167105","1066053","1052403","1093348","NA","952925","1016527","1091692","1052184","1109307","1052406","NA","1166544","1166544","NA","NA","1165034","NAP perception","19","18378","21","yes","1024"
"90.9090909091","yes","90.9090909091","858.136363636","858.136363636","white","no","xpyriment","Ich habe die obigen Informationen gelesen und verstanden.","legacy","legacy","0","uniform","1","0","0","undefined","undefined","1","j","2","1","NA","0","1","0","0","0","0","0","0","0","0","31","31","31","0","0","0","NA","0","0","2","0","0","0","2","31","31","31","31","31","Thu Oct 26 09:50:27 2017","Forced-choice identification task with a practice and an experimental phase","yes","NAP_GER_AA_4blocks_noglides.osexp","/Users/aviadalbert/Documents/Academisch/UoC/Dissertation/Experiment/OpenSesame/NAP-FC/NAP_GER_AA_4blocks_noglides","yes","no","sans","no","20","no","black","no","Weiter","yes","768","legacy","21","9","0","/Users/aviadalbert/Documents/Academisch/UoC/Dissertation/Experiment/OpenSesame/NAP-FC/NAP_GER_AA_4blocks_noglides/subject-19.csv","xpyriment","Jazzy James","3.1.9","yes","yes","59a800d99ad5a1025d81bb03","59a801616c613b0251691de0","no","no","0","j","f","space","NA","return","return","j","501","1960","15427","NA","17935","7072","501","2","legacy","1024","1","44100","-16","experiment","espal","2","1","1","1","1","Englich, Spansch","19","Hebraeisch","odd","1109307","1093348","NA","NA","1111268","1109303","NA","1791","1108829","1791","1791","1027110","1045049","1168903","1167400","1169405","1066053","1052403","1093348","NA","952925","1016527","1091692","1052184","1109307","1052406","NA","1168903","1168903","NA","NA","1167396","NAP perception","20","18879","22","yes","1024"
"91.3043478261","yes","91.3043478261","845.52173913","845.52173913","white","no","xpyriment","Ich habe die obigen Informationen gelesen und verstanden.","legacy","legacy","0","uniform","1","0","0","undefined","undefined","1","j","2","1","NA","0","1","0","0","0","0","0","0","0","0","32","32","32","0","0","0","NA","0","0","2","0","0","0","2","32","32","32","32","32","Thu Oct 26 09:50:27 2017","Forced-choice identification task with a practice and an experimental phase","yes","NAP_GER_AA_4blocks_noglides.osexp","/Users/aviadalbert/Documents/Academisch/UoC/Dissertation/Experiment/OpenSesame/NAP-FC/NAP_GER_AA_4blocks_noglides","yes","no","sans","no","20","no","black","no","Weiter","yes","768","legacy","22","9","0","/Users/aviadalbert/Documents/Academisch/UoC/Dissertation/Experiment/OpenSesame/NAP-FC/NAP_GER_AA_4blocks_noglides/subject-19.csv","xpyriment","Jazzy James","3.1.9","yes","yes","59a800d99ad5a1025d81bb03","59a801616c613b0251691de0","no","no","0","j","f","space","NA","return","return","j","568","1960","15427","NA","17935","7072","568","2","legacy","1024","1","44100","-16","experiment","emzal","2","1","1","1","1","Englich, Spansch","19","Hebraeisch","odd","1109307","1093348","NA","NA","1111268","1109303","NA","1791","1108829","1791","1791","1027110","1045049","1171190","1169687","1171759","1066053","1052403","1093348","NA","952925","1016527","1091692","1052184","1109307","1052406","NA","1171190","1171190","NA","NA","1169683","NAP perception","21","19447","23","yes","1024"
"91.6666666667","yes","91.6666666667","828","828","white","no","xpyriment","Ich habe die obigen Informationen gelesen und verstanden.","legacy","legacy","0","uniform","1","0","0","undefined","undefined","1","j","2","1","NA","0","1","0","0","0","0","0","0","0","0","33","33","33","0","0","0","NA","0","0","2","0","0","0","2","33","33","33","33","33","Thu Oct 26 09:50:27 2017","Forced-choice identification task with a practice and an experimental phase","yes","NAP_GER_AA_4blocks_noglides.osexp","/Users/aviadalbert/Documents/Academisch/UoC/Dissertation/Experiment/OpenSesame/NAP-FC/NAP_GER_AA_4blocks_noglides","yes","no","sans","no","20","no","black","no","Weiter","yes","768","legacy","23","9","0","/Users/aviadalbert/Documents/Academisch/UoC/Dissertation/Experiment/OpenSesame/NAP-FC/NAP_GER_AA_4blocks_noglides/subject-19.csv","xpyriment","Jazzy James","3.1.9","yes","yes","59a800d99ad5a1025d81bb03","59a801616c613b0251691de0","no","no","0","j","f","space","NA","return","return","j","425","1960","15427","NA","17935","7072","425","2","legacy","1024","1","44100","-16","experiment","fetal","2","1","1","1","1","Englich, Spansch","19","Hebraeisch","odd","1109307","1093348","NA","NA","1111268","1109303","NA","1791","1108829","1791","1791","1027110","1045049","1173566","1172059","1173993","1066053","1052403","1093348","NA","952925","1016527","1091692","1052184","1109307","1052406","NA","1173566","1173566","NA","NA","1172055","NAP perception","22","19872","24","yes","1024"
"92","yes","92","820.92","820.92","white","no","xpyriment","Ich habe die obigen Informationen gelesen und verstanden.","legacy","legacy","0","uniform","1","0","0","undefined","undefined","1","f","2","1","NA","0","1","0","0","0","0","0","0","0","0","34","34","34","0","0","0","NA","0","0","2","0","0","0","2","34","34","34","34","34","Thu Oct 26 09:50:27 2017","Forced-choice identification task with a practice and an experimental phase","yes","NAP_GER_AA_4blocks_noglides.osexp","/Users/aviadalbert/Documents/Academisch/UoC/Dissertation/Experiment/OpenSesame/NAP-FC/NAP_GER_AA_4blocks_noglides","yes","no","sans","no","20","no","black","no","Weiter","yes","768","legacy","24","9","0","/Users/aviadalbert/Documents/Academisch/UoC/Dissertation/Experiment/OpenSesame/NAP-FC/NAP_GER_AA_4blocks_noglides/subject-19.csv","xpyriment","Jazzy James","3.1.9","yes","yes","59a800d99ad5a1025d81bb03","59a801616c613b0251691de0","no","no","0","f","f","space","NA","return","return","f","651","1960","15427","NA","17935","7072","651","2","legacy","1024","1","44100","-16","experiment","mlal","2","1","1","1","1","Englich, Spansch","19","Hebraeisch","odd","1109307","1093348","NA","NA","1111268","1109303","NA","1791","1108829","1791","1791","1027110","1045049","1175774","1174270","1176426","1066053","1052403","1093348","NA","952925","1016527","1091692","1052184","1109307","1052406","NA","1175773","1175773","NA","NA","1174266","NAP perception","23","20523","25","yes","1024"
"92.3076923077","yes","92.3076923077","817.653846154","817.653846154","white","no","xpyriment","Ich habe die obigen Informationen gelesen und verstanden.","legacy","legacy","0","uniform","1","0","0","undefined","undefined","1","f","2","1","NA","0","1","0","0","0","0","0","0","0","0","35","35","35","0","0","0","NA","0","0","2","0","0","0","2","35","35","35","35","35","Thu Oct 26 09:50:27 2017","Forced-choice identification task with a practice and an experimental phase","yes","NAP_GER_AA_4blocks_noglides.osexp","/Users/aviadalbert/Documents/Academisch/UoC/Dissertation/Experiment/OpenSesame/NAP-FC/NAP_GER_AA_4blocks_noglides","yes","no","sans","no","20","no","black","no","Weiter","yes","768","legacy","25","9","0","/Users/aviadalbert/Documents/Academisch/UoC/Dissertation/Experiment/OpenSesame/NAP-FC/NAP_GER_AA_4blocks_noglides/subject-19.csv","xpyriment","Jazzy James","3.1.9","yes","yes","59a800d99ad5a1025d81bb03","59a801616c613b0251691de0","no","no","0","f","f","space","NA","return","return","f","736","1960","15427","NA","17935","7072","736","2","legacy","1024","1","44100","-16","experiment","fsal","2","1","1","1","1","Englich, Spansch","19","Hebraeisch","odd","1109307","1093348","NA","NA","1111268","1109303","NA","1791","1108829","1791","1791","1027110","1045049","1178221","1176716","1178958","1066053","1052403","1093348","NA","952925","1016527","1091692","1052184","1109307","1052406","NA","1178221","1178221","NA","NA","1176712","NAP perception","24","21259","26","yes","1024"
"92.5925925926","yes","92.5925925926","810.666666667","810.666666667","white","no","xpyriment","Ich habe die obigen Informationen gelesen und verstanden.","legacy","legacy","0","uniform","1","0","0","undefined","undefined","1","j","2","1","NA","0","1","0","0","0","0","0","0","0","0","36","36","36","0","0","0","NA","0","0","2","0","0","0","2","36","36","36","36","36","Thu Oct 26 09:50:27 2017","Forced-choice identification task with a practice and an experimental phase","yes","NAP_GER_AA_4blocks_noglides.osexp","/Users/aviadalbert/Documents/Academisch/UoC/Dissertation/Experiment/OpenSesame/NAP-FC/NAP_GER_AA_4blocks_noglides","yes","no","sans","no","20","no","black","no","Weiter","yes","768","legacy","26","9","0","/Users/aviadalbert/Documents/Academisch/UoC/Dissertation/Experiment/OpenSesame/NAP-FC/NAP_GER_AA_4blocks_noglides/subject-19.csv","xpyriment","Jazzy James","3.1.9","yes","yes","59a800d99ad5a1025d81bb03","59a801616c613b0251691de0","no","no","0","j","f","space","NA","return","return","j","629","1960","15427","NA","17935","7072","629","2","legacy","1024","1","44100","-16","experiment","lekal","2","1","1","1","1","Englich, Spansch","19","Hebraeisch","odd","1109307","1093348","NA","NA","1111268","1109303","NA","1791","1108829","1791","1791","1027110","1045049","1180753","1179246","1181383","1066053","1052403","1093348","NA","952925","1016527","1091692","1052184","1109307","1052406","NA","1180753","1180753","NA","NA","1179242","NAP perception","25","21888","27","yes","1024"
"92.8571428571","yes","92.8571428571","815.607142857","815.607142857","white","no","xpyriment","Ich habe die obigen Informationen gelesen und verstanden.","legacy","legacy","0","uniform","1","0","0","undefined","undefined","1","j","2","1","NA","0","1","0","0","0","0","0","0","0","0","37","37","37","0","0","0","NA","0","0","2","0","0","0","2","37","37","37","37","37","Thu Oct 26 09:50:27 2017","Forced-choice identification task with a practice and an experimental phase","yes","NAP_GER_AA_4blocks_noglides.osexp","/Users/aviadalbert/Documents/Academisch/UoC/Dissertation/Experiment/OpenSesame/NAP-FC/NAP_GER_AA_4blocks_noglides","yes","no","sans","no","20","no","black","no","Weiter","yes","768","legacy","27","9","0","/Users/aviadalbert/Documents/Academisch/UoC/Dissertation/Experiment/OpenSesame/NAP-FC/NAP_GER_AA_4blocks_noglides/subject-19.csv","xpyriment","Jazzy James","3.1.9","yes","yes","59a800d99ad5a1025d81bb03","59a801616c613b0251691de0","no","no","0","j","f","space","NA","return","return","j","949","1960","15427","NA","17935","7072","949","2","legacy","1024","1","44100","-16","experiment","emtal","2","1","1","1","1","Englich, Spansch","19","Hebraeisch","odd","1109307","1093348","NA","NA","1111268","1109303","NA","1791","1108829","1791","1791","1027110","1045049","1183163","1181660","1184113","1066053","1052403","1093348","NA","952925","1016527","1091692","1052184","1109307","1052406","NA","1183163","1183163","NA","NA","1181656","NAP perception","26","22837","28","yes","1024"
"93.1034482759","yes","93.1034482759","833.896551724","833.896551724","white","no","xpyriment","Ich habe die obigen Informationen gelesen und verstanden.","legacy","legacy","0","uniform","1","0","0","undefined","undefined","1","f","2","1","NA","0","1","0","0","0","0","0","0","0","0","38","38","38","0","0","0","NA","0","0","2","0","0","0","2","38","38","38","38","38","Thu Oct 26 09:50:27 2017","Forced-choice identification task with a practice and an experimental phase","yes","NAP_GER_AA_4blocks_noglides.osexp","/Users/aviadalbert/Documents/Academisch/UoC/Dissertation/Experiment/OpenSesame/NAP-FC/NAP_GER_AA_4blocks_noglides","yes","no","sans","no","20","no","black","no","Weiter","yes","768","legacy","28","9","0","/Users/aviadalbert/Documents/Academisch/UoC/Dissertation/Experiment/OpenSesame/NAP-FC/NAP_GER_AA_4blocks_noglides/subject-19.csv","xpyriment","Jazzy James","3.1.9","yes","yes","59a800d99ad5a1025d81bb03","59a801616c613b0251691de0","no","no","0","f","f","space","NA","return","return","f","1346","1960","15427","NA","17935","7072","1346","2","legacy","1024","1","44100","-16","experiment","msal","2","1","1","1","1","Englich, Spansch","19","Hebraeisch","odd","1109307","1093348","NA","NA","1111268","1109303","NA","1791","1108829","1791","1791","1027110","1045049","1185887","1184383","1187235","1066053","1052403","1093348","NA","952925","1016527","1091692","1052184","1109307","1052406","NA","1185887","1185887","NA","NA","1184379","NAP perception","27","24183","29","yes","1024"
"93.3333333333","yes","93.3333333333","828.3","828.3","white","no","xpyriment","Ich habe die obigen Informationen gelesen und verstanden.","legacy","legacy","0","uniform","1","0","0","undefined","undefined","1","j","2","1","NA","0","1","0","0","0","0","0","0","0","0","39","39","39","0","0","0","NA","0","0","2","0","0","0","2","39","39","39","39","39","Thu Oct 26 09:50:27 2017","Forced-choice identification task with a practice and an experimental phase","yes","NAP_GER_AA_4blocks_noglides.osexp","/Users/aviadalbert/Documents/Academisch/UoC/Dissertation/Experiment/OpenSesame/NAP-FC/NAP_GER_AA_4blocks_noglides","yes","no","sans","no","20","no","black","no","Weiter","yes","768","legacy","29","9","0","/Users/aviadalbert/Documents/Academisch/UoC/Dissertation/Experiment/OpenSesame/NAP-FC/NAP_GER_AA_4blocks_noglides/subject-19.csv","xpyriment","Jazzy James","3.1.9","yes","yes","59a800d99ad5a1025d81bb03","59a801616c613b0251691de0","no","no","0","j","f","space","NA","return","return","j","666","1960","15427","NA","17935","7072","666","2","legacy","1024","1","44100","-16","experiment","enval","2","1","1","1","1","Englich, Spansch","19","Hebraeisch","odd","1109307","1093348","NA","NA","1111268","1109303","NA","1791","1108829","1791","1791","1027110","1045049","1189023","1187520","1189690","1066053","1052403","1093348","NA","952925","1016527","1091692","1052184","1109307","1052406","NA","1189023","1189023","NA","NA","1187516","NAP perception","28","24849","30","yes","1024"
"93.5483870968","yes","93.5483870968","822.322580645","822.322580645","white","no","xpyriment","Ich habe die obigen Informationen gelesen und verstanden.","legacy","legacy","0","uniform","1","0","0","undefined","undefined","1","j","2","1","NA","0","1","0","0","0","0","0","0","0","0","40","40","40","0","0","0","NA","0","0","2","0","0","0","2","40","40","40","40","40","Thu Oct 26 09:50:27 2017","Forced-choice identification task with a practice and an experimental phase","yes","NAP_GER_AA_4blocks_noglides.osexp","/Users/aviadalbert/Documents/Academisch/UoC/Dissertation/Experiment/OpenSesame/NAP-FC/NAP_GER_AA_4blocks_noglides","yes","no","sans","no","20","no","black","no","Weiter","yes","768","legacy","30","9","0","/Users/aviadalbert/Documents/Academisch/UoC/Dissertation/Experiment/OpenSesame/NAP-FC/NAP_GER_AA_4blocks_noglides/subject-19.csv","xpyriment","Jazzy James","3.1.9","yes","yes","59a800d99ad5a1025d81bb03","59a801616c613b0251691de0","no","no","0","j","f","space","NA","return","return","j","643","1960","15427","NA","17935","7072","643","2","legacy","1024","1","44100","-16","experiment","ʃemal","2","1","1","1","1","Englich, Spansch","19","Hebraeisch","odd","1109307","1093348","NA","NA","1111268","1109303","NA","1791","1108829","1791","1791","1027110","1045049","1191492","1189988","1192137","1066053","1052403","1093348","NA","952925","1016527","1091692","1052184","1109307","1052406","NA","1191492","1191492","NA","NA","1189984","NAP perception","29","25492","31","yes","1024"
"90.625","yes","90.625","817.71875","817.71875","white","no","xpyriment","Ich habe die obigen Informationen gelesen und verstanden.","legacy","legacy","0","uniform","0","0","0","undefined","undefined","0","f","2","1","NA","0","1","0","0","0","0","0","0","0","0","41","41","41","0","0","0","NA","0","0","2","0","0","0","2","41","41","41","41","41","Thu Oct 26 09:50:27 2017","Forced-choice identification task with a practice and an experimental phase","yes","NAP_GER_AA_4blocks_noglides.osexp","/Users/aviadalbert/Documents/Academisch/UoC/Dissertation/Experiment/OpenSesame/NAP-FC/NAP_GER_AA_4blocks_noglides","yes","no","sans","no","20","no","black","no","Weiter","yes","768","legacy","31","9","0","/Users/aviadalbert/Documents/Academisch/UoC/Dissertation/Experiment/OpenSesame/NAP-FC/NAP_GER_AA_4blocks_noglides/subject-19.csv","xpyriment","Jazzy James","3.1.9","yes","yes","59a800d99ad5a1025d81bb03","59a801616c613b0251691de0","no","no","0","j","f","space","NA","return","return","j","675","1960","15427","NA","17935","7072","675","2","legacy","1024","1","44100","-16","experiment","lfal","2","1","1","1","1","Englich, Spansch","19","Hebraeisch","odd","1109307","1093348","NA","NA","1111268","1109303","NA","1791","1108829","1791","1791","1027110","1045049","1193908","1192401","1194584","1066053","1052403","1093348","NA","952925","1016527","1091692","1052184","1109307","1052406","NA","1193908","1193908","NA","NA","1192397","NAP perception","29","26167","32","yes","1024"
"90.9090909091","yes","90.9090909091","817.212121212","817.212121212","white","no","xpyriment","Ich habe die obigen Informationen gelesen und verstanden.","legacy","legacy","0","uniform","1","0","0","undefined","undefined","1","f","2","1","NA","0","1","0","0","0","0","0","0","0","0","42","42","42","0","0","0","NA","0","0","2","0","0","0","2","42","42","42","42","42","Thu Oct 26 09:50:27 2017","Forced-choice identification task with a practice and an experimental phase","yes","NAP_GER_AA_4blocks_noglides.osexp","/Users/aviadalbert/Documents/Academisch/UoC/Dissertation/Experiment/OpenSesame/NAP-FC/NAP_GER_AA_4blocks_noglides","yes","no","sans","no","20","no","black","no","Weiter","yes","768","legacy","32","9","0","/Users/aviadalbert/Documents/Academisch/UoC/Dissertation/Experiment/OpenSesame/NAP-FC/NAP_GER_AA_4blocks_noglides/subject-19.csv","xpyriment","Jazzy James","3.1.9","yes","yes","59a800d99ad5a1025d81bb03","59a801616c613b0251691de0","no","no","0","f","f","space","NA","return","return","f","801","1960","15427","NA","17935","7072","801","2","legacy","1024","1","44100","-16","experiment","zval","2","1","1","1","1","Englich, Spansch","19","Hebraeisch","odd","1109307","1093348","NA","NA","1111268","1109303","NA","1791","1108829","1791","1791","1027110","1045049","1196384","1194881","1197186","1066053","1052403","1093348","NA","952925","1016527","1091692","1052184","1109307","1052406","NA","1196384","1196384","NA","NA","1194877","NAP perception","30","26968","33","yes","1024"
"91.1764705882","yes","91.1764705882","814.441176471","814.441176471","white","no","xpyriment","Ich habe die obigen Informationen gelesen und verstanden.","legacy","legacy","0","uniform","1","0","0","undefined","undefined","1","j","2","1","NA","0","1","0","0","0","0","0","0","0","0","43","43","43","0","0","0","NA","0","0","2","0","0","0","2","43","43","43","43","43","Thu Oct 26 09:50:27 2017","Forced-choice identification task with a practice and an experimental phase","yes","NAP_GER_AA_4blocks_noglides.osexp","/Users/aviadalbert/Documents/Academisch/UoC/Dissertation/Experiment/OpenSesame/NAP-FC/NAP_GER_AA_4blocks_noglides","yes","no","sans","no","20","no","black","no","Weiter","yes","768","legacy","33","9","0","/Users/aviadalbert/Documents/Academisch/UoC/Dissertation/Experiment/OpenSesame/NAP-FC/NAP_GER_AA_4blocks_noglides/subject-19.csv","xpyriment","Jazzy James","3.1.9","yes","yes","59a800d99ad5a1025d81bb03","59a801616c613b0251691de0","no","no","0","j","f","space","NA","return","return","j","723","1960","15427","NA","17935","7072","723","2","legacy","1024","1","44100","-16","experiment","eʃfal","2","1","1","1","1","Englich, Spansch","19","Hebraeisch","odd","1109307","1093348","NA","NA","1111268","1109303","NA","1791","1108829","1791","1791","1027110","1045049","1198958","1197455","1199682","1066053","1052403","1093348","NA","952925","1016527","1091692","1052184","1109307","1052406","NA","1198958","1198958","NA","NA","1197451","NAP perception","31","27691","34","yes","1024"
"91.4285714286","yes","91.4285714286","810.828571429","810.828571429","white","no","xpyriment","Ich habe die obigen Informationen gelesen und verstanden.","legacy","legacy","0","uniform","1","0","0","undefined","undefined","1","j","2","1","NA","0","1","0","0","0","0","0","0","0","0","44","44","44","0","0","0","NA","0","0","2","0","0","0","2","44","44","44","44","44","Thu Oct 26 09:50:27 2017","Forced-choice identification task with a practice and an experimental phase","yes","NAP_GER_AA_4blocks_noglides.osexp","/Users/aviadalbert/Documents/Academisch/UoC/Dissertation/Experiment/OpenSesame/NAP-FC/NAP_GER_AA_4blocks_noglides","yes","no","sans","no","20","no","black","no","Weiter","yes","768","legacy","34","9","0","/Users/aviadalbert/Documents/Academisch/UoC/Dissertation/Experiment/OpenSesame/NAP-FC/NAP_GER_AA_4blocks_noglides/subject-19.csv","xpyriment","Jazzy James","3.1.9","yes","yes","59a800d99ad5a1025d81bb03","59a801616c613b0251691de0","no","no","0","j","f","space","NA","return","return","j","688","1960","15427","NA","17935","7072","688","2","legacy","1024","1","44100","-16","experiment","nemal","2","1","1","1","1","Englich, Spansch","19","Hebraeisch","odd","1109307","1093348","NA","NA","1111268","1109303","NA","1791","1108829","1791","1791","1027110","1045049","1201479","1199976","1202168","1066053","1052403","1093348","NA","952925","1016527","1091692","1052184","1109307","1052406","NA","1201479","1201479","NA","NA","1199972","NAP perception","32","28379","35","yes","1024"
"91.6666666667","yes","91.6666666667","852.833333333","852.833333333","white","no","xpyriment","Ich habe die obigen Informationen gelesen und verstanden.","legacy","legacy","0","uniform","1","0","0","undefined","undefined","1","j","2","1","NA","0","1","0","0","0","0","0","0","0","0","45","45","45","0","0","0","NA","0","0","2","0","0","0","2","45","45","45","45","45","Thu Oct 26 09:50:27 2017","Forced-choice identification task with a practice and an experimental phase","yes","NAP_GER_AA_4blocks_noglides.osexp","/Users/aviadalbert/Documents/Academisch/UoC/Dissertation/Experiment/OpenSesame/NAP-FC/NAP_GER_AA_4blocks_noglides","yes","no","sans","no","20","no","black","no","Weiter","yes","768","legacy","35","9","0","/Users/aviadalbert/Documents/Academisch/UoC/Dissertation/Experiment/OpenSesame/NAP-FC/NAP_GER_AA_4blocks_noglides/subject-19.csv","xpyriment","Jazzy James","3.1.9","yes","yes","59a800d99ad5a1025d81bb03","59a801616c613b0251691de0","no","no","0","j","f","space","NA","return","return","j","2323","1960","15427","NA","17935","7072","2323","2","legacy","1024","1","44100","-16","experiment","ʃefal","2","1","1","1","1","Englich, Spansch","19","Hebraeisch","odd","1109307","1093348","NA","NA","1111268","1109303","NA","1791","1108829","1791","1791","1027110","1045049","1203963","1202457","1206288","1066053","1052403","1093348","NA","952925","1016527","1091692","1052184","1109307","1052406","NA","1203963","1203963","NA","NA","1202453","NAP perception","33","30702","36","yes","1024"
"91.8918918919","yes","91.8918918919","850.027027027","850.027027027","white","no","xpyriment","Ich habe die obigen Informationen gelesen und verstanden.","legacy","legacy","0","uniform","1","0","0","undefined","undefined","1","j","2","1","NA","0","1","0","0","0","0","0","0","0","0","46","46","46","0","0","0","NA","0","0","2","0","0","0","2","46","46","46","46","46","Thu Oct 26 09:50:27 2017","Forced-choice identification task with a practice and an experimental phase","yes","NAP_GER_AA_4blocks_noglides.osexp","/Users/aviadalbert/Documents/Academisch/UoC/Dissertation/Experiment/OpenSesame/NAP-FC/NAP_GER_AA_4blocks_noglides","yes","no","sans","no","20","no","black","no","Weiter","yes","768","legacy","36","9","0","/Users/aviadalbert/Documents/Academisch/UoC/Dissertation/Experiment/OpenSesame/NAP-FC/NAP_GER_AA_4blocks_noglides/subject-19.csv","xpyriment","Jazzy James","3.1.9","yes","yes","59a800d99ad5a1025d81bb03","59a801616c613b0251691de0","no","no","0","j","f","space","NA","return","return","j","749","1960","15427","NA","17935","7072","749","2","legacy","1024","1","44100","-16","experiment","enpal","2","1","1","1","1","Englich, Spansch","19","Hebraeisch","odd","1109307","1093348","NA","NA","1111268","1109303","NA","1791","1108829","1791","1791","1027110","1045049","1208091","1206588","1208842","1066053","1052403","1093348","NA","952925","1016527","1091692","1052184","1109307","1052406","NA","1208091","1208091","NA","NA","1206584","NAP perception","34","31451","37","yes","1024"
"92.1052631579","yes","92.1052631579","847.473684211","847.473684211","white","no","xpyriment","Ich habe die obigen Informationen gelesen und verstanden.","legacy","legacy","0","uniform","1","0","0","undefined","undefined","1","f","2","1","NA","0","1","0","0","0","0","0","0","0","0","47","47","47","0","0","0","NA","0","0","2","0","0","0","2","47","47","47","47","47","Thu Oct 26 09:50:27 2017","Forced-choice identification task with a practice and an experimental phase","yes","NAP_GER_AA_4blocks_noglides.osexp","/Users/aviadalbert/Documents/Academisch/UoC/Dissertation/Experiment/OpenSesame/NAP-FC/NAP_GER_AA_4blocks_noglides","yes","no","sans","no","20","no","black","no","Weiter","yes","768","legacy","37","9","0","/Users/aviadalbert/Documents/Academisch/UoC/Dissertation/Experiment/OpenSesame/NAP-FC/NAP_GER_AA_4blocks_noglides/subject-19.csv","xpyriment","Jazzy James","3.1.9","yes","yes","59a800d99ad5a1025d81bb03","59a801616c613b0251691de0","no","no","0","f","f","space","NA","return","return","f","753","1960","15427","NA","17935","7072","753","2","legacy","1024","1","44100","-16","experiment","vzal","2","1","1","1","1","Englich, Spansch","19","Hebraeisch","odd","1109307","1093348","NA","NA","1111268","1109303","NA","1791","1108829","1791","1791","1027110","1045049","1210632","1209127","1211387","1066053","1052403","1093348","NA","952925","1016527","1091692","1052184","1109307","1052406","NA","1210632","1210632","NA","NA","1209123","NAP perception","35","32204","38","yes","1024"
"92.3076923077","yes","92.3076923077","846.333333333","846.333333333","white","no","xpyriment","Ich habe die obigen Informationen gelesen und verstanden.","legacy","legacy","0","uniform","1","0","0","undefined","undefined","1","j","2","1","NA","0","1","0","0","0","0","0","0","0","0","48","48","48","0","0","0","NA","0","0","2","0","0","0","2","48","48","48","48","48","Thu Oct 26 09:50:27 2017","Forced-choice identification task with a practice and an experimental phase","yes","NAP_GER_AA_4blocks_noglides.osexp","/Users/aviadalbert/Documents/Academisch/UoC/Dissertation/Experiment/OpenSesame/NAP-FC/NAP_GER_AA_4blocks_noglides","yes","no","sans","no","20","no","black","no","Weiter","yes","768","legacy","38","9","0","/Users/aviadalbert/Documents/Academisch/UoC/Dissertation/Experiment/OpenSesame/NAP-FC/NAP_GER_AA_4blocks_noglides/subject-19.csv","xpyriment","Jazzy James","3.1.9","yes","yes","59a800d99ad5a1025d81bb03","59a801616c613b0251691de0","no","no","0","j","f","space","NA","return","return","j","803","1960","15427","NA","17935","7072","803","2","legacy","1024","1","44100","-16","experiment","efnal","2","1","1","1","1","Englich, Spansch","19","Hebraeisch","odd","1109307","1093348","NA","NA","1111268","1109303","NA","1791","1108829","1791","1791","1027110","1045049","1213170","1211667","1213975","1066053","1052403","1093348","NA","952925","1016527","1091692","1052184","1109307","1052406","NA","1213170","1213170","NA","NA","1211663","NAP perception","36","33007","39","yes","1024"
"92.5","yes","92.5","840.6","840.6","white","no","xpyriment","Ich habe die obigen Informationen gelesen und verstanden.","legacy","legacy","0","uniform","1","0","0","undefined","undefined","1","f","2","1","NA","0","1","0","0","0","0","0","0","0","0","49","49","49","0","0","0","NA","0","0","2","0","0","0","2","49","49","49","49","49","Thu Oct 26 09:50:27 2017","Forced-choice identification task with a practice and an experimental phase","yes","NAP_GER_AA_4blocks_noglides.osexp","/Users/aviadalbert/Documents/Academisch/UoC/Dissertation/Experiment/OpenSesame/NAP-FC/NAP_GER_AA_4blocks_noglides","yes","no","sans","no","20","no","black","no","Weiter","yes","768","legacy","39","9","0","/Users/aviadalbert/Documents/Academisch/UoC/Dissertation/Experiment/OpenSesame/NAP-FC/NAP_GER_AA_4blocks_noglides/subject-19.csv","xpyriment","Jazzy James","3.1.9","yes","yes","59a800d99ad5a1025d81bb03","59a801616c613b0251691de0","no","no","0","f","f","space","NA","return","return","f","617","1960","15427","NA","17935","7072","617","2","legacy","1024","1","44100","-16","experiment","ʃpal","2","1","1","1","1","Englich, Spansch","19","Hebraeisch","odd","1109307","1093348","NA","NA","1111268","1109303","NA","1791","1108829","1791","1791","1027110","1045049","1215771","1214264","1216390","1066053","1052403","1093348","NA","952925","1016527","1091692","1052184","1109307","1052406","NA","1215771","1215771","NA","NA","1214259","NAP perception","37","33624","40","yes","1024"
"92.6829268293","yes","92.6829268293","845.390243902","845.390243902","white","no","xpyriment","Ich habe die obigen Informationen gelesen und verstanden.","legacy","legacy","0","uniform","1","0","0","undefined","undefined","1","f","2","1","NA","0","1","0","0","0","0","0","0","0","0","50","50","50","0","0","0","NA","0","0","2","0","0","0","2","50","50","50","50","50","Thu Oct 26 09:50:27 2017","Forced-choice identification task with a practice and an experimental phase","yes","NAP_GER_AA_4blocks_noglides.osexp","/Users/aviadalbert/Documents/Academisch/UoC/Dissertation/Experiment/OpenSesame/NAP-FC/NAP_GER_AA_4blocks_noglides","yes","no","sans","no","20","no","black","no","Weiter","yes","768","legacy","40","9","0","/Users/aviadalbert/Documents/Academisch/UoC/Dissertation/Experiment/OpenSesame/NAP-FC/NAP_GER_AA_4blocks_noglides/subject-19.csv","xpyriment","Jazzy James","3.1.9","yes","yes","59a800d99ad5a1025d81bb03","59a801616c613b0251691de0","no","no","0","f","f","space","NA","return","return","f","1037","1960","15427","NA","17935","7072","1037","2","legacy","1024","1","44100","-16","experiment","smal","2","1","1","1","1","Englich, Spansch","19","Hebraeisch","odd","1109307","1093348","NA","NA","1111268","1109303","NA","1791","1108829","1791","1791","1027110","1045049","1218177","1216674","1219216","1066053","1052403","1093348","NA","952925","1016527","1091692","1052184","1109307","1052406","NA","1218177","1218177","NA","NA","1216670","NAP perception","38","34661","41","yes","1024"
"92.8571428571","yes","92.8571428571","844.333333333","844.333333333","white","no","xpyriment","Ich habe die obigen Informationen gelesen und verstanden.","legacy","legacy","0","uniform","1","0","0","undefined","undefined","1","f","2","1","NA","0","1","0","0","0","0","0","0","0","0","51","51","51","0","0","0","NA","0","0","2","0","0","0","2","51","51","51","51","51","Thu Oct 26 09:50:27 2017","Forced-choice identification task with a practice and an experimental phase","yes","NAP_GER_AA_4blocks_noglides.osexp","/Users/aviadalbert/Documents/Academisch/UoC/Dissertation/Experiment/OpenSesame/NAP-FC/NAP_GER_AA_4blocks_noglides","yes","no","sans","no","20","no","black","no","Weiter","yes","768","legacy","41","9","0","/Users/aviadalbert/Documents/Academisch/UoC/Dissertation/Experiment/OpenSesame/NAP-FC/NAP_GER_AA_4blocks_noglides/subject-19.csv","xpyriment","Jazzy James","3.1.9","yes","yes","59a800d99ad5a1025d81bb03","59a801616c613b0251691de0","no","no","0","f","f","space","NA","return","return","f","801","1960","15427","NA","17935","7072","801","2","legacy","1024","1","44100","-16","experiment","mlal","2","1","1","1","1","Englich, Spansch","19","Hebraeisch","odd","1109307","1093348","NA","NA","1111268","1109303","NA","1791","1108829","1791","1791","1027110","1045049","1221000","1219497","1221803","1066053","1052403","1093348","NA","952925","1016527","1091692","1052184","1109307","1052406","NA","1221000","1221000","NA","NA","1219493","NAP perception","39","35462","42","yes","1024"
"90.6976744186","yes","90.6976744186","841.674418605","841.674418605","white","no","xpyriment","Ich habe die obigen Informationen gelesen und verstanden.","legacy","legacy","0","uniform","0","0","0","undefined","undefined","0","f","2","1","NA","0","1","0","0","0","0","0","0","0","0","52","52","52","0","0","0","NA","0","0","2","0","0","0","2","52","52","52","52","52","Thu Oct 26 09:50:27 2017","Forced-choice identification task with a practice and an experimental phase","yes","NAP_GER_AA_4blocks_noglides.osexp","/Users/aviadalbert/Documents/Academisch/UoC/Dissertation/Experiment/OpenSesame/NAP-FC/NAP_GER_AA_4blocks_noglides","yes","no","sans","no","20","no","black","no","Weiter","yes","768","legacy","42","9","0","/Users/aviadalbert/Documents/Academisch/UoC/Dissertation/Experiment/OpenSesame/NAP-FC/NAP_GER_AA_4blocks_noglides/subject-19.csv","xpyriment","Jazzy James","3.1.9","yes","yes","59a800d99ad5a1025d81bb03","59a801616c613b0251691de0","no","no","0","j","f","space","NA","return","return","j","730","1960","15427","NA","17935","7072","730","2","legacy","1024","1","44100","-16","experiment","mtal","2","1","1","1","1","Englich, Spansch","19","Hebraeisch","odd","1109307","1093348","NA","NA","1111268","1109303","NA","1791","1108829","1791","1791","1027110","1045049","1223585","1222079","1224316","1066053","1052403","1093348","NA","952925","1016527","1091692","1052184","1109307","1052406","NA","1223585","1223585","NA","NA","1222075","NAP perception","39","36192","43","yes","1024"
"90.9090909091","yes","90.9090909091","840.954545455","840.954545455","white","no","xpyriment","Ich habe die obigen Informationen gelesen und verstanden.","legacy","legacy","0","uniform","1","0","0","undefined","undefined","1","f","2","1","NA","0","1","0","0","0","0","0","0","0","0","53","53","53","0","0","0","NA","0","0","2","0","0","0","2","53","53","53","53","53","Thu Oct 26 09:50:27 2017","Forced-choice identification task with a practice and an experimental phase","yes","NAP_GER_AA_4blocks_noglides.osexp","/Users/aviadalbert/Documents/Academisch/UoC/Dissertation/Experiment/OpenSesame/NAP-FC/NAP_GER_AA_4blocks_noglides","yes","no","sans","no","20","no","black","no","Weiter","yes","768","legacy","43","9","0","/Users/aviadalbert/Documents/Academisch/UoC/Dissertation/Experiment/OpenSesame/NAP-FC/NAP_GER_AA_4blocks_noglides/subject-19.csv","xpyriment","Jazzy James","3.1.9","yes","yes","59a800d99ad5a1025d81bb03","59a801616c613b0251691de0","no","no","0","f","f","space","NA","return","return","f","810","1960","15427","NA","17935","7072","810","2","legacy","1024","1","44100","-16","experiment","zmal","2","1","1","1","1","Englich, Spansch","19","Hebraeisch","odd","1109307","1093348","NA","NA","1111268","1109303","NA","1791","1108829","1791","1791","1027110","1045049","1226103","1224600","1226915","1066053","1052403","1093348","NA","952925","1016527","1091692","1052184","1109307","1052406","NA","1226103","1226103","NA","NA","1224595","NAP perception","40","37002","44","yes","1024"
"91.1111111111","yes","91.1111111111","838.4","838.4","white","no","xpyriment","Ich habe die obigen Informationen gelesen und verstanden.","legacy","legacy","0","uniform","1","0","0","undefined","undefined","1","j","2","1","NA","0","1","0","0","0","0","0","0","0","0","54","54","54","0","0","0","NA","0","0","2","0","0","0","2","54","54","54","54","54","Thu Oct 26 09:50:27 2017","Forced-choice identification task with a practice and an experimental phase","yes","NAP_GER_AA_4blocks_noglides.osexp","/Users/aviadalbert/Documents/Academisch/UoC/Dissertation/Experiment/OpenSesame/NAP-FC/NAP_GER_AA_4blocks_noglides","yes","no","sans","no","20","no","black","no","Weiter","yes","768","legacy","44","9","0","/Users/aviadalbert/Documents/Academisch/UoC/Dissertation/Experiment/OpenSesame/NAP-FC/NAP_GER_AA_4blocks_noglides/subject-19.csv","xpyriment","Jazzy James","3.1.9","yes","yes","59a800d99ad5a1025d81bb03","59a801616c613b0251691de0","no","no","0","j","f","space","NA","return","return","j","726","1960","15427","NA","17935","7072","726","2","legacy","1024","1","44100","-16","experiment","mesal","2","1","1","1","1","Englich, Spansch","19","Hebraeisch","odd","1109307","1093348","NA","NA","1111268","1109303","NA","1791","1108829","1791","1791","1027110","1045049","1228704","1227197","1229432","1066053","1052403","1093348","NA","952925","1016527","1091692","1052184","1109307","1052406","NA","1228703","1228703","NA","NA","1227192","NAP perception","41","37728","45","yes","1024"
"91.3043478261","yes","91.3043478261","834.086956522","834.086956522","white","no","xpyriment","Ich habe die obigen Informationen gelesen und verstanden.","legacy","legacy","0","uniform","1","0","0","undefined","undefined","1","j","2","1","NA","0","1","0","0","0","0","0","0","0","0","55","55","55","0","0","0","NA","0","0","2","0","0","0","2","55","55","55","55","55","Thu Oct 26 09:50:27 2017","Forced-choice identification task with a practice and an experimental phase","yes","NAP_GER_AA_4blocks_noglides.osexp","/Users/aviadalbert/Documents/Academisch/UoC/Dissertation/Experiment/OpenSesame/NAP-FC/NAP_GER_AA_4blocks_noglides","yes","no","sans","no","20","no","black","no","Weiter","yes","768","legacy","45","9","0","/Users/aviadalbert/Documents/Academisch/UoC/Dissertation/Experiment/OpenSesame/NAP-FC/NAP_GER_AA_4blocks_noglides/subject-19.csv","xpyriment","Jazzy James","3.1.9","yes","yes","59a800d99ad5a1025d81bb03","59a801616c613b0251691de0","no","no","0","j","f","space","NA","return","return","j","640","1960","15427","NA","17935","7072","640","2","legacy","1024","1","44100","-16","experiment","nefal","2","1","1","1","1","Englich, Spansch","19","Hebraeisch","odd","1109307","1093348","NA","NA","1111268","1109303","NA","1791","1108829","1791","1791","1027110","1045049","1231212","1229706","1231854","1066053","1052403","1093348","NA","952925","1016527","1091692","1052184","1109307","1052406","NA","1231212","1231212","NA","NA","1229703","NAP perception","42","38368","46","yes","1024"
"89.3617021277","yes","89.3617021277","852.489361702","852.489361702","white","no","xpyriment","Ich habe die obigen Informationen gelesen und verstanden.","legacy","legacy","0","uniform","0","0","0","undefined","undefined","0","f","2","1","NA","0","1","0","0","0","0","0","0","0","0","56","56","56","0","0","0","NA","0","0","2","0","0","0","2","56","56","56","56","56","Thu Oct 26 09:50:27 2017","Forced-choice identification task with a practice and an experimental phase","yes","NAP_GER_AA_4blocks_noglides.osexp","/Users/aviadalbert/Documents/Academisch/UoC/Dissertation/Experiment/OpenSesame/NAP-FC/NAP_GER_AA_4blocks_noglides","yes","no","sans","no","20","no","black","no","Weiter","yes","768","legacy","46","9","0","/Users/aviadalbert/Documents/Academisch/UoC/Dissertation/Experiment/OpenSesame/NAP-FC/NAP_GER_AA_4blocks_noglides/subject-19.csv","xpyriment","Jazzy James","3.1.9","yes","yes","59a800d99ad5a1025d81bb03","59a801616c613b0251691de0","no","no","0","j","f","space","NA","return","return","j","1699","1960","15427","NA","17935","7072","1699","2","legacy","1024","1","44100","-16","experiment","lval","2","1","1","1","1","Englich, Spansch","19","Hebraeisch","odd","1109307","1093348","NA","NA","1111268","1109303","NA","1791","1108829","1791","1791","1027110","1045049","1233633","1232128","1235333","1066053","1052403","1093348","NA","952925","1016527","1091692","1052184","1109307","1052406","NA","1233633","1233633","NA","NA","1232124","NAP perception","42","40067","47","yes","1024"
"87.5","yes","87.5","858.916666667","858.916666667","white","no","xpyriment","Ich habe die obigen Informationen gelesen und verstanden.","legacy","legacy","0","uniform","0","0","0","undefined","undefined","0","f","2","1","NA","0","1","0","0","0","0","0","0","0","0","57","57","57","0","0","0","NA","0","0","2","0","0","0","2","57","57","57","57","57","Thu Oct 26 09:50:27 2017","Forced-choice identification task with a practice and an experimental phase","yes","NAP_GER_AA_4blocks_noglides.osexp","/Users/aviadalbert/Documents/Academisch/UoC/Dissertation/Experiment/OpenSesame/NAP-FC/NAP_GER_AA_4blocks_noglides","yes","no","sans","no","20","no","black","no","Weiter","yes","768","legacy","47","9","0","/Users/aviadalbert/Documents/Academisch/UoC/Dissertation/Experiment/OpenSesame/NAP-FC/NAP_GER_AA_4blocks_noglides/subject-19.csv","xpyriment","Jazzy James","3.1.9","yes","yes","59a800d99ad5a1025d81bb03","59a801616c613b0251691de0","no","no","0","j","f","space","NA","return","return","j","1161","1960","15427","NA","17935","7072","1161","2","legacy","1024","1","44100","-16","experiment","msal","2","1","1","1","1","Englich, Spansch","19","Hebraeisch","odd","1109307","1093348","NA","NA","1111268","1109303","NA","1791","1108829","1791","1791","1027110","1045049","1237103","1235600","1238265","1066053","1052403","1093348","NA","952925","1016527","1091692","1052184","1109307","1052406","NA","1237103","1237103","NA","NA","1235596","NAP perception","42","41228","48","yes","1024"
"87.7551020408","yes","87.7551020408","855.693877551","855.693877551","white","no","xpyriment","Ich habe die obigen Informationen gelesen und verstanden.","legacy","legacy","0","uniform","1","0","0","undefined","undefined","1","j","2","1","NA","0","1","0","0","0","0","0","0","0","0","58","58","58","0","0","0","NA","0","0","2","0","0","0","2","58","58","58","58","58","Thu Oct 26 09:50:27 2017","Forced-choice identification task with a practice and an experimental phase","yes","NAP_GER_AA_4blocks_noglides.osexp","/Users/aviadalbert/Documents/Academisch/UoC/Dissertation/Experiment/OpenSesame/NAP-FC/NAP_GER_AA_4blocks_noglides","yes","no","sans","no","20","no","black","no","Weiter","yes","768","legacy","48","9","0","/Users/aviadalbert/Documents/Academisch/UoC/Dissertation/Experiment/OpenSesame/NAP-FC/NAP_GER_AA_4blocks_noglides/subject-19.csv","xpyriment","Jazzy James","3.1.9","yes","yes","59a800d99ad5a1025d81bb03","59a801616c613b0251691de0","no","no","0","j","f","space","NA","return","return","j","701","1960","15427","NA","17935","7072","701","2","legacy","1024","1","44100","-16","experiment","eʃmal","2","1","1","1","1","Englich, Spansch","19","Hebraeisch","odd","1109307","1093348","NA","NA","1111268","1109303","NA","1791","1108829","1791","1791","1027110","1045049","1240058","1238552","1240760","1066053","1052403","1093348","NA","952925","1016527","1091692","1052184","1109307","1052406","NA","1240057","1240058","NA","NA","1238548","NAP perception","43","41929","49","yes","1024"
"88","yes","88","853.12","853.12","white","no","xpyriment","Ich habe die obigen Informationen gelesen und verstanden.","legacy","legacy","0","uniform","1","0","0","undefined","undefined","1","j","2","1","NA","0","1","0","0","0","0","0","0","0","0","59","59","59","0","0","0","NA","0","0","2","0","0","0","2","59","59","59","59","59","Thu Oct 26 09:50:27 2017","Forced-choice identification task with a practice and an experimental phase","yes","NAP_GER_AA_4blocks_noglides.osexp","/Users/aviadalbert/Documents/Academisch/UoC/Dissertation/Experiment/OpenSesame/NAP-FC/NAP_GER_AA_4blocks_noglides","yes","no","sans","no","20","no","black","no","Weiter","yes","768","legacy","49","9","0","/Users/aviadalbert/Documents/Academisch/UoC/Dissertation/Experiment/OpenSesame/NAP-FC/NAP_GER_AA_4blocks_noglides/subject-19.csv","xpyriment","Jazzy James","3.1.9","yes","yes","59a800d99ad5a1025d81bb03","59a801616c613b0251691de0","no","no","0","j","f","space","NA","return","return","j","727","1960","15427","NA","17935","7072","727","2","legacy","1024","1","44100","-16","experiment","neval","2","1","1","1","1","Englich, Spansch","19","Hebraeisch","odd","1109307","1093348","NA","NA","1111268","1109303","NA","1791","1108829","1791","1791","1027110","1045049","1242554","1241048","1243282","1066053","1052403","1093348","NA","952925","1016527","1091692","1052184","1109307","1052406","NA","1242554","1242554","NA","NA","1241044","NAP perception","44","42656","50","yes","1024"
"88.2352941176","yes","88.2352941176","856.196078431","856.196078431","white","no","xpyriment","Ich habe die obigen Informationen gelesen und verstanden.","legacy","legacy","0","uniform","1","0","0","undefined","undefined","1","f","2","1","NA","0","1","0","0","0","0","0","0","0","0","60","60","60","0","0","0","NA","0","0","2","0","0","0","2","60","60","60","60","60","Thu Oct 26 09:50:27 2017","Forced-choice identification task with a practice and an experimental phase","yes","NAP_GER_AA_4blocks_noglides.osexp","/Users/aviadalbert/Documents/Academisch/UoC/Dissertation/Experiment/OpenSesame/NAP-FC/NAP_GER_AA_4blocks_noglides","yes","no","sans","no","20","no","black","no","Weiter","yes","768","legacy","50","9","0","/Users/aviadalbert/Documents/Academisch/UoC/Dissertation/Experiment/OpenSesame/NAP-FC/NAP_GER_AA_4blocks_noglides/subject-19.csv","xpyriment","Jazzy James","3.1.9","yes","yes","59a800d99ad5a1025d81bb03","59a801616c613b0251691de0","no","no","0","f","f","space","NA","return","return","f","1010","1960","15427","NA","17935","7072","1010","2","legacy","1024","1","44100","-16","experiment","smal","2","1","1","1","1","Englich, Spansch","19","Hebraeisch","odd","1109307","1093348","NA","NA","1111268","1109303","NA","1791","1108829","1791","1791","1027110","1045049","1245065","1243561","1246076","1066053","1052403","1093348","NA","952925","1016527","1091692","1052184","1109307","1052406","NA","1245064","1245065","NA","NA","1243556","NAP perception","45","43666","51","yes","1024"
"88.4615384615","yes","88.4615384615","856.153846154","856.153846154","white","no","xpyriment","Ich habe die obigen Informationen gelesen und verstanden.","legacy","legacy","0","uniform","1","0","0","undefined","undefined","1","j","2","1","NA","0","1","0","0","0","0","0","0","0","0","61","61","61","0","0","0","NA","0","0","2","0","0","0","2","61","61","61","61","61","Thu Oct 26 09:50:27 2017","Forced-choice identification task with a practice and an experimental phase","yes","NAP_GER_AA_4blocks_noglides.osexp","/Users/aviadalbert/Documents/Academisch/UoC/Dissertation/Experiment/OpenSesame/NAP-FC/NAP_GER_AA_4blocks_noglides","yes","no","sans","no","20","no","black","no","Weiter","yes","768","legacy","51","9","0","/Users/aviadalbert/Documents/Academisch/UoC/Dissertation/Experiment/OpenSesame/NAP-FC/NAP_GER_AA_4blocks_noglides/subject-19.csv","xpyriment","Jazzy James","3.1.9","yes","yes","59a800d99ad5a1025d81bb03","59a801616c613b0251691de0","no","no","0","j","f","space","NA","return","return","j","854","1960","15427","NA","17935","7072","854","2","legacy","1024","1","44100","-16","experiment","fesal","2","1","1","1","1","Englich, Spansch","19","Hebraeisch","odd","1109307","1093348","NA","NA","1111268","1109303","NA","1791","1108829","1791","1791","1027110","1045049","1247861","1246357","1248716","1066053","1052403","1093348","NA","952925","1016527","1091692","1052184","1109307","1052406","NA","1247861","1247861","NA","NA","1246353","NAP perception","46","44520","52","yes","1024"
"88.679245283","yes","88.679245283","869.188679245","869.188679245","white","no","xpyriment","Ich habe die obigen Informationen gelesen und verstanden.","legacy","legacy","0","uniform","1","0","0","undefined","undefined","1","f","2","1","NA","0","1","0","0","0","0","0","0","0","0","62","62","62","0","0","0","NA","0","0","2","0","0","0","2","62","62","62","62","62","Thu Oct 26 09:50:27 2017","Forced-choice identification task with a practice and an experimental phase","yes","NAP_GER_AA_4blocks_noglides.osexp","/Users/aviadalbert/Documents/Academisch/UoC/Dissertation/Experiment/OpenSesame/NAP-FC/NAP_GER_AA_4blocks_noglides","yes","no","sans","no","20","no","black","no","Weiter","yes","768","legacy","52","9","0","/Users/aviadalbert/Documents/Academisch/UoC/Dissertation/Experiment/OpenSesame/NAP-FC/NAP_GER_AA_4blocks_noglides/subject-19.csv","xpyriment","Jazzy James","3.1.9","yes","yes","59a800d99ad5a1025d81bb03","59a801616c613b0251691de0","no","no","0","f","f","space","NA","return","return","f","1547","1960","15427","NA","17935","7072","1547","2","legacy","1024","1","44100","-16","experiment","fnal","2","1","1","1","1","Englich, Spansch","19","Hebraeisch","odd","1109307","1093348","NA","NA","1111268","1109303","NA","1791","1108829","1791","1791","1027110","1045049","1250508","1249002","1252057","1066053","1052403","1093348","NA","952925","1016527","1091692","1052184","1109307","1052406","NA","1250507","1250508","NA","NA","1248999","NAP perception","47","46067","53","yes","1024"
"87.037037037","yes","87.037037037","882.907407407","882.907407407","white","no","xpyriment","Ich habe die obigen Informationen gelesen und verstanden.","legacy","legacy","0","uniform","0","0","0","undefined","undefined","0","f","2","1","NA","0","1","0","0","0","0","0","0","0","0","63","63","63","0","0","0","NA","0","0","2","0","0","0","2","63","63","63","63","63","Thu Oct 26 09:50:27 2017","Forced-choice identification task with a practice and an experimental phase","yes","NAP_GER_AA_4blocks_noglides.osexp","/Users/aviadalbert/Documents/Academisch/UoC/Dissertation/Experiment/OpenSesame/NAP-FC/NAP_GER_AA_4blocks_noglides","yes","no","sans","no","20","no","black","no","Weiter","yes","768","legacy","53","9","0","/Users/aviadalbert/Documents/Academisch/UoC/Dissertation/Experiment/OpenSesame/NAP-FC/NAP_GER_AA_4blocks_noglides/subject-19.csv","xpyriment","Jazzy James","3.1.9","yes","yes","59a800d99ad5a1025d81bb03","59a801616c613b0251691de0","no","no","0","j","f","space","NA","return","return","j","1610","1960","15427","NA","17935","7072","1610","2","legacy","1024","1","44100","-16","experiment","nfal","2","1","1","1","1","Englich, Spansch","19","Hebraeisch","odd","1109307","1093348","NA","NA","1111268","1109303","NA","1791","1108829","1791","1791","1027110","1045049","1253852","1252344","1255464","1066053","1052403","1093348","NA","952925","1016527","1091692","1052184","1109307","1052406","NA","1253852","1253852","NA","NA","1252340","NAP perception","47","47677","54","yes","1024"
"87.2727272727","yes","87.2727272727","892.054545455","892.054545455","white","no","xpyriment","Ich habe die obigen Informationen gelesen und verstanden.","legacy","legacy","0","uniform","1","0","0","undefined","undefined","1","f","2","1","NA","0","1","0","0","0","0","0","0","0","0","64","64","64","0","0","0","NA","0","0","2","0","0","0","2","64","64","64","64","64","Thu Oct 26 09:50:27 2017","Forced-choice identification task with a practice and an experimental phase","yes","NAP_GER_AA_4blocks_noglides.osexp","/Users/aviadalbert/Documents/Academisch/UoC/Dissertation/Experiment/OpenSesame/NAP-FC/NAP_GER_AA_4blocks_noglides","yes","no","sans","no","20","no","black","no","Weiter","yes","768","legacy","54","9","0","/Users/aviadalbert/Documents/Academisch/UoC/Dissertation/Experiment/OpenSesame/NAP-FC/NAP_GER_AA_4blocks_noglides/subject-19.csv","xpyriment","Jazzy James","3.1.9","yes","yes","59a800d99ad5a1025d81bb03","59a801616c613b0251691de0","no","no","0","f","f","space","NA","return","return","f","1386","1960","15427","NA","17935","7072","1386","2","legacy","1024","1","44100","-16","experiment","lmal","2","1","1","1","1","Englich, Spansch","19","Hebraeisch","odd","1109307","1093348","NA","NA","1111268","1109303","NA","1791","1108829","1791","1791","1027110","1045049","1257246","1255743","1258634","1066053","1052403","1093348","NA","952925","1016527","1091692","1052184","1109307","1052406","NA","1257246","1257246","NA","NA","1255739","NAP perception","48","49063","55","yes","1024"
