"acc","accept_status","accuracy","average_response_time","avg_rt","background","bidi","canvas_backend","checkbox_status","clock_backend","color_backend","compensation","coordinates","correct","correct_block_activation","correct_block_exit","correct_instructions_1","correct_instructions_2","correct_keyboard_response","correct_response","count_block_activation","count_block_exit","count_block_info_QA","count_cont_e_block_message","count_e_block_loop","count_e_block_sequence","count_end_of_experiment","count_experiment","count_experimental_loop","count_form_consent","count_info_forms","count_instructions_1","count_instructions_2","count_keyboard_response","count_listen_message","count_logger","count_p_block_loop","count_p_block_sequence","count_p_feedback","count_pause_feedback","count_personal_details_form_1","count_personal_details_form_2","count_post_loop_blank","count_practice_loop","count_pre_e_block_message","count_pre_p_block_message","count_reset_feedback","count_stimulus_image","count_stimulus_sound","count_timeout_message","count_timeout_sound","count_trial_sequence","datetime","description","disable_garbage_collection","experiment_file","experiment_path","expyriment_opengl","font_bold","font_family","font_italic","font_size","font_underline","foreground","form_clicks","form_response","fullscreen","height","keyboard_backend","live_row","live_row_p_block_loop","live_row_practice_loop","logfile","mouse_backend","opensesame_codename","opensesame_version","osf_always_upload_data","osf_always_upload_experiment","osf_datanode_id","osf_id","practice","pygame_doublebuf","repeat_cycle","response","response_block_activation","response_block_exit","response_block_info_QA","response_instructions_1","response_instructions_2","response_keyboard_response","response_time","response_time_block_activation","response_time_block_exit","response_time_block_info_QA","response_time_instructions_1","response_time_instructions_2","response_time_keyboard_response","round_decimals","sampler_backend","sound_buf_size","sound_channels","sound_freq","sound_sample_size","start","stimulus","subject_age","subject_education","subject_gender","subject_german_native","subject_handedness","subject_language_other","subject_nr","subject_other_native_lang","subject_parity","time_block_activation","time_block_exit","time_block_info_QA","time_cont_e_block_message","time_e_block_loop","time_e_block_sequence","time_end_of_experiment","time_experiment","time_experimental_loop","time_form_consent","time_info_forms","time_instructions_1","time_instructions_2","time_keyboard_response","time_listen_message","time_logger","time_p_block_loop","time_p_block_sequence","time_p_feedback","time_pause_feedback","time_personal_details_form_1","time_personal_details_form_2","time_post_loop_blank","time_practice_loop","time_pre_e_block_message","time_pre_p_block_message","time_reset_feedback","time_stimulus_image","time_stimulus_sound","time_timeout_message","time_timeout_sound","time_trial_sequence","title","total_correct","total_response_time","total_responses","uniform_coordinates","width"
"100","yes","100","2105","2105","white","no","xpyriment","Ich habe die obigen Informationen gelesen und verstanden.","legacy","legacy","0","uniform","1","0","NA","undefined","undefined","1","f","0","0","NA","NA","NA","NA","NA","0","0","0","0","0","0","0","0","0","0","0","NA","NA","0","0","0","0","NA","0","0","0","0","0","0","0","Wed Oct  4 17:07:20 2017","Forced-choice identification task with a practice and an experimental phase","yes","NAP_GER_AA_4blocks_noglides.osexp","/Users/aviadalbert/Documents/Academisch/UoC/Dissertation/Experiment/OpenSesame/NAP-FC/NAP_GER_AA_4blocks_noglides","yes","no","sans","no","20","no","black","no","Weiter","yes","768","legacy","0","0","0","/Users/aviadalbert/Documents/Academisch/UoC/Dissertation/Experiment/OpenSesame/NAP-FC/NAP_GER_AA_4blocks_noglides/subject-5.csv","xpyriment","Jazzy James","3.1.9","yes","yes","59a800d99ad5a1025d81bb03","59a801616c613b0251691de0","yes","no","0","f","f","NA","NA","space","space","f","2105","2813","NA","NA","19235","31134","2105","2","legacy","1024","1","44100","-16","experiment","flal","4","1","0","0","1","english","5","","odd","12773128","NA","NA","NA","NA","NA","NA","12509047","NA","12509047","12509047","12722456","12741696","12777659","12776154","12779766","12775942","12773123","NA","NA","12675683","12709403","NA","12772897","NA","12773127","NA","12777659","12777659","NA","NA","12776151","NAP perception","1","2105","1","yes","1024"
"50","yes","50","2552.5","2552.5","white","no","xpyriment","Ich habe die obigen Informationen gelesen und verstanden.","legacy","legacy","0","uniform","0","0","NA","undefined","undefined","0","j","0","0","NA","NA","NA","NA","NA","0","0","0","0","0","0","1","1","1","0","0","NA","NA","0","0","0","0","NA","0","0","1","1","1","1","1","Wed Oct  4 17:07:20 2017","Forced-choice identification task with a practice and an experimental phase","yes","NAP_GER_AA_4blocks_noglides.osexp","/Users/aviadalbert/Documents/Academisch/UoC/Dissertation/Experiment/OpenSesame/NAP-FC/NAP_GER_AA_4blocks_noglides","yes","no","sans","no","20","no","black","no","Weiter","yes","768","legacy","1","1","0","/Users/aviadalbert/Documents/Academisch/UoC/Dissertation/Experiment/OpenSesame/NAP-FC/NAP_GER_AA_4blocks_noglides/subject-5.csv","xpyriment","Jazzy James","3.1.9","yes","yes","59a800d99ad5a1025d81bb03","59a801616c613b0251691de0","yes","no","0","None","f","NA","NA","space","space","None","3000","2813","NA","NA","19235","31134","3000","2","legacy","1024","1","44100","-16","experiment","lepal","4","1","0","0","1","english","5","","odd","12773128","NA","NA","NA","NA","NA","NA","12509047","NA","12509047","12509047","12722456","12741696","12781552","12780045","12785555","12775942","12773123","NA","NA","12675683","12709403","NA","12772897","NA","12773127","NA","12781552","12781552","12784555","12784552","12780041","NAP perception","1","5105","2","yes","1024"
"66.6666666667","yes","66.6666666667","2280.33333333","2280.33333333","white","no","xpyriment","Ich habe die obigen Informationen gelesen und verstanden.","legacy","legacy","0","uniform","1","0","NA","undefined","undefined","1","j","0","0","NA","NA","NA","NA","NA","0","0","0","0","0","0","2","2","2","0","0","NA","NA","0","0","0","0","NA","0","0","2","2","2","2","2","Wed Oct  4 17:07:20 2017","Forced-choice identification task with a practice and an experimental phase","yes","NAP_GER_AA_4blocks_noglides.osexp","/Users/aviadalbert/Documents/Academisch/UoC/Dissertation/Experiment/OpenSesame/NAP-FC/NAP_GER_AA_4blocks_noglides","yes","no","sans","no","20","no","black","no","Weiter","yes","768","legacy","2","2","0","/Users/aviadalbert/Documents/Academisch/UoC/Dissertation/Experiment/OpenSesame/NAP-FC/NAP_GER_AA_4blocks_noglides/subject-5.csv","xpyriment","Jazzy James","3.1.9","yes","yes","59a800d99ad5a1025d81bb03","59a801616c613b0251691de0","yes","no","0","j","f","NA","NA","space","space","j","1736","2813","NA","NA","19235","31134","1736","2","legacy","1024","1","44100","-16","experiment","emtal","4","1","0","0","1","english","5","","odd","12773128","NA","NA","NA","NA","NA","NA","12509047","NA","12509047","12509047","12722456","12741696","12787360","12785853","12789097","12775942","12773123","NA","NA","12675683","12709403","NA","12772897","NA","12773127","NA","12787359","12787359","12784555","12784552","12785849","NAP perception","2","6841","3","yes","1024"
"75","yes","75","2056.5","2056.5","white","no","xpyriment","Ich habe die obigen Informationen gelesen und verstanden.","legacy","legacy","0","uniform","1","0","NA","undefined","undefined","1","f","0","0","NA","NA","NA","NA","NA","0","0","0","0","0","0","3","3","3","0","0","NA","NA","0","0","0","0","NA","0","0","3","3","3","3","3","Wed Oct  4 17:07:20 2017","Forced-choice identification task with a practice and an experimental phase","yes","NAP_GER_AA_4blocks_noglides.osexp","/Users/aviadalbert/Documents/Academisch/UoC/Dissertation/Experiment/OpenSesame/NAP-FC/NAP_GER_AA_4blocks_noglides","yes","no","sans","no","20","no","black","no","Weiter","yes","768","legacy","3","3","0","/Users/aviadalbert/Documents/Academisch/UoC/Dissertation/Experiment/OpenSesame/NAP-FC/NAP_GER_AA_4blocks_noglides/subject-5.csv","xpyriment","Jazzy James","3.1.9","yes","yes","59a800d99ad5a1025d81bb03","59a801616c613b0251691de0","yes","no","0","f","f","NA","NA","space","space","f","1385","2813","NA","NA","19235","31134","1385","2","legacy","1024","1","44100","-16","experiment","ʃpal","4","1","0","0","1","english","5","","odd","12773128","NA","NA","NA","NA","NA","NA","12509047","NA","12509047","12509047","12722456","12741696","12790881","12789377","12792267","12775942","12773123","NA","NA","12675683","12709403","NA","12772897","NA","12773127","NA","12790880","12790881","12784555","12784552","12789373","NAP perception","3","8226","4","yes","1024"
"80","yes","80","1972.8","1972.8","white","no","xpyriment","Ich habe die obigen Informationen gelesen und verstanden.","legacy","legacy","0","uniform","1","0","NA","undefined","undefined","1","j","0","0","NA","NA","NA","NA","NA","0","0","0","0","0","0","4","4","4","0","0","NA","NA","0","0","0","0","NA","0","0","4","4","4","4","4","Wed Oct  4 17:07:20 2017","Forced-choice identification task with a practice and an experimental phase","yes","NAP_GER_AA_4blocks_noglides.osexp","/Users/aviadalbert/Documents/Academisch/UoC/Dissertation/Experiment/OpenSesame/NAP-FC/NAP_GER_AA_4blocks_noglides","yes","no","sans","no","20","no","black","no","Weiter","yes","768","legacy","4","4","0","/Users/aviadalbert/Documents/Academisch/UoC/Dissertation/Experiment/OpenSesame/NAP-FC/NAP_GER_AA_4blocks_noglides/subject-5.csv","xpyriment","Jazzy James","3.1.9","yes","yes","59a800d99ad5a1025d81bb03","59a801616c613b0251691de0","yes","no","0","j","f","NA","NA","space","space","j","1638","2813","NA","NA","19235","31134","1638","2","legacy","1024","1","44100","-16","experiment","nefal","4","1","0","0","1","english","5","","odd","12773128","NA","NA","NA","NA","NA","NA","12509047","NA","12509047","12509047","12722456","12741696","12794059","12792555","12795698","12775942","12773123","NA","NA","12675683","12709403","NA","12772897","NA","12773127","NA","12794059","12794059","12784555","12784552","12792551","NAP perception","4","9864","5","yes","1024"
"83.3333333333","yes","83.3333333333","1845.83333333","1845.83333333","white","no","xpyriment","Ich habe die obigen Informationen gelesen und verstanden.","legacy","legacy","0","uniform","1","0","NA","undefined","undefined","1","f","0","0","NA","NA","NA","NA","NA","0","0","0","0","0","0","5","5","5","0","0","NA","NA","0","0","0","0","NA","0","0","5","5","5","5","5","Wed Oct  4 17:07:20 2017","Forced-choice identification task with a practice and an experimental phase","yes","NAP_GER_AA_4blocks_noglides.osexp","/Users/aviadalbert/Documents/Academisch/UoC/Dissertation/Experiment/OpenSesame/NAP-FC/NAP_GER_AA_4blocks_noglides","yes","no","sans","no","20","no","black","no","Weiter","yes","768","legacy","5","5","0","/Users/aviadalbert/Documents/Academisch/UoC/Dissertation/Experiment/OpenSesame/NAP-FC/NAP_GER_AA_4blocks_noglides/subject-5.csv","xpyriment","Jazzy James","3.1.9","yes","yes","59a800d99ad5a1025d81bb03","59a801616c613b0251691de0","yes","no","0","f","f","NA","NA","space","space","f","1211","2813","NA","NA","19235","31134","1211","2","legacy","1024","1","44100","-16","experiment","sfal","4","1","0","0","1","english","5","","odd","12773128","NA","NA","NA","NA","NA","NA","12509047","NA","12509047","12509047","12722456","12741696","12797484","12795980","12798697","12775942","12773123","NA","NA","12675683","12709403","NA","12772897","NA","12773127","NA","12797484","12797484","12784555","12784552","12795976","NAP perception","5","11075","6","yes","1024"
"71.4285714286","yes","71.4285714286","1893.85714286","1893.85714286","white","no","xpyriment","Ich habe die obigen Informationen gelesen und verstanden.","legacy","legacy","0","uniform","0","0","NA","undefined","undefined","0","f","0","0","NA","NA","NA","NA","NA","0","0","0","0","0","0","6","6","6","0","0","NA","NA","0","0","0","0","NA","0","0","6","6","6","6","6","Wed Oct  4 17:07:20 2017","Forced-choice identification task with a practice and an experimental phase","yes","NAP_GER_AA_4blocks_noglides.osexp","/Users/aviadalbert/Documents/Academisch/UoC/Dissertation/Experiment/OpenSesame/NAP-FC/NAP_GER_AA_4blocks_noglides","yes","no","sans","no","20","no","black","no","Weiter","yes","768","legacy","6","6","0","/Users/aviadalbert/Documents/Academisch/UoC/Dissertation/Experiment/OpenSesame/NAP-FC/NAP_GER_AA_4blocks_noglides/subject-5.csv","xpyriment","Jazzy James","3.1.9","yes","yes","59a800d99ad5a1025d81bb03","59a801616c613b0251691de0","yes","no","0","j","f","NA","NA","space","space","j","2182","2813","NA","NA","19235","31134","2182","2","legacy","1024","1","44100","-16","experiment","zmal","4","1","0","0","1","english","5","","odd","12773128","NA","NA","NA","NA","NA","NA","12509047","NA","12509047","12509047","12722456","12741696","12800476","12798972","12802659","12775942","12773123","NA","NA","12675683","12709403","NA","12772897","NA","12773127","NA","12800476","12800476","12784555","12784552","12798968","NAP perception","5","13257","7","yes","1024"
"62.5","yes","62.5","1901","1901","white","no","xpyriment","Ich habe die obigen Informationen gelesen und verstanden.","legacy","legacy","0","uniform","0","0","NA","undefined","undefined","0","j","0","0","NA","NA","NA","NA","NA","0","0","0","0","0","0","7","7","7","0","0","NA","NA","0","0","0","0","NA","0","0","7","7","7","7","7","Wed Oct  4 17:07:20 2017","Forced-choice identification task with a practice and an experimental phase","yes","NAP_GER_AA_4blocks_noglides.osexp","/Users/aviadalbert/Documents/Academisch/UoC/Dissertation/Experiment/OpenSesame/NAP-FC/NAP_GER_AA_4blocks_noglides","yes","no","sans","no","20","no","black","no","Weiter","yes","768","legacy","7","7","0","/Users/aviadalbert/Documents/Academisch/UoC/Dissertation/Experiment/OpenSesame/NAP-FC/NAP_GER_AA_4blocks_noglides/subject-5.csv","xpyriment","Jazzy James","3.1.9","yes","yes","59a800d99ad5a1025d81bb03","59a801616c613b0251691de0","yes","no","0","f","f","NA","NA","space","space","f","1951","2813","NA","NA","19235","31134","1951","2","legacy","1024","1","44100","-16","experiment","mesal","4","1","0","0","1","english","5","","odd","12773128","NA","NA","NA","NA","NA","NA","12509047","NA","12509047","12509047","12722456","12741696","12804438","12802934","12806390","12775942","12773123","NA","NA","12675683","12709403","NA","12772897","NA","12773127","NA","12804438","12804438","12784555","12784552","12802930","NAP perception","5","15208","8","yes","1024"
"66.6666666667","yes","66.6666666667","1929.22222222","1929.22222222","white","no","xpyriment","Ich habe die obigen Informationen gelesen und verstanden.","legacy","legacy","0","uniform","1","0","NA","undefined","undefined","1","j","0","0","NA","NA","NA","NA","NA","0","0","0","0","0","0","8","8","8","0","0","NA","NA","0","0","0","0","NA","0","0","8","8","8","8","8","Wed Oct  4 17:07:20 2017","Forced-choice identification task with a practice and an experimental phase","yes","NAP_GER_AA_4blocks_noglides.osexp","/Users/aviadalbert/Documents/Academisch/UoC/Dissertation/Experiment/OpenSesame/NAP-FC/NAP_GER_AA_4blocks_noglides","yes","no","sans","no","20","no","black","no","Weiter","yes","768","legacy","8","8","0","/Users/aviadalbert/Documents/Academisch/UoC/Dissertation/Experiment/OpenSesame/NAP-FC/NAP_GER_AA_4blocks_noglides/subject-5.csv","xpyriment","Jazzy James","3.1.9","yes","yes","59a800d99ad5a1025d81bb03","59a801616c613b0251691de0","yes","no","0","j","f","NA","NA","space","space","j","2155","2813","NA","NA","19235","31134","2155","2","legacy","1024","1","44100","-16","experiment","enval","4","1","0","0","1","english","5","","odd","12773128","NA","NA","NA","NA","NA","NA","12509047","NA","12509047","12509047","12722456","12741696","12808181","12806678","12810337","12775942","12773123","NA","NA","12675683","12709403","NA","12772897","NA","12773127","NA","12808181","12808181","12784555","12784552","12806674","NAP perception","6","17363","9","yes","1024"
"70","yes","70","1961.3","1961.3","white","no","xpyriment","Ich habe die obigen Informationen gelesen und verstanden.","legacy","legacy","0","uniform","1","0","NA","undefined","undefined","1","f","0","0","NA","NA","NA","NA","NA","0","0","0","0","0","0","9","9","9","0","0","NA","NA","0","0","0","0","NA","0","0","9","9","9","9","9","Wed Oct  4 17:07:20 2017","Forced-choice identification task with a practice and an experimental phase","yes","NAP_GER_AA_4blocks_noglides.osexp","/Users/aviadalbert/Documents/Academisch/UoC/Dissertation/Experiment/OpenSesame/NAP-FC/NAP_GER_AA_4blocks_noglides","yes","no","sans","no","20","no","black","no","Weiter","yes","768","legacy","9","9","0","/Users/aviadalbert/Documents/Academisch/UoC/Dissertation/Experiment/OpenSesame/NAP-FC/NAP_GER_AA_4blocks_noglides/subject-5.csv","xpyriment","Jazzy James","3.1.9","yes","yes","59a800d99ad5a1025d81bb03","59a801616c613b0251691de0","yes","no","0","f","f","NA","NA","space","space","f","2250","2813","NA","NA","19235","31134","2250","2","legacy","1024","1","44100","-16","experiment","vlal","4","1","0","0","1","english","5","","odd","12773128","NA","NA","NA","NA","NA","NA","12509047","NA","12509047","12509047","12722456","12741696","12812119","12810613","12814370","12775942","12773123","NA","NA","12675683","12709403","NA","12772897","NA","12773127","NA","12812119","12812119","12784555","12784552","12810609","NAP perception","7","19613","10","yes","1024"
"100","yes","100","1929","1929","white","no","xpyriment","Ich habe die obigen Informationen gelesen und verstanden.","legacy","legacy","0","uniform","1","0","0","undefined","undefined","1","f","2","1","NA","0","1","0","0","0","0","0","0","0","0","10","10","10","0","0","0","NA","0","0","2","0","0","0","2","10","10","10","10","10","Wed Oct  4 17:07:20 2017","Forced-choice identification task with a practice and an experimental phase","yes","NAP_GER_AA_4blocks_noglides.osexp","/Users/aviadalbert/Documents/Academisch/UoC/Dissertation/Experiment/OpenSesame/NAP-FC/NAP_GER_AA_4blocks_noglides","yes","no","sans","no","20","no","black","no","Weiter","yes","768","legacy","0","9","0","/Users/aviadalbert/Documents/Academisch/UoC/Dissertation/Experiment/OpenSesame/NAP-FC/NAP_GER_AA_4blocks_noglides/subject-5.csv","xpyriment","Jazzy James","3.1.9","yes","yes","59a800d99ad5a1025d81bb03","59a801616c613b0251691de0","no","no","0","f","f","space","NA","space","space","f","1929","1547","16909","NA","19235","31134","1929","2","legacy","1024","1","44100","-16","experiment","mnal","4","1","0","0","1","english","5","","odd","12833536","12816100","NA","NA","12835084","12833532","NA","12509047","12833067","12509047","12509047","12722456","12741696","12836810","12835306","12838740","12775942","12773123","12816099","NA","12675683","12709403","12814436","12772897","12833536","12773127","NA","12836809","12836809","12784555","12784552","12835302","NAP perception","1","1929","1","yes","1024"
"50","yes","50","1807.5","1807.5","white","no","xpyriment","Ich habe die obigen Informationen gelesen und verstanden.","legacy","legacy","0","uniform","0","0","0","undefined","undefined","0","f","2","1","NA","0","1","0","0","0","0","0","0","0","0","11","11","11","0","0","0","NA","0","0","2","0","0","0","2","11","11","11","11","11","Wed Oct  4 17:07:20 2017","Forced-choice identification task with a practice and an experimental phase","yes","NAP_GER_AA_4blocks_noglides.osexp","/Users/aviadalbert/Documents/Academisch/UoC/Dissertation/Experiment/OpenSesame/NAP-FC/NAP_GER_AA_4blocks_noglides","yes","no","sans","no","20","no","black","no","Weiter","yes","768","legacy","1","9","0","/Users/aviadalbert/Documents/Academisch/UoC/Dissertation/Experiment/OpenSesame/NAP-FC/NAP_GER_AA_4blocks_noglides/subject-5.csv","xpyriment","Jazzy James","3.1.9","yes","yes","59a800d99ad5a1025d81bb03","59a801616c613b0251691de0","no","no","0","j","f","space","NA","space","space","j","1686","1547","16909","NA","19235","31134","1686","2","legacy","1024","1","44100","-16","experiment","npal","4","1","0","0","1","english","5","","odd","12833536","12816100","NA","NA","12835084","12833532","NA","12509047","12833067","12509047","12509047","12722456","12741696","12840535","12839030","12842223","12775942","12773123","12816099","NA","12675683","12709403","12814436","12772897","12833536","12773127","NA","12840535","12840535","12784555","12784552","12839026","NAP perception","1","3615","2","yes","1024"
"66.6666666667","yes","66.6666666667","2038","2038","white","no","xpyriment","Ich habe die obigen Informationen gelesen und verstanden.","legacy","legacy","0","uniform","1","0","0","undefined","undefined","1","f","2","1","NA","0","1","0","0","0","0","0","0","0","0","12","12","12","0","0","0","NA","0","0","2","0","0","0","2","12","12","12","12","12","Wed Oct  4 17:07:20 2017","Forced-choice identification task with a practice and an experimental phase","yes","NAP_GER_AA_4blocks_noglides.osexp","/Users/aviadalbert/Documents/Academisch/UoC/Dissertation/Experiment/OpenSesame/NAP-FC/NAP_GER_AA_4blocks_noglides","yes","no","sans","no","20","no","black","no","Weiter","yes","768","legacy","2","9","0","/Users/aviadalbert/Documents/Academisch/UoC/Dissertation/Experiment/OpenSesame/NAP-FC/NAP_GER_AA_4blocks_noglides/subject-5.csv","xpyriment","Jazzy James","3.1.9","yes","yes","59a800d99ad5a1025d81bb03","59a801616c613b0251691de0","no","no","0","f","f","space","NA","space","space","f","2499","1547","16909","NA","19235","31134","2499","2","legacy","1024","1","44100","-16","experiment","lpal","4","1","0","0","1","english","5","","odd","12833536","12816100","NA","NA","12835084","12833532","NA","12509047","12833067","12509047","12509047","12722456","12741696","12844024","12842521","12846524","12775942","12773123","12816099","NA","12675683","12709403","12814436","12772897","12833536","12773127","NA","12844024","12844024","12784555","12784552","12842517","NAP perception","2","6114","3","yes","1024"
"50","yes","50","2150.75","2150.75","white","no","xpyriment","Ich habe die obigen Informationen gelesen und verstanden.","legacy","legacy","0","uniform","0","0","0","undefined","undefined","0","f","2","1","NA","0","1","0","0","0","0","0","0","0","0","13","13","13","0","0","0","NA","0","0","2","0","0","0","2","13","13","13","13","13","Wed Oct  4 17:07:20 2017","Forced-choice identification task with a practice and an experimental phase","yes","NAP_GER_AA_4blocks_noglides.osexp","/Users/aviadalbert/Documents/Academisch/UoC/Dissertation/Experiment/OpenSesame/NAP-FC/NAP_GER_AA_4blocks_noglides","yes","no","sans","no","20","no","black","no","Weiter","yes","768","legacy","3","9","0","/Users/aviadalbert/Documents/Academisch/UoC/Dissertation/Experiment/OpenSesame/NAP-FC/NAP_GER_AA_4blocks_noglides/subject-5.csv","xpyriment","Jazzy James","3.1.9","yes","yes","59a800d99ad5a1025d81bb03","59a801616c613b0251691de0","no","no","0","j","f","space","NA","space","space","j","2489","1547","16909","NA","19235","31134","2489","2","legacy","1024","1","44100","-16","experiment","lkal","4","1","0","0","1","english","5","","odd","12833536","12816100","NA","NA","12835084","12833532","NA","12509047","12833067","12509047","12509047","12722456","12741696","12848314","12846807","12850804","12775942","12773123","12816099","NA","12675683","12709403","12814436","12772897","12833536","12773127","NA","12848314","12848314","12784555","12784552","12846803","NAP perception","2","8603","4","yes","1024"
"60","yes","60","2243.6","2243.6","white","no","xpyriment","Ich habe die obigen Informationen gelesen und verstanden.","legacy","legacy","0","uniform","1","0","0","undefined","undefined","1","j","2","1","NA","0","1","0","0","0","0","0","0","0","0","14","14","14","0","0","0","NA","0","0","2","0","0","0","2","14","14","14","14","14","Wed Oct  4 17:07:20 2017","Forced-choice identification task with a practice and an experimental phase","yes","NAP_GER_AA_4blocks_noglides.osexp","/Users/aviadalbert/Documents/Academisch/UoC/Dissertation/Experiment/OpenSesame/NAP-FC/NAP_GER_AA_4blocks_noglides","yes","no","sans","no","20","no","black","no","Weiter","yes","768","legacy","4","9","0","/Users/aviadalbert/Documents/Academisch/UoC/Dissertation/Experiment/OpenSesame/NAP-FC/NAP_GER_AA_4blocks_noglides/subject-5.csv","xpyriment","Jazzy James","3.1.9","yes","yes","59a800d99ad5a1025d81bb03","59a801616c613b0251691de0","no","no","0","j","f","space","NA","space","space","j","2615","1547","16909","NA","19235","31134","2615","2","legacy","1024","1","44100","-16","experiment","melal","4","1","0","0","1","english","5","","odd","12833536","12816100","NA","NA","12835084","12833532","NA","12509047","12833067","12509047","12509047","12722456","12741696","12852579","12851074","12855196","12775942","12773123","12816099","NA","12675683","12709403","12814436","12772897","12833536","12773127","NA","12852579","12852579","12784555","12784552","12851070","NAP perception","3","11218","5","yes","1024"
"66.6666666667","yes","66.6666666667","2347.16666667","2347.16666667","white","no","xpyriment","Ich habe die obigen Informationen gelesen und verstanden.","legacy","legacy","0","uniform","1","0","0","undefined","undefined","1","j","2","1","NA","0","1","0","0","0","0","0","0","0","0","15","15","15","0","0","0","NA","0","0","2","0","0","0","2","15","15","15","15","15","Wed Oct  4 17:07:20 2017","Forced-choice identification task with a practice and an experimental phase","yes","NAP_GER_AA_4blocks_noglides.osexp","/Users/aviadalbert/Documents/Academisch/UoC/Dissertation/Experiment/OpenSesame/NAP-FC/NAP_GER_AA_4blocks_noglides","yes","no","sans","no","20","no","black","no","Weiter","yes","768","legacy","5","9","0","/Users/aviadalbert/Documents/Academisch/UoC/Dissertation/Experiment/OpenSesame/NAP-FC/NAP_GER_AA_4blocks_noglides/subject-5.csv","xpyriment","Jazzy James","3.1.9","yes","yes","59a800d99ad5a1025d81bb03","59a801616c613b0251691de0","no","no","0","j","f","space","NA","space","space","j","2865","1547","16909","NA","19235","31134","2865","2","legacy","1024","1","44100","-16","experiment","espal","4","1","0","0","1","english","5","","odd","12833536","12816100","NA","NA","12835084","12833532","NA","12509047","12833067","12509047","12509047","12722456","12741696","12856990","12855487","12859856","12775942","12773123","12816099","NA","12675683","12709403","12814436","12772897","12833536","12773127","NA","12856990","12856990","12784555","12784552","12855483","NAP perception","4","14083","6","yes","1024"
"71.4285714286","yes","71.4285714286","2187.57142857","2187.57142857","white","no","xpyriment","Ich habe die obigen Informationen gelesen und verstanden.","legacy","legacy","0","uniform","1","0","0","undefined","undefined","1","f","2","1","NA","0","1","0","0","0","0","0","0","0","0","16","16","16","0","0","0","NA","0","0","2","0","0","0","2","16","16","16","16","16","Wed Oct  4 17:07:20 2017","Forced-choice identification task with a practice and an experimental phase","yes","NAP_GER_AA_4blocks_noglides.osexp","/Users/aviadalbert/Documents/Academisch/UoC/Dissertation/Experiment/OpenSesame/NAP-FC/NAP_GER_AA_4blocks_noglides","yes","no","sans","no","20","no","black","no","Weiter","yes","768","legacy","6","9","0","/Users/aviadalbert/Documents/Academisch/UoC/Dissertation/Experiment/OpenSesame/NAP-FC/NAP_GER_AA_4blocks_noglides/subject-5.csv","xpyriment","Jazzy James","3.1.9","yes","yes","59a800d99ad5a1025d81bb03","59a801616c613b0251691de0","no","no","0","f","f","space","NA","space","space","f","1230","1547","16909","NA","19235","31134","1230","2","legacy","1024","1","44100","-16","experiment","lval","4","1","0","0","1","english","5","","odd","12833536","12816100","NA","NA","12835084","12833532","NA","12509047","12833067","12509047","12509047","12722456","12741696","12861642","12860135","12862873","12775942","12773123","12816099","NA","12675683","12709403","12814436","12772897","12833536","12773127","NA","12861642","12861642","12784555","12784552","12860131","NAP perception","5","15313","7","yes","1024"
"75","yes","75","2145.875","2145.875","white","no","xpyriment","Ich habe die obigen Informationen gelesen und verstanden.","legacy","legacy","0","uniform","1","0","0","undefined","undefined","1","f","2","1","NA","0","1","0","0","0","0","0","0","0","0","17","17","17","0","0","0","NA","0","0","2","0","0","0","2","17","17","17","17","17","Wed Oct  4 17:07:20 2017","Forced-choice identification task with a practice and an experimental phase","yes","NAP_GER_AA_4blocks_noglides.osexp","/Users/aviadalbert/Documents/Academisch/UoC/Dissertation/Experiment/OpenSesame/NAP-FC/NAP_GER_AA_4blocks_noglides","yes","no","sans","no","20","no","black","no","Weiter","yes","768","legacy","7","9","0","/Users/aviadalbert/Documents/Academisch/UoC/Dissertation/Experiment/OpenSesame/NAP-FC/NAP_GER_AA_4blocks_noglides/subject-5.csv","xpyriment","Jazzy James","3.1.9","yes","yes","59a800d99ad5a1025d81bb03","59a801616c613b0251691de0","no","no","0","f","f","space","NA","space","space","f","1854","1547","16909","NA","19235","31134","1854","2","legacy","1024","1","44100","-16","experiment","nmal","4","1","0","0","1","english","5","","odd","12833536","12816100","NA","NA","12835084","12833532","NA","12509047","12833067","12509047","12509047","12722456","12741696","12864662","12863156","12866517","12775942","12773123","12816099","NA","12675683","12709403","12814436","12772897","12833536","12773127","NA","12864662","12864662","12784555","12784552","12863152","NAP perception","6","17167","8","yes","1024"
"77.7777777778","yes","77.7777777778","2187.88888889","2187.88888889","white","no","xpyriment","Ich habe die obigen Informationen gelesen und verstanden.","legacy","legacy","0","uniform","1","0","0","undefined","undefined","1","f","2","1","NA","0","1","0","0","0","0","0","0","0","0","18","18","18","0","0","0","NA","0","0","2","0","0","0","2","18","18","18","18","18","Wed Oct  4 17:07:20 2017","Forced-choice identification task with a practice and an experimental phase","yes","NAP_GER_AA_4blocks_noglides.osexp","/Users/aviadalbert/Documents/Academisch/UoC/Dissertation/Experiment/OpenSesame/NAP-FC/NAP_GER_AA_4blocks_noglides","yes","no","sans","no","20","no","black","no","Weiter","yes","768","legacy","8","9","0","/Users/aviadalbert/Documents/Academisch/UoC/Dissertation/Experiment/OpenSesame/NAP-FC/NAP_GER_AA_4blocks_noglides/subject-5.csv","xpyriment","Jazzy James","3.1.9","yes","yes","59a800d99ad5a1025d81bb03","59a801616c613b0251691de0","no","no","0","f","f","space","NA","space","space","f","2524","1547","16909","NA","19235","31134","2524","2","legacy","1024","1","44100","-16","experiment","sfal","4","1","0","0","1","english","5","","odd","12833536","12816100","NA","NA","12835084","12833532","NA","12509047","12833067","12509047","12509047","12722456","12741696","12868299","12866795","12870824","12775942","12773123","12816099","NA","12675683","12709403","12814436","12772897","12833536","12773127","NA","12868298","12868298","12784555","12784552","12866791","NAP perception","7","19691","9","yes","1024"
"80","yes","80","2105.2","2105.2","white","no","xpyriment","Ich habe die obigen Informationen gelesen und verstanden.","legacy","legacy","0","uniform","1","0","0","undefined","undefined","1","j","2","1","NA","0","1","0","0","0","0","0","0","0","0","19","19","19","0","0","0","NA","0","0","2","0","0","0","2","19","19","19","19","19","Wed Oct  4 17:07:20 2017","Forced-choice identification task with a practice and an experimental phase","yes","NAP_GER_AA_4blocks_noglides.osexp","/Users/aviadalbert/Documents/Academisch/UoC/Dissertation/Experiment/OpenSesame/NAP-FC/NAP_GER_AA_4blocks_noglides","yes","no","sans","no","20","no","black","no","Weiter","yes","768","legacy","9","9","0","/Users/aviadalbert/Documents/Academisch/UoC/Dissertation/Experiment/OpenSesame/NAP-FC/NAP_GER_AA_4blocks_noglides/subject-5.csv","xpyriment","Jazzy James","3.1.9","yes","yes","59a800d99ad5a1025d81bb03","59a801616c613b0251691de0","no","no","0","j","f","space","NA","space","space","j","1361","1547","16909","NA","19235","31134","1361","2","legacy","1024","1","44100","-16","experiment","efnal","4","1","0","0","1","english","5","","odd","12833536","12816100","NA","NA","12835084","12833532","NA","12509047","12833067","12509047","12509047","12722456","12741696","12872595","12871092","12873958","12775942","12773123","12816099","NA","12675683","12709403","12814436","12772897","12833536","12773127","NA","12872595","12872595","12784555","12784552","12871088","NAP perception","8","21052","10","yes","1024"
"81.8181818182","yes","81.8181818182","2062.81818182","2062.81818182","white","no","xpyriment","Ich habe die obigen Informationen gelesen und verstanden.","legacy","legacy","0","uniform","1","0","0","undefined","undefined","1","f","2","1","NA","0","1","0","0","0","0","0","0","0","0","20","20","20","0","0","0","NA","0","0","2","0","0","0","2","20","20","20","20","20","Wed Oct  4 17:07:20 2017","Forced-choice identification task with a practice and an experimental phase","yes","NAP_GER_AA_4blocks_noglides.osexp","/Users/aviadalbert/Documents/Academisch/UoC/Dissertation/Experiment/OpenSesame/NAP-FC/NAP_GER_AA_4blocks_noglides","yes","no","sans","no","20","no","black","no","Weiter","yes","768","legacy","10","9","0","/Users/aviadalbert/Documents/Academisch/UoC/Dissertation/Experiment/OpenSesame/NAP-FC/NAP_GER_AA_4blocks_noglides/subject-5.csv","xpyriment","Jazzy James","3.1.9","yes","yes","59a800d99ad5a1025d81bb03","59a801616c613b0251691de0","no","no","0","f","f","space","NA","space","space","f","1639","1547","16909","NA","19235","31134","1639","2","legacy","1024","1","44100","-16","experiment","spal","4","1","0","0","1","english","5","","odd","12833536","12816100","NA","NA","12835084","12833532","NA","12509047","12833067","12509047","12509047","12722456","12741696","12875738","12874232","12877379","12775942","12773123","12816099","NA","12675683","12709403","12814436","12772897","12833536","12773127","NA","12875737","12875738","12784555","12784552","12874228","NAP perception","9","22691","11","yes","1024"
"75","yes","75","2053.58333333","2053.58333333","white","no","xpyriment","Ich habe die obigen Informationen gelesen und verstanden.","legacy","legacy","0","uniform","0","0","0","undefined","undefined","0","j","2","1","NA","0","1","0","0","0","0","0","0","0","0","21","21","21","0","0","0","NA","0","0","2","0","0","0","2","21","21","21","21","21","Wed Oct  4 17:07:20 2017","Forced-choice identification task with a practice and an experimental phase","yes","NAP_GER_AA_4blocks_noglides.osexp","/Users/aviadalbert/Documents/Academisch/UoC/Dissertation/Experiment/OpenSesame/NAP-FC/NAP_GER_AA_4blocks_noglides","yes","no","sans","no","20","no","black","no","Weiter","yes","768","legacy","11","9","0","/Users/aviadalbert/Documents/Academisch/UoC/Dissertation/Experiment/OpenSesame/NAP-FC/NAP_GER_AA_4blocks_noglides/subject-5.csv","xpyriment","Jazzy James","3.1.9","yes","yes","59a800d99ad5a1025d81bb03","59a801616c613b0251691de0","no","no","0","f","f","space","NA","space","space","f","1952","1547","16909","NA","19235","31134","1952","2","legacy","1024","1","44100","-16","experiment","mezal","4","1","0","0","1","english","5","","odd","12833536","12816100","NA","NA","12835084","12833532","NA","12509047","12833067","12509047","12509047","12722456","12741696","12879170","12877666","12881124","12775942","12773123","12816099","NA","12675683","12709403","12814436","12772897","12833536","12773127","NA","12879170","12879170","12784555","12784552","12877662","NAP perception","9","24643","12","yes","1024"
"69.2307692308","yes","69.2307692308","2063.92307692","2063.92307692","white","no","xpyriment","Ich habe die obigen Informationen gelesen und verstanden.","legacy","legacy","0","uniform","0","0","0","undefined","undefined","0","f","2","1","NA","0","1","0","0","0","0","0","0","0","0","22","22","22","0","0","0","NA","0","0","2","0","0","0","2","22","22","22","22","22","Wed Oct  4 17:07:20 2017","Forced-choice identification task with a practice and an experimental phase","yes","NAP_GER_AA_4blocks_noglides.osexp","/Users/aviadalbert/Documents/Academisch/UoC/Dissertation/Experiment/OpenSesame/NAP-FC/NAP_GER_AA_4blocks_noglides","yes","no","sans","no","20","no","black","no","Weiter","yes","768","legacy","12","9","0","/Users/aviadalbert/Documents/Academisch/UoC/Dissertation/Experiment/OpenSesame/NAP-FC/NAP_GER_AA_4blocks_noglides/subject-5.csv","xpyriment","Jazzy James","3.1.9","yes","yes","59a800d99ad5a1025d81bb03","59a801616c613b0251691de0","no","no","0","j","f","space","NA","space","space","j","2188","1547","16909","NA","19235","31134","2188","2","legacy","1024","1","44100","-16","experiment","msal","4","1","0","0","1","english","5","","odd","12833536","12816100","NA","NA","12835084","12833532","NA","12509047","12833067","12509047","12509047","12722456","12741696","12882913","12881406","12885103","12775942","12773123","12816099","NA","12675683","12709403","12814436","12772897","12833536","12773127","NA","12882913","12882913","12784555","12784552","12881402","NAP perception","9","26831","13","yes","1024"
"71.4285714286","yes","71.4285714286","2036.78571429","2036.78571429","white","no","xpyriment","Ich habe die obigen Informationen gelesen und verstanden.","legacy","legacy","0","uniform","1","0","0","undefined","undefined","1","j","2","1","NA","0","1","0","0","0","0","0","0","0","0","23","23","23","0","0","0","NA","0","0","2","0","0","0","2","23","23","23","23","23","Wed Oct  4 17:07:20 2017","Forced-choice identification task with a practice and an experimental phase","yes","NAP_GER_AA_4blocks_noglides.osexp","/Users/aviadalbert/Documents/Academisch/UoC/Dissertation/Experiment/OpenSesame/NAP-FC/NAP_GER_AA_4blocks_noglides","yes","no","sans","no","20","no","black","no","Weiter","yes","768","legacy","13","9","0","/Users/aviadalbert/Documents/Academisch/UoC/Dissertation/Experiment/OpenSesame/NAP-FC/NAP_GER_AA_4blocks_noglides/subject-5.csv","xpyriment","Jazzy James","3.1.9","yes","yes","59a800d99ad5a1025d81bb03","59a801616c613b0251691de0","no","no","0","j","f","space","NA","space","space","j","1684","1547","16909","NA","19235","31134","1684","2","legacy","1024","1","44100","-16","experiment","velal","4","1","0","0","1","english","5","","odd","12833536","12816100","NA","NA","12835084","12833532","NA","12509047","12833067","12509047","12509047","12722456","12741696","12886882","12885376","12888568","12775942","12773123","12816099","NA","12675683","12709403","12814436","12772897","12833536","12773127","NA","12886882","12886882","12784555","12784552","12885372","NAP perception","10","28515","14","yes","1024"
"66.6666666667","yes","66.6666666667","2101","2101","white","no","xpyriment","Ich habe die obigen Informationen gelesen und verstanden.","legacy","legacy","0","uniform","0","0","0","undefined","undefined","0","j","2","1","NA","0","1","0","0","0","0","0","0","0","0","24","24","24","0","0","0","NA","0","0","2","0","0","0","2","24","24","24","24","24","Wed Oct  4 17:07:20 2017","Forced-choice identification task with a practice and an experimental phase","yes","NAP_GER_AA_4blocks_noglides.osexp","/Users/aviadalbert/Documents/Academisch/UoC/Dissertation/Experiment/OpenSesame/NAP-FC/NAP_GER_AA_4blocks_noglides","yes","no","sans","no","20","no","black","no","Weiter","yes","768","legacy","14","9","0","/Users/aviadalbert/Documents/Academisch/UoC/Dissertation/Experiment/OpenSesame/NAP-FC/NAP_GER_AA_4blocks_noglides/subject-5.csv","xpyriment","Jazzy James","3.1.9","yes","yes","59a800d99ad5a1025d81bb03","59a801616c613b0251691de0","no","no","0","None","f","space","NA","space","space","None","3000","1547","16909","NA","19235","31134","3000","2","legacy","1024","1","44100","-16","experiment","nefal","4","1","0","0","1","english","5","","odd","12833536","12816100","NA","NA","12835084","12833532","NA","12509047","12833067","12509047","12509047","12722456","12741696","12890366","12888862","12894370","12775942","12773123","12816099","NA","12675683","12709403","12814436","12772897","12833536","12773127","NA","12890366","12890366","12893370","12893366","12888858","NAP perception","10","31515","15","yes","1024"
"68.75","yes","68.75","2073.25","2073.25","white","no","xpyriment","Ich habe die obigen Informationen gelesen und verstanden.","legacy","legacy","0","uniform","1","0","0","undefined","undefined","1","j","2","1","NA","0","1","0","0","0","0","0","0","0","0","25","25","25","0","0","0","NA","0","0","2","0","0","0","2","25","25","25","25","25","Wed Oct  4 17:07:20 2017","Forced-choice identification task with a practice and an experimental phase","yes","NAP_GER_AA_4blocks_noglides.osexp","/Users/aviadalbert/Documents/Academisch/UoC/Dissertation/Experiment/OpenSesame/NAP-FC/NAP_GER_AA_4blocks_noglides","yes","no","sans","no","20","no","black","no","Weiter","yes","768","legacy","15","9","0","/Users/aviadalbert/Documents/Academisch/UoC/Dissertation/Experiment/OpenSesame/NAP-FC/NAP_GER_AA_4blocks_noglides/subject-5.csv","xpyriment","Jazzy James","3.1.9","yes","yes","59a800d99ad5a1025d81bb03","59a801616c613b0251691de0","no","no","0","j","f","space","NA","space","space","j","1657","1547","16909","NA","19235","31134","1657","2","legacy","1024","1","44100","-16","experiment","emnal","4","1","0","0","1","english","5","","odd","12833536","12816100","NA","NA","12835084","12833532","NA","12509047","12833067","12509047","12509047","12722456","12741696","12896171","12894665","12897829","12775942","12773123","12816099","NA","12675683","12709403","12814436","12772897","12833536","12773127","NA","12896171","12896171","12893370","12893366","12894661","NAP perception","11","33172","16","yes","1024"
"70.5882352941","yes","70.5882352941","2057.82352941","2057.82352941","white","no","xpyriment","Ich habe die obigen Informationen gelesen und verstanden.","legacy","legacy","0","uniform","1","0","0","undefined","undefined","1","f","2","1","NA","0","1","0","0","0","0","0","0","0","0","26","26","26","0","0","0","NA","0","0","2","0","0","0","2","26","26","26","26","26","Wed Oct  4 17:07:20 2017","Forced-choice identification task with a practice and an experimental phase","yes","NAP_GER_AA_4blocks_noglides.osexp","/Users/aviadalbert/Documents/Academisch/UoC/Dissertation/Experiment/OpenSesame/NAP-FC/NAP_GER_AA_4blocks_noglides","yes","no","sans","no","20","no","black","no","Weiter","yes","768","legacy","16","9","0","/Users/aviadalbert/Documents/Academisch/UoC/Dissertation/Experiment/OpenSesame/NAP-FC/NAP_GER_AA_4blocks_noglides/subject-5.csv","xpyriment","Jazzy James","3.1.9","yes","yes","59a800d99ad5a1025d81bb03","59a801616c613b0251691de0","no","no","0","f","f","space","NA","space","space","f","1811","1547","16909","NA","19235","31134","1811","2","legacy","1024","1","44100","-16","experiment","vzal","4","1","0","0","1","english","5","","odd","12833536","12816100","NA","NA","12835084","12833532","NA","12509047","12833067","12509047","12509047","12722456","12741696","12899626","12898122","12901438","12775942","12773123","12816099","NA","12675683","12709403","12814436","12772897","12833536","12773127","NA","12899626","12899626","12893370","12893366","12898118","NAP perception","12","34983","17","yes","1024"
"66.6666666667","yes","66.6666666667","2066.38888889","2066.38888889","white","no","xpyriment","Ich habe die obigen Informationen gelesen und verstanden.","legacy","legacy","0","uniform","0","0","0","undefined","undefined","0","f","2","1","NA","0","1","0","0","0","0","0","0","0","0","27","27","27","0","0","0","NA","0","0","2","0","0","0","2","27","27","27","27","27","Wed Oct  4 17:07:20 2017","Forced-choice identification task with a practice and an experimental phase","yes","NAP_GER_AA_4blocks_noglides.osexp","/Users/aviadalbert/Documents/Academisch/UoC/Dissertation/Experiment/OpenSesame/NAP-FC/NAP_GER_AA_4blocks_noglides","yes","no","sans","no","20","no","black","no","Weiter","yes","768","legacy","17","9","0","/Users/aviadalbert/Documents/Academisch/UoC/Dissertation/Experiment/OpenSesame/NAP-FC/NAP_GER_AA_4blocks_noglides/subject-5.csv","xpyriment","Jazzy James","3.1.9","yes","yes","59a800d99ad5a1025d81bb03","59a801616c613b0251691de0","no","no","0","j","f","space","NA","space","space","j","2212","1547","16909","NA","19235","31134","2212","2","legacy","1024","1","44100","-16","experiment","mlal","4","1","0","0","1","english","5","","odd","12833536","12816100","NA","NA","12835084","12833532","NA","12509047","12833067","12509047","12509047","12722456","12741696","12903219","12901714","12905432","12775942","12773123","12816099","NA","12675683","12709403","12814436","12772897","12833536","12773127","NA","12903219","12903219","12893370","12893366","12901711","NAP perception","12","37195","18","yes","1024"
"68.4210526316","yes","68.4210526316","2031.36842105","2031.36842105","white","no","xpyriment","Ich habe die obigen Informationen gelesen und verstanden.","legacy","legacy","0","uniform","1","0","0","undefined","undefined","1","j","2","1","NA","0","1","0","0","0","0","0","0","0","0","28","28","28","0","0","0","NA","0","0","2","0","0","0","2","28","28","28","28","28","Wed Oct  4 17:07:20 2017","Forced-choice identification task with a practice and an experimental phase","yes","NAP_GER_AA_4blocks_noglides.osexp","/Users/aviadalbert/Documents/Academisch/UoC/Dissertation/Experiment/OpenSesame/NAP-FC/NAP_GER_AA_4blocks_noglides","yes","no","sans","no","20","no","black","no","Weiter","yes","768","legacy","18","9","0","/Users/aviadalbert/Documents/Academisch/UoC/Dissertation/Experiment/OpenSesame/NAP-FC/NAP_GER_AA_4blocks_noglides/subject-5.csv","xpyriment","Jazzy James","3.1.9","yes","yes","59a800d99ad5a1025d81bb03","59a801616c613b0251691de0","no","no","0","j","f","space","NA","space","space","j","1401","1547","16909","NA","19235","31134","1401","2","legacy","1024","1","44100","-16","experiment","elfal","4","1","0","0","1","english","5","","odd","12833536","12816100","NA","NA","12835084","12833532","NA","12509047","12833067","12509047","12509047","12722456","12741696","12907228","12905725","12908630","12775942","12773123","12816099","NA","12675683","12709403","12814436","12772897","12833536","12773127","NA","12907228","12907228","12893370","12893366","12905721","NAP perception","13","38596","19","yes","1024"
"70","yes","70","2050.2","2050.2","white","no","xpyriment","Ich habe die obigen Informationen gelesen und verstanden.","legacy","legacy","0","uniform","1","0","0","undefined","undefined","1","j","2","1","NA","0","1","0","0","0","0","0","0","0","0","29","29","29","0","0","0","NA","0","0","2","0","0","0","2","29","29","29","29","29","Wed Oct  4 17:07:20 2017","Forced-choice identification task with a practice and an experimental phase","yes","NAP_GER_AA_4blocks_noglides.osexp","/Users/aviadalbert/Documents/Academisch/UoC/Dissertation/Experiment/OpenSesame/NAP-FC/NAP_GER_AA_4blocks_noglides","yes","no","sans","no","20","no","black","no","Weiter","yes","768","legacy","19","9","0","/Users/aviadalbert/Documents/Academisch/UoC/Dissertation/Experiment/OpenSesame/NAP-FC/NAP_GER_AA_4blocks_noglides/subject-5.csv","xpyriment","Jazzy James","3.1.9","yes","yes","59a800d99ad5a1025d81bb03","59a801616c613b0251691de0","no","no","0","j","f","space","NA","space","space","j","2408","1547","16909","NA","19235","31134","2408","2","legacy","1024","1","44100","-16","experiment","vezal","4","1","0","0","1","english","5","","odd","12833536","12816100","NA","NA","12835084","12833532","NA","12509047","12833067","12509047","12509047","12722456","12741696","12910414","12908910","12912823","12775942","12773123","12816099","NA","12675683","12709403","12814436","12772897","12833536","12773127","NA","12910414","12910414","12893370","12893366","12908906","NAP perception","14","41004","20","yes","1024"
"71.4285714286","yes","71.4285714286","2003.23809524","2003.23809524","white","no","xpyriment","Ich habe die obigen Informationen gelesen und verstanden.","legacy","legacy","0","uniform","1","0","0","undefined","undefined","1","f","2","1","NA","0","1","0","0","0","0","0","0","0","0","30","30","30","0","0","0","NA","0","0","2","0","0","0","2","30","30","30","30","30","Wed Oct  4 17:07:20 2017","Forced-choice identification task with a practice and an experimental phase","yes","NAP_GER_AA_4blocks_noglides.osexp","/Users/aviadalbert/Documents/Academisch/UoC/Dissertation/Experiment/OpenSesame/NAP-FC/NAP_GER_AA_4blocks_noglides","yes","no","sans","no","20","no","black","no","Weiter","yes","768","legacy","20","9","0","/Users/aviadalbert/Documents/Academisch/UoC/Dissertation/Experiment/OpenSesame/NAP-FC/NAP_GER_AA_4blocks_noglides/subject-5.csv","xpyriment","Jazzy James","3.1.9","yes","yes","59a800d99ad5a1025d81bb03","59a801616c613b0251691de0","no","no","0","f","f","space","NA","space","space","f","1064","1547","16909","NA","19235","31134","1064","2","legacy","1024","1","44100","-16","experiment","sfal","4","1","0","0","1","english","5","","odd","12833536","12816100","NA","NA","12835084","12833532","NA","12509047","12833067","12509047","12509047","12722456","12741696","12914598","12913094","12915663","12775942","12773123","12816099","NA","12675683","12709403","12814436","12772897","12833536","12773127","NA","12914598","12914598","12893370","12893366","12913090","NAP perception","15","42068","21","yes","1024"
"72.7272727273","yes","72.7272727273","1956.86363636","1956.86363636","white","no","xpyriment","Ich habe die obigen Informationen gelesen und verstanden.","legacy","legacy","0","uniform","1","0","0","undefined","undefined","1","j","2","1","NA","0","1","0","0","0","0","0","0","0","0","31","31","31","0","0","0","NA","0","0","2","0","0","0","2","31","31","31","31","31","Wed Oct  4 17:07:20 2017","Forced-choice identification task with a practice and an experimental phase","yes","NAP_GER_AA_4blocks_noglides.osexp","/Users/aviadalbert/Documents/Academisch/UoC/Dissertation/Experiment/OpenSesame/NAP-FC/NAP_GER_AA_4blocks_noglides","yes","no","sans","no","20","no","black","no","Weiter","yes","768","legacy","21","9","0","/Users/aviadalbert/Documents/Academisch/UoC/Dissertation/Experiment/OpenSesame/NAP-FC/NAP_GER_AA_4blocks_noglides/subject-5.csv","xpyriment","Jazzy James","3.1.9","yes","yes","59a800d99ad5a1025d81bb03","59a801616c613b0251691de0","no","no","0","j","f","space","NA","space","space","j","983","1547","16909","NA","19235","31134","983","2","legacy","1024","1","44100","-16","experiment","lemal","4","1","0","0","1","english","5","","odd","12833536","12816100","NA","NA","12835084","12833532","NA","12509047","12833067","12509047","12509047","12722456","12741696","12917436","12915932","12918420","12775942","12773123","12816099","NA","12675683","12709403","12814436","12772897","12833536","12773127","NA","12917436","12917436","12893370","12893366","12915928","NAP perception","16","43051","22","yes","1024"
"73.9130434783","yes","73.9130434783","1944.2173913","1944.2173913","white","no","xpyriment","Ich habe die obigen Informationen gelesen und verstanden.","legacy","legacy","0","uniform","1","0","0","undefined","undefined","1","f","2","1","NA","0","1","0","0","0","0","0","0","0","0","32","32","32","0","0","0","NA","0","0","2","0","0","0","2","32","32","32","32","32","Wed Oct  4 17:07:20 2017","Forced-choice identification task with a practice and an experimental phase","yes","NAP_GER_AA_4blocks_noglides.osexp","/Users/aviadalbert/Documents/Academisch/UoC/Dissertation/Experiment/OpenSesame/NAP-FC/NAP_GER_AA_4blocks_noglides","yes","no","sans","no","20","no","black","no","Weiter","yes","768","legacy","22","9","0","/Users/aviadalbert/Documents/Academisch/UoC/Dissertation/Experiment/OpenSesame/NAP-FC/NAP_GER_AA_4blocks_noglides/subject-5.csv","xpyriment","Jazzy James","3.1.9","yes","yes","59a800d99ad5a1025d81bb03","59a801616c613b0251691de0","no","no","0","f","f","space","NA","space","space","f","1666","1547","16909","NA","19235","31134","1666","2","legacy","1024","1","44100","-16","experiment","zval","4","1","0","0","1","english","5","","odd","12833536","12816100","NA","NA","12835084","12833532","NA","12509047","12833067","12509047","12509047","12722456","12741696","12920206","12918703","12921874","12775942","12773123","12816099","NA","12675683","12709403","12814436","12772897","12833536","12773127","NA","12920206","12920206","12893370","12893366","12918699","NAP perception","17","44717","23","yes","1024"
"75","yes","75","1937.125","1937.125","white","no","xpyriment","Ich habe die obigen Informationen gelesen und verstanden.","legacy","legacy","0","uniform","1","0","0","undefined","undefined","1","f","2","1","NA","0","1","0","0","0","0","0","0","0","0","33","33","33","0","0","0","NA","0","0","2","0","0","0","2","33","33","33","33","33","Wed Oct  4 17:07:20 2017","Forced-choice identification task with a practice and an experimental phase","yes","NAP_GER_AA_4blocks_noglides.osexp","/Users/aviadalbert/Documents/Academisch/UoC/Dissertation/Experiment/OpenSesame/NAP-FC/NAP_GER_AA_4blocks_noglides","yes","no","sans","no","20","no","black","no","Weiter","yes","768","legacy","23","9","0","/Users/aviadalbert/Documents/Academisch/UoC/Dissertation/Experiment/OpenSesame/NAP-FC/NAP_GER_AA_4blocks_noglides/subject-5.csv","xpyriment","Jazzy James","3.1.9","yes","yes","59a800d99ad5a1025d81bb03","59a801616c613b0251691de0","no","no","0","f","f","space","NA","space","space","f","1774","1547","16909","NA","19235","31134","1774","2","legacy","1024","1","44100","-16","experiment","vnal","4","1","0","0","1","english","5","","odd","12833536","12816100","NA","NA","12835084","12833532","NA","12509047","12833067","12509047","12509047","12722456","12741696","12923654","12922147","12925430","12775942","12773123","12816099","NA","12675683","12709403","12814436","12772897","12833536","12773127","NA","12923654","12923654","12893370","12893366","12922143","NAP perception","18","46491","24","yes","1024"
"76","yes","76","1889.84","1889.84","white","no","xpyriment","Ich habe die obigen Informationen gelesen und verstanden.","legacy","legacy","0","uniform","1","0","0","undefined","undefined","1","j","2","1","NA","0","1","0","0","0","0","0","0","0","0","34","34","34","0","0","0","NA","0","0","2","0","0","0","2","34","34","34","34","34","Wed Oct  4 17:07:20 2017","Forced-choice identification task with a practice and an experimental phase","yes","NAP_GER_AA_4blocks_noglides.osexp","/Users/aviadalbert/Documents/Academisch/UoC/Dissertation/Experiment/OpenSesame/NAP-FC/NAP_GER_AA_4blocks_noglides","yes","no","sans","no","20","no","black","no","Weiter","yes","768","legacy","24","9","0","/Users/aviadalbert/Documents/Academisch/UoC/Dissertation/Experiment/OpenSesame/NAP-FC/NAP_GER_AA_4blocks_noglides/subject-5.csv","xpyriment","Jazzy James","3.1.9","yes","yes","59a800d99ad5a1025d81bb03","59a801616c613b0251691de0","no","no","0","j","f","space","NA","space","space","j","755","1547","16909","NA","19235","31134","755","2","legacy","1024","1","44100","-16","experiment","emzal","4","1","0","0","1","english","5","","odd","12833536","12816100","NA","NA","12835084","12833532","NA","12509047","12833067","12509047","12509047","12722456","12741696","12927217","12925711","12927974","12775942","12773123","12816099","NA","12675683","12709403","12814436","12772897","12833536","12773127","NA","12927216","12927217","12893370","12893366","12925707","NAP perception","19","47246","25","yes","1024"
"76.9230769231","yes","76.9230769231","1882.73076923","1882.73076923","white","no","xpyriment","Ich habe die obigen Informationen gelesen und verstanden.","legacy","legacy","0","uniform","1","0","0","undefined","undefined","1","j","2","1","NA","0","1","0","0","0","0","0","0","0","0","35","35","35","0","0","0","NA","0","0","2","0","0","0","2","35","35","35","35","35","Wed Oct  4 17:07:20 2017","Forced-choice identification task with a practice and an experimental phase","yes","NAP_GER_AA_4blocks_noglides.osexp","/Users/aviadalbert/Documents/Academisch/UoC/Dissertation/Experiment/OpenSesame/NAP-FC/NAP_GER_AA_4blocks_noglides","yes","no","sans","no","20","no","black","no","Weiter","yes","768","legacy","25","9","0","/Users/aviadalbert/Documents/Academisch/UoC/Dissertation/Experiment/OpenSesame/NAP-FC/NAP_GER_AA_4blocks_noglides/subject-5.csv","xpyriment","Jazzy James","3.1.9","yes","yes","59a800d99ad5a1025d81bb03","59a801616c613b0251691de0","no","no","0","j","f","space","NA","space","space","j","1705","1547","16909","NA","19235","31134","1705","2","legacy","1024","1","44100","-16","experiment","sepal","4","1","0","0","1","english","5","","odd","12833536","12816100","NA","NA","12835084","12833532","NA","12509047","12833067","12509047","12509047","12722456","12741696","12929749","12928241","12931456","12775942","12773123","12816099","NA","12675683","12709403","12814436","12772897","12833536","12773127","NA","12929749","12929749","12893370","12893366","12928237","NAP perception","20","48951","26","yes","1024"
"77.7777777778","yes","77.7777777778","1867","1867","white","no","xpyriment","Ich habe die obigen Informationen gelesen und verstanden.","legacy","legacy","0","uniform","1","0","0","undefined","undefined","1","f","2","1","NA","0","1","0","0","0","0","0","0","0","0","36","36","36","0","0","0","NA","0","0","2","0","0","0","2","36","36","36","36","36","Wed Oct  4 17:07:20 2017","Forced-choice identification task with a practice and an experimental phase","yes","NAP_GER_AA_4blocks_noglides.osexp","/Users/aviadalbert/Documents/Academisch/UoC/Dissertation/Experiment/OpenSesame/NAP-FC/NAP_GER_AA_4blocks_noglides","yes","no","sans","no","20","no","black","no","Weiter","yes","768","legacy","26","9","0","/Users/aviadalbert/Documents/Academisch/UoC/Dissertation/Experiment/OpenSesame/NAP-FC/NAP_GER_AA_4blocks_noglides/subject-5.csv","xpyriment","Jazzy James","3.1.9","yes","yes","59a800d99ad5a1025d81bb03","59a801616c613b0251691de0","no","no","0","f","f","space","NA","space","space","f","1458","1547","16909","NA","19235","31134","1458","2","legacy","1024","1","44100","-16","experiment","vzal","4","1","0","0","1","english","5","","odd","12833536","12816100","NA","NA","12835084","12833532","NA","12509047","12833067","12509047","12509047","12722456","12741696","12933238","12931735","12934698","12775942","12773123","12816099","NA","12675683","12709403","12814436","12772897","12833536","12773127","NA","12933238","12933238","12893370","12893366","12931731","NAP perception","21","50409","27","yes","1024"
"75","yes","75","1860.10714286","1860.10714286","white","no","xpyriment","Ich habe die obigen Informationen gelesen und verstanden.","legacy","legacy","0","uniform","0","0","0","undefined","undefined","0","f","2","1","NA","0","1","0","0","0","0","0","0","0","0","37","37","37","0","0","0","NA","0","0","2","0","0","0","2","37","37","37","37","37","Wed Oct  4 17:07:20 2017","Forced-choice identification task with a practice and an experimental phase","yes","NAP_GER_AA_4blocks_noglides.osexp","/Users/aviadalbert/Documents/Academisch/UoC/Dissertation/Experiment/OpenSesame/NAP-FC/NAP_GER_AA_4blocks_noglides","yes","no","sans","no","20","no","black","no","Weiter","yes","768","legacy","27","9","0","/Users/aviadalbert/Documents/Academisch/UoC/Dissertation/Experiment/OpenSesame/NAP-FC/NAP_GER_AA_4blocks_noglides/subject-5.csv","xpyriment","Jazzy James","3.1.9","yes","yes","59a800d99ad5a1025d81bb03","59a801616c613b0251691de0","no","no","0","j","f","space","NA","space","space","j","1674","1547","16909","NA","19235","31134","1674","2","legacy","1024","1","44100","-16","experiment","lmal","4","1","0","0","1","english","5","","odd","12833536","12816100","NA","NA","12835084","12833532","NA","12509047","12833067","12509047","12509047","12722456","12741696","12936477","12934972","12938152","12775942","12773123","12816099","NA","12675683","12709403","12814436","12772897","12833536","12773127","NA","12936477","12936477","12893370","12893366","12934968","NAP perception","21","52083","28","yes","1024"
"75.8620689655","yes","75.8620689655","1833.31034483","1833.31034483","white","no","xpyriment","Ich habe die obigen Informationen gelesen und verstanden.","legacy","legacy","0","uniform","1","0","0","undefined","undefined","1","j","2","1","NA","0","1","0","0","0","0","0","0","0","0","38","38","38","0","0","0","NA","0","0","2","0","0","0","2","38","38","38","38","38","Wed Oct  4 17:07:20 2017","Forced-choice identification task with a practice and an experimental phase","yes","NAP_GER_AA_4blocks_noglides.osexp","/Users/aviadalbert/Documents/Academisch/UoC/Dissertation/Experiment/OpenSesame/NAP-FC/NAP_GER_AA_4blocks_noglides","yes","no","sans","no","20","no","black","no","Weiter","yes","768","legacy","28","9","0","/Users/aviadalbert/Documents/Academisch/UoC/Dissertation/Experiment/OpenSesame/NAP-FC/NAP_GER_AA_4blocks_noglides/subject-5.csv","xpyriment","Jazzy James","3.1.9","yes","yes","59a800d99ad5a1025d81bb03","59a801616c613b0251691de0","no","no","0","j","f","space","NA","space","space","j","1083","1547","16909","NA","19235","31134","1083","2","legacy","1024","1","44100","-16","experiment","ʃepal","4","1","0","0","1","english","5","","odd","12833536","12816100","NA","NA","12835084","12833532","NA","12509047","12833067","12509047","12509047","12722456","12741696","12939946","12938439","12941031","12775942","12773123","12816099","NA","12675683","12709403","12814436","12772897","12833536","12773127","NA","12939946","12939946","12893370","12893366","12938435","NAP perception","22","53166","29","yes","1024"
"76.6666666667","yes","76.6666666667","1802.1","1802.1","white","no","xpyriment","Ich habe die obigen Informationen gelesen und verstanden.","legacy","legacy","0","uniform","1","0","0","undefined","undefined","1","j","2","1","NA","0","1","0","0","0","0","0","0","0","0","39","39","39","0","0","0","NA","0","0","2","0","0","0","2","39","39","39","39","39","Wed Oct  4 17:07:20 2017","Forced-choice identification task with a practice and an experimental phase","yes","NAP_GER_AA_4blocks_noglides.osexp","/Users/aviadalbert/Documents/Academisch/UoC/Dissertation/Experiment/OpenSesame/NAP-FC/NAP_GER_AA_4blocks_noglides","yes","no","sans","no","20","no","black","no","Weiter","yes","768","legacy","29","9","0","/Users/aviadalbert/Documents/Academisch/UoC/Dissertation/Experiment/OpenSesame/NAP-FC/NAP_GER_AA_4blocks_noglides/subject-5.csv","xpyriment","Jazzy James","3.1.9","yes","yes","59a800d99ad5a1025d81bb03","59a801616c613b0251691de0","no","no","0","j","f","space","NA","space","space","j","897","1547","16909","NA","19235","31134","897","2","legacy","1024","1","44100","-16","experiment","enval","4","1","0","0","1","english","5","","odd","12833536","12816100","NA","NA","12835084","12833532","NA","12509047","12833067","12509047","12509047","12722456","12741696","12942814","12941310","12943712","12775942","12773123","12816099","NA","12675683","12709403","12814436","12772897","12833536","12773127","NA","12942813","12942813","12893370","12893366","12941306","NAP perception","23","54063","30","yes","1024"
"77.4193548387","yes","77.4193548387","1777.77419355","1777.77419355","white","no","xpyriment","Ich habe die obigen Informationen gelesen und verstanden.","legacy","legacy","0","uniform","1","0","0","undefined","undefined","1","j","2","1","NA","0","1","0","0","0","0","0","0","0","0","40","40","40","0","0","0","NA","0","0","2","0","0","0","2","40","40","40","40","40","Wed Oct  4 17:07:20 2017","Forced-choice identification task with a practice and an experimental phase","yes","NAP_GER_AA_4blocks_noglides.osexp","/Users/aviadalbert/Documents/Academisch/UoC/Dissertation/Experiment/OpenSesame/NAP-FC/NAP_GER_AA_4blocks_noglides","yes","no","sans","no","20","no","black","no","Weiter","yes","768","legacy","30","9","0","/Users/aviadalbert/Documents/Academisch/UoC/Dissertation/Experiment/OpenSesame/NAP-FC/NAP_GER_AA_4blocks_noglides/subject-5.csv","xpyriment","Jazzy James","3.1.9","yes","yes","59a800d99ad5a1025d81bb03","59a801616c613b0251691de0","no","no","0","j","f","space","NA","space","space","j","1048","1547","16909","NA","19235","31134","1048","2","legacy","1024","1","44100","-16","experiment","felal","4","1","0","0","1","english","5","","odd","12833536","12816100","NA","NA","12835084","12833532","NA","12509047","12833067","12509047","12509047","12722456","12741696","12945499","12943996","12946548","12775942","12773123","12816099","NA","12675683","12709403","12814436","12772897","12833536","12773127","NA","12945499","12945499","12893370","12893366","12943992","NAP perception","24","55111","31","yes","1024"
"78.125","yes","78.125","1753.25","1753.25","white","no","xpyriment","Ich habe die obigen Informationen gelesen und verstanden.","legacy","legacy","0","uniform","1","0","0","undefined","undefined","1","j","2","1","NA","0","1","0","0","0","0","0","0","0","0","41","41","41","0","0","0","NA","0","0","2","0","0","0","2","41","41","41","41","41","Wed Oct  4 17:07:20 2017","Forced-choice identification task with a practice and an experimental phase","yes","NAP_GER_AA_4blocks_noglides.osexp","/Users/aviadalbert/Documents/Academisch/UoC/Dissertation/Experiment/OpenSesame/NAP-FC/NAP_GER_AA_4blocks_noglides","yes","no","sans","no","20","no","black","no","Weiter","yes","768","legacy","31","9","0","/Users/aviadalbert/Documents/Academisch/UoC/Dissertation/Experiment/OpenSesame/NAP-FC/NAP_GER_AA_4blocks_noglides/subject-5.csv","xpyriment","Jazzy James","3.1.9","yes","yes","59a800d99ad5a1025d81bb03","59a801616c613b0251691de0","no","no","0","j","f","space","NA","space","space","j","993","1547","16909","NA","19235","31134","993","2","legacy","1024","1","44100","-16","experiment","fetal","4","1","0","0","1","english","5","","odd","12833536","12816100","NA","NA","12835084","12833532","NA","12509047","12833067","12509047","12509047","12722456","12741696","12948327","12946823","12949321","12775942","12773123","12816099","NA","12675683","12709403","12814436","12772897","12833536","12773127","NA","12948327","12948327","12893370","12893366","12946819","NAP perception","25","56104","32","yes","1024"
"78.7878787879","yes","78.7878787879","1731.21212121","1731.21212121","white","no","xpyriment","Ich habe die obigen Informationen gelesen und verstanden.","legacy","legacy","0","uniform","1","0","0","undefined","undefined","1","f","2","1","NA","0","1","0","0","0","0","0","0","0","0","42","42","42","0","0","0","NA","0","0","2","0","0","0","2","42","42","42","42","42","Wed Oct  4 17:07:20 2017","Forced-choice identification task with a practice and an experimental phase","yes","NAP_GER_AA_4blocks_noglides.osexp","/Users/aviadalbert/Documents/Academisch/UoC/Dissertation/Experiment/OpenSesame/NAP-FC/NAP_GER_AA_4blocks_noglides","yes","no","sans","no","20","no","black","no","Weiter","yes","768","legacy","32","9","0","/Users/aviadalbert/Documents/Academisch/UoC/Dissertation/Experiment/OpenSesame/NAP-FC/NAP_GER_AA_4blocks_noglides/subject-5.csv","xpyriment","Jazzy James","3.1.9","yes","yes","59a800d99ad5a1025d81bb03","59a801616c613b0251691de0","no","no","0","f","f","space","NA","space","space","f","1026","1547","16909","NA","19235","31134","1026","2","legacy","1024","1","44100","-16","experiment","zmal","4","1","0","0","1","english","5","","odd","12833536","12816100","NA","NA","12835084","12833532","NA","12509047","12833067","12509047","12509047","12722456","12741696","12951115","12949611","12952142","12775942","12773123","12816099","NA","12675683","12709403","12814436","12772897","12833536","12773127","NA","12951115","12951115","12893370","12893366","12949607","NAP perception","26","57130","33","yes","1024"
"79.4117647059","yes","79.4117647059","1709.17647059","1709.17647059","white","no","xpyriment","Ich habe die obigen Informationen gelesen und verstanden.","legacy","legacy","0","uniform","1","0","0","undefined","undefined","1","j","2","1","NA","0","1","0","0","0","0","0","0","0","0","43","43","43","0","0","0","NA","0","0","2","0","0","0","2","43","43","43","43","43","Wed Oct  4 17:07:20 2017","Forced-choice identification task with a practice and an experimental phase","yes","NAP_GER_AA_4blocks_noglides.osexp","/Users/aviadalbert/Documents/Academisch/UoC/Dissertation/Experiment/OpenSesame/NAP-FC/NAP_GER_AA_4blocks_noglides","yes","no","sans","no","20","no","black","no","Weiter","yes","768","legacy","33","9","0","/Users/aviadalbert/Documents/Academisch/UoC/Dissertation/Experiment/OpenSesame/NAP-FC/NAP_GER_AA_4blocks_noglides/subject-5.csv","xpyriment","Jazzy James","3.1.9","yes","yes","59a800d99ad5a1025d81bb03","59a801616c613b0251691de0","no","no","0","j","f","space","NA","space","space","j","982","1547","16909","NA","19235","31134","982","2","legacy","1024","1","44100","-16","experiment","fesal","4","1","0","0","1","english","5","","odd","12833536","12816100","NA","NA","12835084","12833532","NA","12509047","12833067","12509047","12509047","12722456","12741696","12953942","12952437","12954926","12775942","12773123","12816099","NA","12675683","12709403","12814436","12772897","12833536","12773127","NA","12953942","12953942","12893370","12893366","12952433","NAP perception","27","58112","34","yes","1024"
"77.1428571429","yes","77.1428571429","1701.31428571","1701.31428571","white","no","xpyriment","Ich habe die obigen Informationen gelesen und verstanden.","legacy","legacy","0","uniform","0","0","0","undefined","undefined","0","f","2","1","NA","0","1","0","0","0","0","0","0","0","0","44","44","44","0","0","0","NA","0","0","2","0","0","0","2","44","44","44","44","44","Wed Oct  4 17:07:20 2017","Forced-choice identification task with a practice and an experimental phase","yes","NAP_GER_AA_4blocks_noglides.osexp","/Users/aviadalbert/Documents/Academisch/UoC/Dissertation/Experiment/OpenSesame/NAP-FC/NAP_GER_AA_4blocks_noglides","yes","no","sans","no","20","no","black","no","Weiter","yes","768","legacy","34","9","0","/Users/aviadalbert/Documents/Academisch/UoC/Dissertation/Experiment/OpenSesame/NAP-FC/NAP_GER_AA_4blocks_noglides/subject-5.csv","xpyriment","Jazzy James","3.1.9","yes","yes","59a800d99ad5a1025d81bb03","59a801616c613b0251691de0","no","no","0","j","f","space","NA","space","space","j","1434","1547","16909","NA","19235","31134","1434","2","legacy","1024","1","44100","-16","experiment","lkal","4","1","0","0","1","english","5","","odd","12833536","12816100","NA","NA","12835084","12833532","NA","12509047","12833067","12509047","12509047","12722456","12741696","12956720","12955213","12958155","12775942","12773123","12816099","NA","12675683","12709403","12814436","12772897","12833536","12773127","NA","12956720","12956720","12893370","12893366","12955209","NAP perception","27","59546","35","yes","1024"
"77.7777777778","yes","77.7777777778","1699.61111111","1699.61111111","white","no","xpyriment","Ich habe die obigen Informationen gelesen und verstanden.","legacy","legacy","0","uniform","1","0","0","undefined","undefined","1","j","2","1","NA","0","1","0","0","0","0","0","0","0","0","45","45","45","0","0","0","NA","0","0","2","0","0","0","2","45","45","45","45","45","Wed Oct  4 17:07:20 2017","Forced-choice identification task with a practice and an experimental phase","yes","NAP_GER_AA_4blocks_noglides.osexp","/Users/aviadalbert/Documents/Academisch/UoC/Dissertation/Experiment/OpenSesame/NAP-FC/NAP_GER_AA_4blocks_noglides","yes","no","sans","no","20","no","black","no","Weiter","yes","768","legacy","35","9","0","/Users/aviadalbert/Documents/Academisch/UoC/Dissertation/Experiment/OpenSesame/NAP-FC/NAP_GER_AA_4blocks_noglides/subject-5.csv","xpyriment","Jazzy James","3.1.9","yes","yes","59a800d99ad5a1025d81bb03","59a801616c613b0251691de0","no","no","0","j","f","space","NA","space","space","j","1640","1547","16909","NA","19235","31134","1640","2","legacy","1024","1","44100","-16","experiment","evzal","4","1","0","0","1","english","5","","odd","12833536","12816100","NA","NA","12835084","12833532","NA","12509047","12833067","12509047","12509047","12722456","12741696","12959940","12958436","12961582","12775942","12773123","12816099","NA","12675683","12709403","12814436","12772897","12833536","12773127","NA","12959940","12959940","12893370","12893366","12958432","NAP perception","28","61186","36","yes","1024"
"78.3783783784","yes","78.3783783784","1675.56756757","1675.56756757","white","no","xpyriment","Ich habe die obigen Informationen gelesen und verstanden.","legacy","legacy","0","uniform","1","0","0","undefined","undefined","1","j","2","1","NA","0","1","0","0","0","0","0","0","0","0","46","46","46","0","0","0","NA","0","0","2","0","0","0","2","46","46","46","46","46","Wed Oct  4 17:07:20 2017","Forced-choice identification task with a practice and an experimental phase","yes","NAP_GER_AA_4blocks_noglides.osexp","/Users/aviadalbert/Documents/Academisch/UoC/Dissertation/Experiment/OpenSesame/NAP-FC/NAP_GER_AA_4blocks_noglides","yes","no","sans","no","20","no","black","no","Weiter","yes","768","legacy","36","9","0","/Users/aviadalbert/Documents/Academisch/UoC/Dissertation/Experiment/OpenSesame/NAP-FC/NAP_GER_AA_4blocks_noglides/subject-5.csv","xpyriment","Jazzy James","3.1.9","yes","yes","59a800d99ad5a1025d81bb03","59a801616c613b0251691de0","no","no","0","j","f","space","NA","space","space","j","810","1547","16909","NA","19235","31134","810","2","legacy","1024","1","44100","-16","experiment","esmal","4","1","0","0","1","english","5","","odd","12833536","12816100","NA","NA","12835084","12833532","NA","12509047","12833067","12509047","12509047","12722456","12741696","12963363","12961860","12964174","12775942","12773123","12816099","NA","12675683","12709403","12814436","12772897","12833536","12773127","NA","12963363","12963363","12893370","12893366","12961856","NAP perception","29","61996","37","yes","1024"
"78.9473684211","yes","78.9473684211","1656.73684211","1656.73684211","white","no","xpyriment","Ich habe die obigen Informationen gelesen und verstanden.","legacy","legacy","0","uniform","1","0","0","undefined","undefined","1","j","2","1","NA","0","1","0","0","0","0","0","0","0","0","47","47","47","0","0","0","NA","0","0","2","0","0","0","2","47","47","47","47","47","Wed Oct  4 17:07:20 2017","Forced-choice identification task with a practice and an experimental phase","yes","NAP_GER_AA_4blocks_noglides.osexp","/Users/aviadalbert/Documents/Academisch/UoC/Dissertation/Experiment/OpenSesame/NAP-FC/NAP_GER_AA_4blocks_noglides","yes","no","sans","no","20","no","black","no","Weiter","yes","768","legacy","37","9","0","/Users/aviadalbert/Documents/Academisch/UoC/Dissertation/Experiment/OpenSesame/NAP-FC/NAP_GER_AA_4blocks_noglides/subject-5.csv","xpyriment","Jazzy James","3.1.9","yes","yes","59a800d99ad5a1025d81bb03","59a801616c613b0251691de0","no","no","0","j","f","space","NA","space","space","j","960","1547","16909","NA","19235","31134","960","2","legacy","1024","1","44100","-16","experiment","enfal","4","1","0","0","1","english","5","","odd","12833536","12816100","NA","NA","12835084","12833532","NA","12509047","12833067","12509047","12509047","12722456","12741696","12965967","12964463","12966928","12775942","12773123","12816099","NA","12675683","12709403","12814436","12772897","12833536","12773127","NA","12965967","12965967","12893370","12893366","12964459","NAP perception","30","62956","38","yes","1024"
"79.4871794872","yes","79.4871794872","1634.94871795","1634.94871795","white","no","xpyriment","Ich habe die obigen Informationen gelesen und verstanden.","legacy","legacy","0","uniform","1","0","0","undefined","undefined","1","j","2","1","NA","0","1","0","0","0","0","0","0","0","0","48","48","48","0","0","0","NA","0","0","2","0","0","0","2","48","48","48","48","48","Wed Oct  4 17:07:20 2017","Forced-choice identification task with a practice and an experimental phase","yes","NAP_GER_AA_4blocks_noglides.osexp","/Users/aviadalbert/Documents/Academisch/UoC/Dissertation/Experiment/OpenSesame/NAP-FC/NAP_GER_AA_4blocks_noglides","yes","no","sans","no","20","no","black","no","Weiter","yes","768","legacy","38","9","0","/Users/aviadalbert/Documents/Academisch/UoC/Dissertation/Experiment/OpenSesame/NAP-FC/NAP_GER_AA_4blocks_noglides/subject-5.csv","xpyriment","Jazzy James","3.1.9","yes","yes","59a800d99ad5a1025d81bb03","59a801616c613b0251691de0","no","no","0","j","f","space","NA","space","space","j","807","1547","16909","NA","19235","31134","807","2","legacy","1024","1","44100","-16","experiment","emtal","4","1","0","0","1","english","5","","odd","12833536","12816100","NA","NA","12835084","12833532","NA","12509047","12833067","12509047","12509047","12722456","12741696","12968717","12967211","12969525","12775942","12773123","12816099","NA","12675683","12709403","12814436","12772897","12833536","12773127","NA","12968717","12968717","12893370","12893366","12967207","NAP perception","31","63763","39","yes","1024"
"80","yes","80","1613.475","1613.475","white","no","xpyriment","Ich habe die obigen Informationen gelesen und verstanden.","legacy","legacy","0","uniform","1","0","0","undefined","undefined","1","f","2","1","NA","0","1","0","0","0","0","0","0","0","0","49","49","49","0","0","0","NA","0","0","2","0","0","0","2","49","49","49","49","49","Wed Oct  4 17:07:20 2017","Forced-choice identification task with a practice and an experimental phase","yes","NAP_GER_AA_4blocks_noglides.osexp","/Users/aviadalbert/Documents/Academisch/UoC/Dissertation/Experiment/OpenSesame/NAP-FC/NAP_GER_AA_4blocks_noglides","yes","no","sans","no","20","no","black","no","Weiter","yes","768","legacy","39","9","0","/Users/aviadalbert/Documents/Academisch/UoC/Dissertation/Experiment/OpenSesame/NAP-FC/NAP_GER_AA_4blocks_noglides/subject-5.csv","xpyriment","Jazzy James","3.1.9","yes","yes","59a800d99ad5a1025d81bb03","59a801616c613b0251691de0","no","no","0","f","f","space","NA","space","space","f","776","1547","16909","NA","19235","31134","776","2","legacy","1024","1","44100","-16","experiment","ftal","4","1","0","0","1","english","5","","odd","12833536","12816100","NA","NA","12835084","12833532","NA","12509047","12833067","12509047","12509047","12722456","12741696","12971317","12969810","12972095","12775942","12773123","12816099","NA","12675683","12709403","12814436","12772897","12833536","12773127","NA","12971317","12971317","12893370","12893366","12969806","NAP perception","32","64539","40","yes","1024"
"80.487804878","yes","80.487804878","1601.26829268","1601.26829268","white","no","xpyriment","Ich habe die obigen Informationen gelesen und verstanden.","legacy","legacy","0","uniform","1","0","0","undefined","undefined","1","f","2","1","NA","0","1","0","0","0","0","0","0","0","0","50","50","50","0","0","0","NA","0","0","2","0","0","0","2","50","50","50","50","50","Wed Oct  4 17:07:20 2017","Forced-choice identification task with a practice and an experimental phase","yes","NAP_GER_AA_4blocks_noglides.osexp","/Users/aviadalbert/Documents/Academisch/UoC/Dissertation/Experiment/OpenSesame/NAP-FC/NAP_GER_AA_4blocks_noglides","yes","no","sans","no","20","no","black","no","Weiter","yes","768","legacy","40","9","0","/Users/aviadalbert/Documents/Academisch/UoC/Dissertation/Experiment/OpenSesame/NAP-FC/NAP_GER_AA_4blocks_noglides/subject-5.csv","xpyriment","Jazzy James","3.1.9","yes","yes","59a800d99ad5a1025d81bb03","59a801616c613b0251691de0","no","no","0","f","f","space","NA","space","space","f","1113","1547","16909","NA","19235","31134","1113","2","legacy","1024","1","44100","-16","experiment","ʃpal","4","1","0","0","1","english","5","","odd","12833536","12816100","NA","NA","12835084","12833532","NA","12509047","12833067","12509047","12509047","12722456","12741696","12973883","12972376","12974998","12775942","12773123","12816099","NA","12675683","12709403","12814436","12772897","12833536","12773127","NA","12973883","12973883","12893370","12893366","12972372","NAP perception","33","65652","41","yes","1024"
"80.9523809524","yes","80.9523809524","1608.80952381","1608.80952381","white","no","xpyriment","Ich habe die obigen Informationen gelesen und verstanden.","legacy","legacy","0","uniform","1","0","0","undefined","undefined","1","j","2","1","NA","0","1","0","0","0","0","0","0","0","0","51","51","51","0","0","0","NA","0","0","2","0","0","0","2","51","51","51","51","51","Wed Oct  4 17:07:20 2017","Forced-choice identification task with a practice and an experimental phase","yes","NAP_GER_AA_4blocks_noglides.osexp","/Users/aviadalbert/Documents/Academisch/UoC/Dissertation/Experiment/OpenSesame/NAP-FC/NAP_GER_AA_4blocks_noglides","yes","no","sans","no","20","no","black","no","Weiter","yes","768","legacy","41","9","0","/Users/aviadalbert/Documents/Academisch/UoC/Dissertation/Experiment/OpenSesame/NAP-FC/NAP_GER_AA_4blocks_noglides/subject-5.csv","xpyriment","Jazzy James","3.1.9","yes","yes","59a800d99ad5a1025d81bb03","59a801616c613b0251691de0","no","no","0","j","f","space","NA","space","space","j","1918","1547","16909","NA","19235","31134","1918","2","legacy","1024","1","44100","-16","experiment","semal","4","1","0","0","1","english","5","","odd","12833536","12816100","NA","NA","12835084","12833532","NA","12509047","12833067","12509047","12509047","12722456","12741696","12976783","12975280","12978703","12775942","12773123","12816099","NA","12675683","12709403","12814436","12772897","12833536","12773127","NA","12976783","12976783","12893370","12893366","12975276","NAP perception","34","67570","42","yes","1024"
"81.3953488372","yes","81.3953488372","1597.39534884","1597.39534884","white","no","xpyriment","Ich habe die obigen Informationen gelesen und verstanden.","legacy","legacy","0","uniform","1","0","0","undefined","undefined","1","j","2","1","NA","0","1","0","0","0","0","0","0","0","0","52","52","52","0","0","0","NA","0","0","2","0","0","0","2","52","52","52","52","52","Wed Oct  4 17:07:20 2017","Forced-choice identification task with a practice and an experimental phase","yes","NAP_GER_AA_4blocks_noglides.osexp","/Users/aviadalbert/Documents/Academisch/UoC/Dissertation/Experiment/OpenSesame/NAP-FC/NAP_GER_AA_4blocks_noglides","yes","no","sans","no","20","no","black","no","Weiter","yes","768","legacy","42","9","0","/Users/aviadalbert/Documents/Academisch/UoC/Dissertation/Experiment/OpenSesame/NAP-FC/NAP_GER_AA_4blocks_noglides/subject-5.csv","xpyriment","Jazzy James","3.1.9","yes","yes","59a800d99ad5a1025d81bb03","59a801616c613b0251691de0","no","no","0","j","f","space","NA","space","space","j","1118","1547","16909","NA","19235","31134","1118","2","legacy","1024","1","44100","-16","experiment","eʃpal","4","1","0","0","1","english","5","","odd","12833536","12816100","NA","NA","12835084","12833532","NA","12509047","12833067","12509047","12509047","12722456","12741696","12980492","12978989","12981612","12775942","12773123","12816099","NA","12675683","12709403","12814436","12772897","12833536","12773127","NA","12980492","12980492","12893370","12893366","12978985","NAP perception","35","68688","43","yes","1024"
"79.5454545455","yes","79.5454545455","1609.31818182","1609.31818182","white","no","xpyriment","Ich habe die obigen Informationen gelesen und verstanden.","legacy","legacy","0","uniform","0","0","0","undefined","undefined","0","f","2","1","NA","0","1","0","0","0","0","0","0","0","0","53","53","53","0","0","0","NA","0","0","2","0","0","0","2","53","53","53","53","53","Wed Oct  4 17:07:20 2017","Forced-choice identification task with a practice and an experimental phase","yes","NAP_GER_AA_4blocks_noglides.osexp","/Users/aviadalbert/Documents/Academisch/UoC/Dissertation/Experiment/OpenSesame/NAP-FC/NAP_GER_AA_4blocks_noglides","yes","no","sans","no","20","no","black","no","Weiter","yes","768","legacy","43","9","0","/Users/aviadalbert/Documents/Academisch/UoC/Dissertation/Experiment/OpenSesame/NAP-FC/NAP_GER_AA_4blocks_noglides/subject-5.csv","xpyriment","Jazzy James","3.1.9","yes","yes","59a800d99ad5a1025d81bb03","59a801616c613b0251691de0","no","no","0","j","f","space","NA","space","space","j","2122","1547","16909","NA","19235","31134","2122","2","legacy","1024","1","44100","-16","experiment","nmal","4","1","0","0","1","english","5","","odd","12833536","12816100","NA","NA","12835084","12833532","NA","12509047","12833067","12509047","12509047","12722456","12741696","12983406","12981902","12985530","12775942","12773123","12816099","NA","12675683","12709403","12814436","12772897","12833536","12773127","NA","12983406","12983406","12893370","12893366","12981898","NAP perception","35","70810","44","yes","1024"
"80","yes","80","1589.66666667","1589.66666667","white","no","xpyriment","Ich habe die obigen Informationen gelesen und verstanden.","legacy","legacy","0","uniform","1","0","0","undefined","undefined","1","f","2","1","NA","0","1","0","0","0","0","0","0","0","0","54","54","54","0","0","0","NA","0","0","2","0","0","0","2","54","54","54","54","54","Wed Oct  4 17:07:20 2017","Forced-choice identification task with a practice and an experimental phase","yes","NAP_GER_AA_4blocks_noglides.osexp","/Users/aviadalbert/Documents/Academisch/UoC/Dissertation/Experiment/OpenSesame/NAP-FC/NAP_GER_AA_4blocks_noglides","yes","no","sans","no","20","no","black","no","Weiter","yes","768","legacy","44","9","0","/Users/aviadalbert/Documents/Academisch/UoC/Dissertation/Experiment/OpenSesame/NAP-FC/NAP_GER_AA_4blocks_noglides/subject-5.csv","xpyriment","Jazzy James","3.1.9","yes","yes","59a800d99ad5a1025d81bb03","59a801616c613b0251691de0","no","no","0","f","f","space","NA","space","space","f","725","1547","16909","NA","19235","31134","725","2","legacy","1024","1","44100","-16","experiment","spal","4","1","0","0","1","english","5","","odd","12833536","12816100","NA","NA","12835084","12833532","NA","12509047","12833067","12509047","12509047","12722456","12741696","12987316","12985813","12988043","12775942","12773123","12816099","NA","12675683","12709403","12814436","12772897","12833536","12773127","NA","12987316","12987316","12893370","12893366","12985809","NAP perception","36","71535","45","yes","1024"
"80.4347826087","yes","80.4347826087","1581.95652174","1581.95652174","white","no","xpyriment","Ich habe die obigen Informationen gelesen und verstanden.","legacy","legacy","0","uniform","1","0","0","undefined","undefined","1","j","2","1","NA","0","1","0","0","0","0","0","0","0","0","55","55","55","0","0","0","NA","0","0","2","0","0","0","2","55","55","55","55","55","Wed Oct  4 17:07:20 2017","Forced-choice identification task with a practice and an experimental phase","yes","NAP_GER_AA_4blocks_noglides.osexp","/Users/aviadalbert/Documents/Academisch/UoC/Dissertation/Experiment/OpenSesame/NAP-FC/NAP_GER_AA_4blocks_noglides","yes","no","sans","no","20","no","black","no","Weiter","yes","768","legacy","45","9","0","/Users/aviadalbert/Documents/Academisch/UoC/Dissertation/Experiment/OpenSesame/NAP-FC/NAP_GER_AA_4blocks_noglides/subject-5.csv","xpyriment","Jazzy James","3.1.9","yes","yes","59a800d99ad5a1025d81bb03","59a801616c613b0251691de0","no","no","0","j","f","space","NA","space","space","j","1235","1547","16909","NA","19235","31134","1235","2","legacy","1024","1","44100","-16","experiment","ezval","4","1","0","0","1","english","5","","odd","12833536","12816100","NA","NA","12835084","12833532","NA","12509047","12833067","12509047","12509047","12722456","12741696","12989837","12988334","12991074","12775942","12773123","12816099","NA","12675683","12709403","12814436","12772897","12833536","12773127","NA","12989837","12989837","12893370","12893366","12988330","NAP perception","37","72770","46","yes","1024"
"78.7234042553","yes","78.7234042553","1592.19148936","1592.19148936","white","no","xpyriment","Ich habe die obigen Informationen gelesen und verstanden.","legacy","legacy","0","uniform","0","0","0","undefined","undefined","0","f","2","1","NA","0","1","0","0","0","0","0","0","0","0","56","56","56","0","0","0","NA","0","0","2","0","0","0","2","56","56","56","56","56","Wed Oct  4 17:07:20 2017","Forced-choice identification task with a practice and an experimental phase","yes","NAP_GER_AA_4blocks_noglides.osexp","/Users/aviadalbert/Documents/Academisch/UoC/Dissertation/Experiment/OpenSesame/NAP-FC/NAP_GER_AA_4blocks_noglides","yes","no","sans","no","20","no","black","no","Weiter","yes","768","legacy","46","9","0","/Users/aviadalbert/Documents/Academisch/UoC/Dissertation/Experiment/OpenSesame/NAP-FC/NAP_GER_AA_4blocks_noglides/subject-5.csv","xpyriment","Jazzy James","3.1.9","yes","yes","59a800d99ad5a1025d81bb03","59a801616c613b0251691de0","no","no","0","j","f","space","NA","space","space","j","2063","1547","16909","NA","19235","31134","2063","2","legacy","1024","1","44100","-16","experiment","npal","4","1","0","0","1","english","5","","odd","12833536","12816100","NA","NA","12835084","12833532","NA","12509047","12833067","12509047","12509047","12722456","12741696","12992864","12991357","12994929","12775942","12773123","12816099","NA","12675683","12709403","12814436","12772897","12833536","12773127","NA","12992864","12992864","12893370","12893366","12991353","NAP perception","37","74833","47","yes","1024"
"79.1666666667","yes","79.1666666667","1574.54166667","1574.54166667","white","no","xpyriment","Ich habe die obigen Informationen gelesen und verstanden.","legacy","legacy","0","uniform","1","0","0","undefined","undefined","1","f","2","1","NA","0","1","0","0","0","0","0","0","0","0","57","57","57","0","0","0","NA","0","0","2","0","0","0","2","57","57","57","57","57","Wed Oct  4 17:07:20 2017","Forced-choice identification task with a practice and an experimental phase","yes","NAP_GER_AA_4blocks_noglides.osexp","/Users/aviadalbert/Documents/Academisch/UoC/Dissertation/Experiment/OpenSesame/NAP-FC/NAP_GER_AA_4blocks_noglides","yes","no","sans","no","20","no","black","no","Weiter","yes","768","legacy","47","9","0","/Users/aviadalbert/Documents/Academisch/UoC/Dissertation/Experiment/OpenSesame/NAP-FC/NAP_GER_AA_4blocks_noglides/subject-5.csv","xpyriment","Jazzy James","3.1.9","yes","yes","59a800d99ad5a1025d81bb03","59a801616c613b0251691de0","no","no","0","f","f","space","NA","space","space","f","745","1547","16909","NA","19235","31134","745","2","legacy","1024","1","44100","-16","experiment","vnal","4","1","0","0","1","english","5","","odd","12833536","12816100","NA","NA","12835084","12833532","NA","12509047","12833067","12509047","12509047","12722456","12741696","12996713","12995204","12997460","12775942","12773123","12816099","NA","12675683","12709403","12814436","12772897","12833536","12773127","NA","12996712","12996713","12893370","12893366","12995200","NAP perception","38","75578","48","yes","1024"
"79.5918367347","yes","79.5918367347","1559.87755102","1559.87755102","white","no","xpyriment","Ich habe die obigen Informationen gelesen und verstanden.","legacy","legacy","0","uniform","1","0","0","undefined","undefined","1","j","2","1","NA","0","1","0","0","0","0","0","0","0","0","58","58","58","0","0","0","NA","0","0","2","0","0","0","2","58","58","58","58","58","Wed Oct  4 17:07:20 2017","Forced-choice identification task with a practice and an experimental phase","yes","NAP_GER_AA_4blocks_noglides.osexp","/Users/aviadalbert/Documents/Academisch/UoC/Dissertation/Experiment/OpenSesame/NAP-FC/NAP_GER_AA_4blocks_noglides","yes","no","sans","no","20","no","black","no","Weiter","yes","768","legacy","48","9","0","/Users/aviadalbert/Documents/Academisch/UoC/Dissertation/Experiment/OpenSesame/NAP-FC/NAP_GER_AA_4blocks_noglides/subject-5.csv","xpyriment","Jazzy James","3.1.9","yes","yes","59a800d99ad5a1025d81bb03","59a801616c613b0251691de0","no","no","0","j","f","space","NA","space","space","j","856","1547","16909","NA","19235","31134","856","2","legacy","1024","1","44100","-16","experiment","leval","4","1","0","0","1","english","5","","odd","12833536","12816100","NA","NA","12835084","12833532","NA","12509047","12833067","12509047","12509047","12722456","12741696","12999248","12997744","13000106","12775942","12773123","12816099","NA","12675683","12709403","12814436","12772897","12833536","12773127","NA","12999248","12999248","12893370","12893366","12997740","NAP perception","39","76434","49","yes","1024"
"80","yes","80","1545.18","1545.18","white","no","xpyriment","Ich habe die obigen Informationen gelesen und verstanden.","legacy","legacy","0","uniform","1","0","0","undefined","undefined","1","f","2","1","NA","0","1","0","0","0","0","0","0","0","0","59","59","59","0","0","0","NA","0","0","2","0","0","0","2","59","59","59","59","59","Wed Oct  4 17:07:20 2017","Forced-choice identification task with a practice and an experimental phase","yes","NAP_GER_AA_4blocks_noglides.osexp","/Users/aviadalbert/Documents/Academisch/UoC/Dissertation/Experiment/OpenSesame/NAP-FC/NAP_GER_AA_4blocks_noglides","yes","no","sans","no","20","no","black","no","Weiter","yes","768","legacy","49","9","0","/Users/aviadalbert/Documents/Academisch/UoC/Dissertation/Experiment/OpenSesame/NAP-FC/NAP_GER_AA_4blocks_noglides/subject-5.csv","xpyriment","Jazzy James","3.1.9","yes","yes","59a800d99ad5a1025d81bb03","59a801616c613b0251691de0","no","no","0","f","f","space","NA","space","space","f","825","1547","16909","NA","19235","31134","825","2","legacy","1024","1","44100","-16","experiment","ʃfal","4","1","0","0","1","english","5","","odd","12833536","12816100","NA","NA","12835084","12833532","NA","12509047","12833067","12509047","12509047","12722456","12741696","13001903","13000400","13002730","12775942","12773123","12816099","NA","12675683","12709403","12814436","12772897","12833536","12773127","NA","13001903","13001903","12893370","12893366","13000396","NAP perception","40","77259","50","yes","1024"
"78.431372549","yes","78.431372549","1540.03921569","1540.03921569","white","no","xpyriment","Ich habe die obigen Informationen gelesen und verstanden.","legacy","legacy","0","uniform","0","0","0","undefined","undefined","0","f","2","1","NA","0","1","0","0","0","0","0","0","0","0","60","60","60","0","0","0","NA","0","0","2","0","0","0","2","60","60","60","60","60","Wed Oct  4 17:07:20 2017","Forced-choice identification task with a practice and an experimental phase","yes","NAP_GER_AA_4blocks_noglides.osexp","/Users/aviadalbert/Documents/Academisch/UoC/Dissertation/Experiment/OpenSesame/NAP-FC/NAP_GER_AA_4blocks_noglides","yes","no","sans","no","20","no","black","no","Weiter","yes","768","legacy","50","9","0","/Users/aviadalbert/Documents/Academisch/UoC/Dissertation/Experiment/OpenSesame/NAP-FC/NAP_GER_AA_4blocks_noglides/subject-5.csv","xpyriment","Jazzy James","3.1.9","yes","yes","59a800d99ad5a1025d81bb03","59a801616c613b0251691de0","no","no","0","j","f","space","NA","space","space","j","1283","1547","16909","NA","19235","31134","1283","2","legacy","1024","1","44100","-16","experiment","mtal","4","1","0","0","1","english","5","","odd","12833536","12816100","NA","NA","12835084","12833532","NA","12509047","12833067","12509047","12509047","12722456","12741696","13004521","13003014","13005806","12775942","12773123","12816099","NA","12675683","12709403","12814436","12772897","12833536","12773127","NA","13004521","13004521","12893370","12893366","13003010","NAP perception","40","78542","51","yes","1024"
"78.8461538462","yes","78.8461538462","1529.92307692","1529.92307692","white","no","xpyriment","Ich habe die obigen Informationen gelesen und verstanden.","legacy","legacy","0","uniform","1","0","0","undefined","undefined","1","j","2","1","NA","0","1","0","0","0","0","0","0","0","0","61","61","61","0","0","0","NA","0","0","2","0","0","0","2","61","61","61","61","61","Wed Oct  4 17:07:20 2017","Forced-choice identification task with a practice and an experimental phase","yes","NAP_GER_AA_4blocks_noglides.osexp","/Users/aviadalbert/Documents/Academisch/UoC/Dissertation/Experiment/OpenSesame/NAP-FC/NAP_GER_AA_4blocks_noglides","yes","no","sans","no","20","no","black","no","Weiter","yes","768","legacy","51","9","0","/Users/aviadalbert/Documents/Academisch/UoC/Dissertation/Experiment/OpenSesame/NAP-FC/NAP_GER_AA_4blocks_noglides/subject-5.csv","xpyriment","Jazzy James","3.1.9","yes","yes","59a800d99ad5a1025d81bb03","59a801616c613b0251691de0","no","no","0","j","f","space","NA","space","space","j","1014","1547","16909","NA","19235","31134","1014","2","legacy","1024","1","44100","-16","experiment","lepal","4","1","0","0","1","english","5","","odd","12833536","12816100","NA","NA","12835084","12833532","NA","12509047","12833067","12509047","12509047","12722456","12741696","13007591","13006087","13008606","12775942","12773123","12816099","NA","12675683","12709403","12814436","12772897","12833536","12773127","NA","13007591","13007591","12893370","12893366","13006083","NAP perception","41","79556","52","yes","1024"
"79.2452830189","yes","79.2452830189","1522.09433962","1522.09433962","white","no","xpyriment","Ich habe die obigen Informationen gelesen und verstanden.","legacy","legacy","0","uniform","1","0","0","undefined","undefined","1","f","2","1","NA","0","1","0","0","0","0","0","0","0","0","62","62","62","0","0","0","NA","0","0","2","0","0","0","2","62","62","62","62","62","Wed Oct  4 17:07:20 2017","Forced-choice identification task with a practice and an experimental phase","yes","NAP_GER_AA_4blocks_noglides.osexp","/Users/aviadalbert/Documents/Academisch/UoC/Dissertation/Experiment/OpenSesame/NAP-FC/NAP_GER_AA_4blocks_noglides","yes","no","sans","no","20","no","black","no","Weiter","yes","768","legacy","52","9","0","/Users/aviadalbert/Documents/Academisch/UoC/Dissertation/Experiment/OpenSesame/NAP-FC/NAP_GER_AA_4blocks_noglides/subject-5.csv","xpyriment","Jazzy James","3.1.9","yes","yes","59a800d99ad5a1025d81bb03","59a801616c613b0251691de0","no","no","0","f","f","space","NA","space","space","f","1115","1547","16909","NA","19235","31134","1115","2","legacy","1024","1","44100","-16","experiment","nval","4","1","0","0","1","english","5","","odd","12833536","12816100","NA","NA","12835084","12833532","NA","12509047","12833067","12509047","12509047","12722456","12741696","13010398","13008894","13011514","12775942","12773123","12816099","NA","12675683","12709403","12814436","12772897","12833536","12773127","NA","13010398","13010398","12893370","12893366","13008890","NAP perception","42","80671","53","yes","1024"
"79.6296296296","yes","79.6296296296","1509.33333333","1509.33333333","white","no","xpyriment","Ich habe die obigen Informationen gelesen und verstanden.","legacy","legacy","0","uniform","1","0","0","undefined","undefined","1","f","2","1","NA","0","1","0","0","0","0","0","0","0","0","63","63","63","0","0","0","NA","0","0","2","0","0","0","2","63","63","63","63","63","Wed Oct  4 17:07:20 2017","Forced-choice identification task with a practice and an experimental phase","yes","NAP_GER_AA_4blocks_noglides.osexp","/Users/aviadalbert/Documents/Academisch/UoC/Dissertation/Experiment/OpenSesame/NAP-FC/NAP_GER_AA_4blocks_noglides","yes","no","sans","no","20","no","black","no","Weiter","yes","768","legacy","53","9","0","/Users/aviadalbert/Documents/Academisch/UoC/Dissertation/Experiment/OpenSesame/NAP-FC/NAP_GER_AA_4blocks_noglides/subject-5.csv","xpyriment","Jazzy James","3.1.9","yes","yes","59a800d99ad5a1025d81bb03","59a801616c613b0251691de0","no","no","0","f","f","space","NA","space","space","f","833","1547","16909","NA","19235","31134","833","2","legacy","1024","1","44100","-16","experiment","fsal","4","1","0","0","1","english","5","","odd","12833536","12816100","NA","NA","12835084","12833532","NA","12509047","12833067","12509047","12509047","12722456","12741696","13013312","13011809","13014147","12775942","12773123","12816099","NA","12675683","12709403","12814436","12772897","12833536","12773127","NA","13013312","13013312","12893370","12893366","13011805","NAP perception","43","81504","54","yes","1024"
