"acc","accept_status","accuracy","average_response_time","avg_rt","background","bidi","canvas_backend","checkbox_status","clock_backend","color_backend","compensation","coordinates","correct","correct_block_activation","correct_block_exit","correct_instructions_1","correct_instructions_2","correct_keyboard_response","correct_response","count_block_activation","count_block_exit","count_block_info_QA","count_cont_e_block_message","count_e_block_loop","count_e_block_sequence","count_end_of_experiment","count_experiment","count_experimental_loop","count_form_consent","count_info_forms","count_instructions_1","count_instructions_2","count_keyboard_response","count_listen_message","count_logger","count_p_block_loop","count_p_block_sequence","count_p_feedback","count_pause_feedback","count_personal_details_form_1","count_personal_details_form_2","count_post_loop_blank","count_practice_loop","count_pre_e_block_message","count_pre_p_block_message","count_reset_feedback","count_stimulus_image","count_stimulus_sound","count_timeout_message","count_timeout_sound","count_trial_sequence","datetime","description","disable_garbage_collection","experiment_file","experiment_path","expyriment_opengl","font_bold","font_family","font_italic","font_size","font_underline","foreground","form_clicks","form_response","fullscreen","height","keyboard_backend","live_row","live_row_p_block_loop","live_row_practice_loop","logfile","mouse_backend","opensesame_codename","opensesame_version","osf_always_upload_data","osf_always_upload_experiment","osf_datanode_id","osf_id","practice","pygame_doublebuf","repeat_cycle","response","response_block_activation","response_block_exit","response_block_info_QA","response_instructions_1","response_instructions_2","response_keyboard_response","response_time","response_time_block_activation","response_time_block_exit","response_time_block_info_QA","response_time_instructions_1","response_time_instructions_2","response_time_keyboard_response","round_decimals","sampler_backend","sound_buf_size","sound_channels","sound_freq","sound_sample_size","start","stimulus","subject_age","subject_education","subject_gender","subject_german_native","subject_handedness","subject_language_other","subject_nr","subject_other_native_lang","subject_parity","time_block_activation","time_block_exit","time_block_info_QA","time_cont_e_block_message","time_e_block_loop","time_e_block_sequence","time_end_of_experiment","time_experiment","time_experimental_loop","time_form_consent","time_info_forms","time_instructions_1","time_instructions_2","time_keyboard_response","time_listen_message","time_logger","time_p_block_loop","time_p_block_sequence","time_p_feedback","time_pause_feedback","time_personal_details_form_1","time_personal_details_form_2","time_post_loop_blank","time_practice_loop","time_pre_e_block_message","time_pre_p_block_message","time_reset_feedback","time_stimulus_image","time_stimulus_sound","time_timeout_message","time_timeout_sound","time_trial_sequence","title","total_correct","total_response_time","total_responses","uniform_coordinates","width"
"100","yes","100","2011","2011","white","no","xpyriment","Ich habe die obigen Informationen gelesen und verstanden.","legacy","legacy","0","uniform","1","0","NA","undefined","undefined","1","f","0","0","NA","NA","NA","NA","NA","0","0","0","0","0","0","0","0","0","0","0","NA","NA","0","0","0","0","NA","0","0","0","0","0","0","0","Wed Oct  4 12:50:09 2017","Forced-choice identification task with a practice and an experimental phase","yes","NAP_GER_AA_4blocks_noglides.osexp","/Users/aviadalbert/Documents/Academisch/UoC/Dissertation/Experiment/OpenSesame/NAP-FC/NAP_GER_AA_4blocks_noglides","yes","no","sans","no","20","no","black","no","Weiter","yes","768","legacy","0","0","0","/Users/aviadalbert/Documents/Academisch/UoC/Dissertation/Experiment/OpenSesame/NAP-FC/NAP_GER_AA_4blocks_noglides/subject-1.csv","xpyriment","Jazzy James","3.1.9","yes","yes","59a800d99ad5a1025d81bb03","59a801616c613b0251691de0","yes","no","0","f","f","NA","NA","right shift","return","f","2011","4651","NA","NA","8320","7122","2011","2","legacy","1024","1","44100","-16","experiment","flal","4","1","2","0","1","englisch,italienisch","1","","odd","3319918","NA","NA","NA","NA","NA","NA","2882185","NA","2882186","2882186","3304177","3312500","3326283","3324777","3328295","3324570","3319914","NA","NA","3219267","3272869","NA","3319690","NA","3319917","NA","3326283","3326283","NA","NA","3324773","NAP perception","1","2011","1","yes","1024"
"100","yes","100","1660.5","1660.5","white","no","xpyriment","Ich habe die obigen Informationen gelesen und verstanden.","legacy","legacy","0","uniform","1","0","NA","undefined","undefined","1","j","0","0","NA","NA","NA","NA","NA","0","0","0","0","0","0","1","1","1","0","0","NA","NA","0","0","0","0","NA","0","0","1","1","1","1","1","Wed Oct  4 12:50:09 2017","Forced-choice identification task with a practice and an experimental phase","yes","NAP_GER_AA_4blocks_noglides.osexp","/Users/aviadalbert/Documents/Academisch/UoC/Dissertation/Experiment/OpenSesame/NAP-FC/NAP_GER_AA_4blocks_noglides","yes","no","sans","no","20","no","black","no","Weiter","yes","768","legacy","1","1","0","/Users/aviadalbert/Documents/Academisch/UoC/Dissertation/Experiment/OpenSesame/NAP-FC/NAP_GER_AA_4blocks_noglides/subject-1.csv","xpyriment","Jazzy James","3.1.9","yes","yes","59a800d99ad5a1025d81bb03","59a801616c613b0251691de0","yes","no","0","j","f","NA","NA","right shift","return","j","1310","4651","NA","NA","8320","7122","1310","2","legacy","1024","1","44100","-16","experiment","lepal","4","1","2","0","1","englisch,italienisch","1","","odd","3319918","NA","NA","NA","NA","NA","NA","2882185","NA","2882186","2882186","3304177","3312500","3330080","3328574","3331391","3324570","3319914","NA","NA","3219267","3272869","NA","3319690","NA","3319917","NA","3330080","3330080","NA","NA","3328570","NAP perception","2","3321","2","yes","1024"
"100","yes","100","1521.66666667","1521.66666667","white","no","xpyriment","Ich habe die obigen Informationen gelesen und verstanden.","legacy","legacy","0","uniform","1","0","NA","undefined","undefined","1","j","0","0","NA","NA","NA","NA","NA","0","0","0","0","0","0","2","2","2","0","0","NA","NA","0","0","0","0","NA","0","0","2","2","2","2","2","Wed Oct  4 12:50:09 2017","Forced-choice identification task with a practice and an experimental phase","yes","NAP_GER_AA_4blocks_noglides.osexp","/Users/aviadalbert/Documents/Academisch/UoC/Dissertation/Experiment/OpenSesame/NAP-FC/NAP_GER_AA_4blocks_noglides","yes","no","sans","no","20","no","black","no","Weiter","yes","768","legacy","2","2","0","/Users/aviadalbert/Documents/Academisch/UoC/Dissertation/Experiment/OpenSesame/NAP-FC/NAP_GER_AA_4blocks_noglides/subject-1.csv","xpyriment","Jazzy James","3.1.9","yes","yes","59a800d99ad5a1025d81bb03","59a801616c613b0251691de0","yes","no","0","j","f","NA","NA","right shift","return","j","1244","4651","NA","NA","8320","7122","1244","2","legacy","1024","1","44100","-16","experiment","emtal","4","1","2","0","1","englisch,italienisch","1","","odd","3319918","NA","NA","NA","NA","NA","NA","2882185","NA","2882186","2882186","3304177","3312500","3333159","3331656","3334404","3324570","3319914","NA","NA","3219267","3272869","NA","3319690","NA","3319917","NA","3333159","3333159","NA","NA","3331652","NAP perception","3","4565","3","yes","1024"
"100","yes","100","1379.75","1379.75","white","no","xpyriment","Ich habe die obigen Informationen gelesen und verstanden.","legacy","legacy","0","uniform","1","0","NA","undefined","undefined","1","f","0","0","NA","NA","NA","NA","NA","0","0","0","0","0","0","3","3","3","0","0","NA","NA","0","0","0","0","NA","0","0","3","3","3","3","3","Wed Oct  4 12:50:09 2017","Forced-choice identification task with a practice and an experimental phase","yes","NAP_GER_AA_4blocks_noglides.osexp","/Users/aviadalbert/Documents/Academisch/UoC/Dissertation/Experiment/OpenSesame/NAP-FC/NAP_GER_AA_4blocks_noglides","yes","no","sans","no","20","no","black","no","Weiter","yes","768","legacy","3","3","0","/Users/aviadalbert/Documents/Academisch/UoC/Dissertation/Experiment/OpenSesame/NAP-FC/NAP_GER_AA_4blocks_noglides/subject-1.csv","xpyriment","Jazzy James","3.1.9","yes","yes","59a800d99ad5a1025d81bb03","59a801616c613b0251691de0","yes","no","0","f","f","NA","NA","right shift","return","f","954","4651","NA","NA","8320","7122","954","2","legacy","1024","1","44100","-16","experiment","ʃpal","4","1","2","0","1","englisch,italienisch","1","","odd","3319918","NA","NA","NA","NA","NA","NA","2882185","NA","2882186","2882186","3304177","3312500","3336198","3334692","3337153","3324570","3319914","NA","NA","3219267","3272869","NA","3319690","NA","3319917","NA","3336198","3336198","NA","NA","3334688","NAP perception","4","5519","4","yes","1024"
"100","yes","100","1272.6","1272.6","white","no","xpyriment","Ich habe die obigen Informationen gelesen und verstanden.","legacy","legacy","0","uniform","1","0","NA","undefined","undefined","1","j","0","0","NA","NA","NA","NA","NA","0","0","0","0","0","0","4","4","4","0","0","NA","NA","0","0","0","0","NA","0","0","4","4","4","4","4","Wed Oct  4 12:50:09 2017","Forced-choice identification task with a practice and an experimental phase","yes","NAP_GER_AA_4blocks_noglides.osexp","/Users/aviadalbert/Documents/Academisch/UoC/Dissertation/Experiment/OpenSesame/NAP-FC/NAP_GER_AA_4blocks_noglides","yes","no","sans","no","20","no","black","no","Weiter","yes","768","legacy","4","4","0","/Users/aviadalbert/Documents/Academisch/UoC/Dissertation/Experiment/OpenSesame/NAP-FC/NAP_GER_AA_4blocks_noglides/subject-1.csv","xpyriment","Jazzy James","3.1.9","yes","yes","59a800d99ad5a1025d81bb03","59a801616c613b0251691de0","yes","no","0","j","f","NA","NA","right shift","return","j","844","4651","NA","NA","8320","7122","844","2","legacy","1024","1","44100","-16","experiment","nefal","4","1","2","0","1","englisch,italienisch","1","","odd","3319918","NA","NA","NA","NA","NA","NA","2882185","NA","2882186","2882186","3304177","3312500","3338929","3337426","3339775","3324570","3319914","NA","NA","3219267","3272869","NA","3319690","NA","3319917","NA","3338929","3338929","NA","NA","3337422","NAP perception","5","6363","5","yes","1024"
"100","yes","100","1190.66666667","1190.66666667","white","no","xpyriment","Ich habe die obigen Informationen gelesen und verstanden.","legacy","legacy","0","uniform","1","0","NA","undefined","undefined","1","f","0","0","NA","NA","NA","NA","NA","0","0","0","0","0","0","5","5","5","0","0","NA","NA","0","0","0","0","NA","0","0","5","5","5","5","5","Wed Oct  4 12:50:09 2017","Forced-choice identification task with a practice and an experimental phase","yes","NAP_GER_AA_4blocks_noglides.osexp","/Users/aviadalbert/Documents/Academisch/UoC/Dissertation/Experiment/OpenSesame/NAP-FC/NAP_GER_AA_4blocks_noglides","yes","no","sans","no","20","no","black","no","Weiter","yes","768","legacy","5","5","0","/Users/aviadalbert/Documents/Academisch/UoC/Dissertation/Experiment/OpenSesame/NAP-FC/NAP_GER_AA_4blocks_noglides/subject-1.csv","xpyriment","Jazzy James","3.1.9","yes","yes","59a800d99ad5a1025d81bb03","59a801616c613b0251691de0","yes","no","0","f","f","NA","NA","right shift","return","f","781","4651","NA","NA","8320","7122","781","2","legacy","1024","1","44100","-16","experiment","sfal","4","1","2","0","1","englisch,italienisch","1","","odd","3319918","NA","NA","NA","NA","NA","NA","2882185","NA","2882186","2882186","3304177","3312500","3341568","3340064","3342351","3324570","3319914","NA","NA","3219267","3272869","NA","3319690","NA","3319917","NA","3341568","3341568","NA","NA","3340060","NAP perception","6","7144","6","yes","1024"
"100","yes","100","1139.71428571","1139.71428571","white","no","xpyriment","Ich habe die obigen Informationen gelesen und verstanden.","legacy","legacy","0","uniform","1","0","NA","undefined","undefined","1","f","0","0","NA","NA","NA","NA","NA","0","0","0","0","0","0","6","6","6","0","0","NA","NA","0","0","0","0","NA","0","0","6","6","6","6","6","Wed Oct  4 12:50:09 2017","Forced-choice identification task with a practice and an experimental phase","yes","NAP_GER_AA_4blocks_noglides.osexp","/Users/aviadalbert/Documents/Academisch/UoC/Dissertation/Experiment/OpenSesame/NAP-FC/NAP_GER_AA_4blocks_noglides","yes","no","sans","no","20","no","black","no","Weiter","yes","768","legacy","6","6","0","/Users/aviadalbert/Documents/Academisch/UoC/Dissertation/Experiment/OpenSesame/NAP-FC/NAP_GER_AA_4blocks_noglides/subject-1.csv","xpyriment","Jazzy James","3.1.9","yes","yes","59a800d99ad5a1025d81bb03","59a801616c613b0251691de0","yes","no","0","f","f","NA","NA","right shift","return","f","834","4651","NA","NA","8320","7122","834","2","legacy","1024","1","44100","-16","experiment","zmal","4","1","2","0","1","englisch,italienisch","1","","odd","3319918","NA","NA","NA","NA","NA","NA","2882185","NA","2882186","2882186","3304177","3312500","3344135","3342631","3344971","3324570","3319914","NA","NA","3219267","3272869","NA","3319690","NA","3319917","NA","3344134","3344134","NA","NA","3342627","NAP perception","7","7978","7","yes","1024"
"100","yes","100","1086.25","1086.25","white","no","xpyriment","Ich habe die obigen Informationen gelesen und verstanden.","legacy","legacy","0","uniform","1","0","NA","undefined","undefined","1","j","0","0","NA","NA","NA","NA","NA","0","0","0","0","0","0","7","7","7","0","0","NA","NA","0","0","0","0","NA","0","0","7","7","7","7","7","Wed Oct  4 12:50:09 2017","Forced-choice identification task with a practice and an experimental phase","yes","NAP_GER_AA_4blocks_noglides.osexp","/Users/aviadalbert/Documents/Academisch/UoC/Dissertation/Experiment/OpenSesame/NAP-FC/NAP_GER_AA_4blocks_noglides","yes","no","sans","no","20","no","black","no","Weiter","yes","768","legacy","7","7","0","/Users/aviadalbert/Documents/Academisch/UoC/Dissertation/Experiment/OpenSesame/NAP-FC/NAP_GER_AA_4blocks_noglides/subject-1.csv","xpyriment","Jazzy James","3.1.9","yes","yes","59a800d99ad5a1025d81bb03","59a801616c613b0251691de0","yes","no","0","j","f","NA","NA","right shift","return","j","712","4651","NA","NA","8320","7122","712","2","legacy","1024","1","44100","-16","experiment","mesal","4","1","2","0","1","englisch,italienisch","1","","odd","3319918","NA","NA","NA","NA","NA","NA","2882185","NA","2882186","2882186","3304177","3312500","3346767","3345261","3347480","3324570","3319914","NA","NA","3219267","3272869","NA","3319690","NA","3319917","NA","3346767","3346767","NA","NA","3345257","NAP perception","8","8690","8","yes","1024"
"100","yes","100","1078.22222222","1078.22222222","white","no","xpyriment","Ich habe die obigen Informationen gelesen und verstanden.","legacy","legacy","0","uniform","1","0","NA","undefined","undefined","1","j","0","0","NA","NA","NA","NA","NA","0","0","0","0","0","0","8","8","8","0","0","NA","NA","0","0","0","0","NA","0","0","8","8","8","8","8","Wed Oct  4 12:50:09 2017","Forced-choice identification task with a practice and an experimental phase","yes","NAP_GER_AA_4blocks_noglides.osexp","/Users/aviadalbert/Documents/Academisch/UoC/Dissertation/Experiment/OpenSesame/NAP-FC/NAP_GER_AA_4blocks_noglides","yes","no","sans","no","20","no","black","no","Weiter","yes","768","legacy","8","8","0","/Users/aviadalbert/Documents/Academisch/UoC/Dissertation/Experiment/OpenSesame/NAP-FC/NAP_GER_AA_4blocks_noglides/subject-1.csv","xpyriment","Jazzy James","3.1.9","yes","yes","59a800d99ad5a1025d81bb03","59a801616c613b0251691de0","yes","no","0","j","f","NA","NA","right shift","return","j","1014","4651","NA","NA","8320","7122","1014","2","legacy","1024","1","44100","-16","experiment","enval","4","1","2","0","1","englisch,italienisch","1","","odd","3319918","NA","NA","NA","NA","NA","NA","2882185","NA","2882186","2882186","3304177","3312500","3349260","3347754","3350275","3324570","3319914","NA","NA","3219267","3272869","NA","3319690","NA","3319917","NA","3349260","3349260","NA","NA","3347750","NAP perception","9","9704","9","yes","1024"
"100","yes","100","1056.4","1056.4","white","no","xpyriment","Ich habe die obigen Informationen gelesen und verstanden.","legacy","legacy","0","uniform","1","0","NA","undefined","undefined","1","f","0","0","NA","NA","NA","NA","NA","0","0","0","0","0","0","9","9","9","0","0","NA","NA","0","0","0","0","NA","0","0","9","9","9","9","9","Wed Oct  4 12:50:09 2017","Forced-choice identification task with a practice and an experimental phase","yes","NAP_GER_AA_4blocks_noglides.osexp","/Users/aviadalbert/Documents/Academisch/UoC/Dissertation/Experiment/OpenSesame/NAP-FC/NAP_GER_AA_4blocks_noglides","yes","no","sans","no","20","no","black","no","Weiter","yes","768","legacy","9","9","0","/Users/aviadalbert/Documents/Academisch/UoC/Dissertation/Experiment/OpenSesame/NAP-FC/NAP_GER_AA_4blocks_noglides/subject-1.csv","xpyriment","Jazzy James","3.1.9","yes","yes","59a800d99ad5a1025d81bb03","59a801616c613b0251691de0","yes","no","0","f","f","NA","NA","right shift","return","f","860","4651","NA","NA","8320","7122","860","2","legacy","1024","1","44100","-16","experiment","vlal","4","1","2","0","1","englisch,italienisch","1","","odd","3319918","NA","NA","NA","NA","NA","NA","2882185","NA","2882186","2882186","3304177","3312500","3352065","3350561","3352926","3324570","3319914","NA","NA","3219267","3272869","NA","3319690","NA","3319917","NA","3352065","3352065","NA","NA","3350557","NAP perception","10","10564","10","yes","1024"
"100","yes","100","879","879","white","no","xpyriment","Ich habe die obigen Informationen gelesen und verstanden.","legacy","legacy","0","uniform","1","0","0","undefined","undefined","1","j","2","1","NA","0","1","0","0","0","0","0","0","0","0","10","10","10","0","0","0","NA","0","0","2","0","0","0","2","10","10","10","10","10","Wed Oct  4 12:50:09 2017","Forced-choice identification task with a practice and an experimental phase","yes","NAP_GER_AA_4blocks_noglides.osexp","/Users/aviadalbert/Documents/Academisch/UoC/Dissertation/Experiment/OpenSesame/NAP-FC/NAP_GER_AA_4blocks_noglides","yes","no","sans","no","20","no","black","no","Weiter","yes","768","legacy","0","9","0","/Users/aviadalbert/Documents/Academisch/UoC/Dissertation/Experiment/OpenSesame/NAP-FC/NAP_GER_AA_4blocks_noglides/subject-1.csv","xpyriment","Jazzy James","3.1.9","yes","yes","59a800d99ad5a1025d81bb03","59a801616c613b0251691de0","no","no","0","j","f","space","NA","right shift","return","j","879","4214","25054","NA","8320","7122","879","2","legacy","1024","1","44100","-16","experiment","ʃefal","4","1","2","0","1","englisch,italienisch","1","","odd","3380239","3354650","NA","NA","3384454","3380236","NA","2882185","3379761","2882186","2882186","3304177","3312500","3386163","3384660","3387043","3324570","3319914","3354650","NA","3219267","3272869","3352990","3319690","3380239","3319917","NA","3386163","3386163","NA","NA","3384656","NAP perception","1","879","1","yes","1024"
"100","yes","100","813.5","813.5","white","no","xpyriment","Ich habe die obigen Informationen gelesen und verstanden.","legacy","legacy","0","uniform","1","0","0","undefined","undefined","1","j","2","1","NA","0","1","0","0","0","0","0","0","0","0","11","11","11","0","0","0","NA","0","0","2","0","0","0","2","11","11","11","11","11","Wed Oct  4 12:50:09 2017","Forced-choice identification task with a practice and an experimental phase","yes","NAP_GER_AA_4blocks_noglides.osexp","/Users/aviadalbert/Documents/Academisch/UoC/Dissertation/Experiment/OpenSesame/NAP-FC/NAP_GER_AA_4blocks_noglides","yes","no","sans","no","20","no","black","no","Weiter","yes","768","legacy","1","9","0","/Users/aviadalbert/Documents/Academisch/UoC/Dissertation/Experiment/OpenSesame/NAP-FC/NAP_GER_AA_4blocks_noglides/subject-1.csv","xpyriment","Jazzy James","3.1.9","yes","yes","59a800d99ad5a1025d81bb03","59a801616c613b0251691de0","no","no","0","j","f","space","NA","right shift","return","j","748","4214","25054","NA","8320","7122","748","2","legacy","1024","1","44100","-16","experiment","emlal","4","1","2","0","1","englisch,italienisch","1","","odd","3380239","3354650","NA","NA","3384454","3380236","NA","2882185","3379761","2882186","2882186","3304177","3312500","3388832","3387327","3389581","3324570","3319914","3354650","NA","3219267","3272869","3352990","3319690","3380239","3319917","NA","3388831","3388831","NA","NA","3387323","NAP perception","2","1627","2","yes","1024"
"100","yes","100","769","769","white","no","xpyriment","Ich habe die obigen Informationen gelesen und verstanden.","legacy","legacy","0","uniform","1","0","0","undefined","undefined","1","f","2","1","NA","0","1","0","0","0","0","0","0","0","0","12","12","12","0","0","0","NA","0","0","2","0","0","0","2","12","12","12","12","12","Wed Oct  4 12:50:09 2017","Forced-choice identification task with a practice and an experimental phase","yes","NAP_GER_AA_4blocks_noglides.osexp","/Users/aviadalbert/Documents/Academisch/UoC/Dissertation/Experiment/OpenSesame/NAP-FC/NAP_GER_AA_4blocks_noglides","yes","no","sans","no","20","no","black","no","Weiter","yes","768","legacy","2","9","0","/Users/aviadalbert/Documents/Academisch/UoC/Dissertation/Experiment/OpenSesame/NAP-FC/NAP_GER_AA_4blocks_noglides/subject-1.csv","xpyriment","Jazzy James","3.1.9","yes","yes","59a800d99ad5a1025d81bb03","59a801616c613b0251691de0","no","no","0","f","f","space","NA","right shift","return","f","680","4214","25054","NA","8320","7122","680","2","legacy","1024","1","44100","-16","experiment","mlal","4","1","2","0","1","englisch,italienisch","1","","odd","3380239","3354650","NA","NA","3384454","3380236","NA","2882185","3379761","2882186","2882186","3304177","3312500","3391382","3389877","3392064","3324570","3319914","3354650","NA","3219267","3272869","3352990","3319690","3380239","3319917","NA","3391382","3391382","NA","NA","3389873","NAP perception","3","2307","3","yes","1024"
"100","yes","100","762.25","762.25","white","no","xpyriment","Ich habe die obigen Informationen gelesen und verstanden.","legacy","legacy","0","uniform","1","0","0","undefined","undefined","1","f","2","1","NA","0","1","0","0","0","0","0","0","0","0","13","13","13","0","0","0","NA","0","0","2","0","0","0","2","13","13","13","13","13","Wed Oct  4 12:50:09 2017","Forced-choice identification task with a practice and an experimental phase","yes","NAP_GER_AA_4blocks_noglides.osexp","/Users/aviadalbert/Documents/Academisch/UoC/Dissertation/Experiment/OpenSesame/NAP-FC/NAP_GER_AA_4blocks_noglides","yes","no","sans","no","20","no","black","no","Weiter","yes","768","legacy","3","9","0","/Users/aviadalbert/Documents/Academisch/UoC/Dissertation/Experiment/OpenSesame/NAP-FC/NAP_GER_AA_4blocks_noglides/subject-1.csv","xpyriment","Jazzy James","3.1.9","yes","yes","59a800d99ad5a1025d81bb03","59a801616c613b0251691de0","no","no","0","f","f","space","NA","right shift","return","f","742","4214","25054","NA","8320","7122","742","2","legacy","1024","1","44100","-16","experiment","spal","4","1","2","0","1","englisch,italienisch","1","","odd","3380239","3354650","NA","NA","3384454","3380236","NA","2882185","3379761","2882186","2882186","3304177","3312500","3393855","3392348","3394598","3324570","3319914","3354650","NA","3219267","3272869","3352990","3319690","3380239","3319917","NA","3393855","3393855","NA","NA","3392344","NAP perception","4","3049","4","yes","1024"
"100","yes","100","751.4","751.4","white","no","xpyriment","Ich habe die obigen Informationen gelesen und verstanden.","legacy","legacy","0","uniform","1","0","0","undefined","undefined","1","f","2","1","NA","0","1","0","0","0","0","0","0","0","0","14","14","14","0","0","0","NA","0","0","2","0","0","0","2","14","14","14","14","14","Wed Oct  4 12:50:09 2017","Forced-choice identification task with a practice and an experimental phase","yes","NAP_GER_AA_4blocks_noglides.osexp","/Users/aviadalbert/Documents/Academisch/UoC/Dissertation/Experiment/OpenSesame/NAP-FC/NAP_GER_AA_4blocks_noglides","yes","no","sans","no","20","no","black","no","Weiter","yes","768","legacy","4","9","0","/Users/aviadalbert/Documents/Academisch/UoC/Dissertation/Experiment/OpenSesame/NAP-FC/NAP_GER_AA_4blocks_noglides/subject-1.csv","xpyriment","Jazzy James","3.1.9","yes","yes","59a800d99ad5a1025d81bb03","59a801616c613b0251691de0","no","no","0","f","f","space","NA","right shift","return","f","708","4214","25054","NA","8320","7122","708","2","legacy","1024","1","44100","-16","experiment","ʃmal","4","1","2","0","1","englisch,italienisch","1","","odd","3380239","3354650","NA","NA","3384454","3380236","NA","2882185","3379761","2882186","2882186","3304177","3312500","3396387","3394884","3397096","3324570","3319914","3354650","NA","3219267","3272869","3352990","3319690","3380239","3319917","NA","3396387","3396387","NA","NA","3394880","NAP perception","5","3757","5","yes","1024"
"100","yes","100","754.333333333","754.333333333","white","no","xpyriment","Ich habe die obigen Informationen gelesen und verstanden.","legacy","legacy","0","uniform","1","0","0","undefined","undefined","1","f","2","1","NA","0","1","0","0","0","0","0","0","0","0","15","15","15","0","0","0","NA","0","0","2","0","0","0","2","15","15","15","15","15","Wed Oct  4 12:50:09 2017","Forced-choice identification task with a practice and an experimental phase","yes","NAP_GER_AA_4blocks_noglides.osexp","/Users/aviadalbert/Documents/Academisch/UoC/Dissertation/Experiment/OpenSesame/NAP-FC/NAP_GER_AA_4blocks_noglides","yes","no","sans","no","20","no","black","no","Weiter","yes","768","legacy","5","9","0","/Users/aviadalbert/Documents/Academisch/UoC/Dissertation/Experiment/OpenSesame/NAP-FC/NAP_GER_AA_4blocks_noglides/subject-1.csv","xpyriment","Jazzy James","3.1.9","yes","yes","59a800d99ad5a1025d81bb03","59a801616c613b0251691de0","no","no","0","f","f","space","NA","right shift","return","f","769","4214","25054","NA","8320","7122","769","2","legacy","1024","1","44100","-16","experiment","sfal","4","1","2","0","1","englisch,italienisch","1","","odd","3380239","3354650","NA","NA","3384454","3380236","NA","2882185","3379761","2882186","2882186","3304177","3312500","3398876","3397373","3399646","3324570","3319914","3354650","NA","3219267","3272869","3352990","3319690","3380239","3319917","NA","3398876","3398876","NA","NA","3397369","NAP perception","6","4526","6","yes","1024"
"100","yes","100","743.285714286","743.285714286","white","no","xpyriment","Ich habe die obigen Informationen gelesen und verstanden.","legacy","legacy","0","uniform","1","0","0","undefined","undefined","1","j","2","1","NA","0","1","0","0","0","0","0","0","0","0","16","16","16","0","0","0","NA","0","0","2","0","0","0","2","16","16","16","16","16","Wed Oct  4 12:50:09 2017","Forced-choice identification task with a practice and an experimental phase","yes","NAP_GER_AA_4blocks_noglides.osexp","/Users/aviadalbert/Documents/Academisch/UoC/Dissertation/Experiment/OpenSesame/NAP-FC/NAP_GER_AA_4blocks_noglides","yes","no","sans","no","20","no","black","no","Weiter","yes","768","legacy","6","9","0","/Users/aviadalbert/Documents/Academisch/UoC/Dissertation/Experiment/OpenSesame/NAP-FC/NAP_GER_AA_4blocks_noglides/subject-1.csv","xpyriment","Jazzy James","3.1.9","yes","yes","59a800d99ad5a1025d81bb03","59a801616c613b0251691de0","no","no","0","j","f","space","NA","right shift","return","j","677","4214","25054","NA","8320","7122","677","2","legacy","1024","1","44100","-16","experiment","elval","4","1","2","0","1","englisch,italienisch","1","","odd","3380239","3354650","NA","NA","3384454","3380236","NA","2882185","3379761","2882186","2882186","3304177","3312500","3401425","3399920","3402104","3324570","3319914","3354650","NA","3219267","3272869","3352990","3319690","3380239","3319917","NA","3401425","3401425","NA","NA","3399916","NAP perception","7","5203","7","yes","1024"
"87.5","yes","87.5","968","968","white","no","xpyriment","Ich habe die obigen Informationen gelesen und verstanden.","legacy","legacy","0","uniform","0","0","0","undefined","undefined","0","f","2","1","NA","0","1","0","0","0","0","0","0","0","0","17","17","17","0","0","0","NA","0","0","2","0","0","0","2","17","17","17","17","17","Wed Oct  4 12:50:09 2017","Forced-choice identification task with a practice and an experimental phase","yes","NAP_GER_AA_4blocks_noglides.osexp","/Users/aviadalbert/Documents/Academisch/UoC/Dissertation/Experiment/OpenSesame/NAP-FC/NAP_GER_AA_4blocks_noglides","yes","no","sans","no","20","no","black","no","Weiter","yes","768","legacy","7","9","0","/Users/aviadalbert/Documents/Academisch/UoC/Dissertation/Experiment/OpenSesame/NAP-FC/NAP_GER_AA_4blocks_noglides/subject-1.csv","xpyriment","Jazzy James","3.1.9","yes","yes","59a800d99ad5a1025d81bb03","59a801616c613b0251691de0","no","no","0","j","f","space","NA","right shift","return","j","2541","4214","25054","NA","8320","7122","2541","2","legacy","1024","1","44100","-16","experiment","mzal","4","1","2","0","1","englisch,italienisch","1","","odd","3380239","3354650","NA","NA","3384454","3380236","NA","2882185","3379761","2882186","2882186","3304177","3312500","3403892","3402387","3406434","3324570","3319914","3354650","NA","3219267","3272869","3352990","3319690","3380239","3319917","NA","3403892","3403892","NA","NA","3402383","NAP perception","7","7744","8","yes","1024"
"77.7777777778","yes","77.7777777778","1021.33333333","1021.33333333","white","no","xpyriment","Ich habe die obigen Informationen gelesen und verstanden.","legacy","legacy","0","uniform","0","0","0","undefined","undefined","0","f","2","1","NA","0","1","0","0","0","0","0","0","0","0","18","18","18","0","0","0","NA","0","0","2","0","0","0","2","18","18","18","18","18","Wed Oct  4 12:50:09 2017","Forced-choice identification task with a practice and an experimental phase","yes","NAP_GER_AA_4blocks_noglides.osexp","/Users/aviadalbert/Documents/Academisch/UoC/Dissertation/Experiment/OpenSesame/NAP-FC/NAP_GER_AA_4blocks_noglides","yes","no","sans","no","20","no","black","no","Weiter","yes","768","legacy","8","9","0","/Users/aviadalbert/Documents/Academisch/UoC/Dissertation/Experiment/OpenSesame/NAP-FC/NAP_GER_AA_4blocks_noglides/subject-1.csv","xpyriment","Jazzy James","3.1.9","yes","yes","59a800d99ad5a1025d81bb03","59a801616c613b0251691de0","no","no","0","j","f","space","NA","right shift","return","j","1448","4214","25054","NA","8320","7122","1448","2","legacy","1024","1","44100","-16","experiment","lfal","4","1","2","0","1","englisch,italienisch","1","","odd","3380239","3354650","NA","NA","3384454","3380236","NA","2882185","3379761","2882186","2882186","3304177","3312500","3408219","3406716","3409668","3324570","3319914","3354650","NA","3219267","3272869","3352990","3319690","3380239","3319917","NA","3408219","3408219","NA","NA","3406712","NAP perception","7","9192","9","yes","1024"
"80","yes","80","1017.8","1017.8","white","no","xpyriment","Ich habe die obigen Informationen gelesen und verstanden.","legacy","legacy","0","uniform","1","0","0","undefined","undefined","1","f","2","1","NA","0","1","0","0","0","0","0","0","0","0","19","19","19","0","0","0","NA","0","0","2","0","0","0","2","19","19","19","19","19","Wed Oct  4 12:50:09 2017","Forced-choice identification task with a practice and an experimental phase","yes","NAP_GER_AA_4blocks_noglides.osexp","/Users/aviadalbert/Documents/Academisch/UoC/Dissertation/Experiment/OpenSesame/NAP-FC/NAP_GER_AA_4blocks_noglides","yes","no","sans","no","20","no","black","no","Weiter","yes","768","legacy","9","9","0","/Users/aviadalbert/Documents/Academisch/UoC/Dissertation/Experiment/OpenSesame/NAP-FC/NAP_GER_AA_4blocks_noglides/subject-1.csv","xpyriment","Jazzy James","3.1.9","yes","yes","59a800d99ad5a1025d81bb03","59a801616c613b0251691de0","no","no","0","f","f","space","NA","right shift","return","f","986","4214","25054","NA","8320","7122","986","2","legacy","1024","1","44100","-16","experiment","fsal","4","1","2","0","1","englisch,italienisch","1","","odd","3380239","3354650","NA","NA","3384454","3380236","NA","2882185","3379761","2882186","2882186","3304177","3312500","3411446","3409940","3412433","3324570","3319914","3354650","NA","3219267","3272869","3352990","3319690","3380239","3319917","NA","3411446","3411446","NA","NA","3409937","NAP perception","8","10178","10","yes","1024"
"81.8181818182","yes","81.8181818182","1010.09090909","1010.09090909","white","no","xpyriment","Ich habe die obigen Informationen gelesen und verstanden.","legacy","legacy","0","uniform","1","0","0","undefined","undefined","1","f","2","1","NA","0","1","0","0","0","0","0","0","0","0","20","20","20","0","0","0","NA","0","0","2","0","0","0","2","20","20","20","20","20","Wed Oct  4 12:50:09 2017","Forced-choice identification task with a practice and an experimental phase","yes","NAP_GER_AA_4blocks_noglides.osexp","/Users/aviadalbert/Documents/Academisch/UoC/Dissertation/Experiment/OpenSesame/NAP-FC/NAP_GER_AA_4blocks_noglides","yes","no","sans","no","20","no","black","no","Weiter","yes","768","legacy","10","9","0","/Users/aviadalbert/Documents/Academisch/UoC/Dissertation/Experiment/OpenSesame/NAP-FC/NAP_GER_AA_4blocks_noglides/subject-1.csv","xpyriment","Jazzy James","3.1.9","yes","yes","59a800d99ad5a1025d81bb03","59a801616c613b0251691de0","no","no","0","f","f","space","NA","right shift","return","f","933","4214","25054","NA","8320","7122","933","2","legacy","1024","1","44100","-16","experiment","smal","4","1","2","0","1","englisch,italienisch","1","","odd","3380239","3354650","NA","NA","3384454","3380236","NA","2882185","3379761","2882186","2882186","3304177","3312500","3414233","3412728","3415167","3324570","3319914","3354650","NA","3219267","3272869","3352990","3319690","3380239","3319917","NA","3414232","3414232","NA","NA","3412725","NAP perception","9","11111","11","yes","1024"
"75","yes","75","989.333333333","989.333333333","white","no","xpyriment","Ich habe die obigen Informationen gelesen und verstanden.","legacy","legacy","0","uniform","0","0","0","undefined","undefined","0","f","2","1","NA","0","1","0","0","0","0","0","0","0","0","21","21","21","0","0","0","NA","0","0","2","0","0","0","2","21","21","21","21","21","Wed Oct  4 12:50:09 2017","Forced-choice identification task with a practice and an experimental phase","yes","NAP_GER_AA_4blocks_noglides.osexp","/Users/aviadalbert/Documents/Academisch/UoC/Dissertation/Experiment/OpenSesame/NAP-FC/NAP_GER_AA_4blocks_noglides","yes","no","sans","no","20","no","black","no","Weiter","yes","768","legacy","11","9","0","/Users/aviadalbert/Documents/Academisch/UoC/Dissertation/Experiment/OpenSesame/NAP-FC/NAP_GER_AA_4blocks_noglides/subject-1.csv","xpyriment","Jazzy James","3.1.9","yes","yes","59a800d99ad5a1025d81bb03","59a801616c613b0251691de0","no","no","0","j","f","space","NA","right shift","return","j","761","4214","25054","NA","8320","7122","761","2","legacy","1024","1","44100","-16","experiment","lpal","4","1","2","0","1","englisch,italienisch","1","","odd","3380239","3354650","NA","NA","3384454","3380236","NA","2882185","3379761","2882186","2882186","3304177","3312500","3416948","3415441","3417710","3324570","3319914","3354650","NA","3219267","3272869","3352990","3319690","3380239","3319917","NA","3416948","3416948","NA","NA","3415437","NAP perception","9","11872","12","yes","1024"
"76.9230769231","yes","76.9230769231","986.692307692","986.692307692","white","no","xpyriment","Ich habe die obigen Informationen gelesen und verstanden.","legacy","legacy","0","uniform","1","0","0","undefined","undefined","1","j","2","1","NA","0","1","0","0","0","0","0","0","0","0","22","22","22","0","0","0","NA","0","0","2","0","0","0","2","22","22","22","22","22","Wed Oct  4 12:50:09 2017","Forced-choice identification task with a practice and an experimental phase","yes","NAP_GER_AA_4blocks_noglides.osexp","/Users/aviadalbert/Documents/Academisch/UoC/Dissertation/Experiment/OpenSesame/NAP-FC/NAP_GER_AA_4blocks_noglides","yes","no","sans","no","20","no","black","no","Weiter","yes","768","legacy","12","9","0","/Users/aviadalbert/Documents/Academisch/UoC/Dissertation/Experiment/OpenSesame/NAP-FC/NAP_GER_AA_4blocks_noglides/subject-1.csv","xpyriment","Jazzy James","3.1.9","yes","yes","59a800d99ad5a1025d81bb03","59a801616c613b0251691de0","no","no","0","j","f","space","NA","right shift","return","j","955","4214","25054","NA","8320","7122","955","2","legacy","1024","1","44100","-16","experiment","eflal","4","1","2","0","1","englisch,italienisch","1","","odd","3380239","3354650","NA","NA","3384454","3380236","NA","2882185","3379761","2882186","2882186","3304177","3312500","3419508","3418003","3420465","3324570","3319914","3354650","NA","3219267","3272869","3352990","3319690","3380239","3319917","NA","3419507","3419507","NA","NA","3418000","NAP perception","10","12827","13","yes","1024"
"71.4285714286","yes","71.4285714286","969.857142857","969.857142857","white","no","xpyriment","Ich habe die obigen Informationen gelesen und verstanden.","legacy","legacy","0","uniform","0","0","0","undefined","undefined","0","f","2","1","NA","0","1","0","0","0","0","0","0","0","0","23","23","23","0","0","0","NA","0","0","2","0","0","0","2","23","23","23","23","23","Wed Oct  4 12:50:09 2017","Forced-choice identification task with a practice and an experimental phase","yes","NAP_GER_AA_4blocks_noglides.osexp","/Users/aviadalbert/Documents/Academisch/UoC/Dissertation/Experiment/OpenSesame/NAP-FC/NAP_GER_AA_4blocks_noglides","yes","no","sans","no","20","no","black","no","Weiter","yes","768","legacy","13","9","0","/Users/aviadalbert/Documents/Academisch/UoC/Dissertation/Experiment/OpenSesame/NAP-FC/NAP_GER_AA_4blocks_noglides/subject-1.csv","xpyriment","Jazzy James","3.1.9","yes","yes","59a800d99ad5a1025d81bb03","59a801616c613b0251691de0","no","no","0","j","f","space","NA","right shift","return","j","751","4214","25054","NA","8320","7122","751","2","legacy","1024","1","44100","-16","experiment","nfal","4","1","2","0","1","englisch,italienisch","1","","odd","3380239","3354650","NA","NA","3384454","3380236","NA","2882185","3379761","2882186","2882186","3304177","3312500","3422235","3420732","3422988","3324570","3319914","3354650","NA","3219267","3272869","3352990","3319690","3380239","3319917","NA","3422235","3422235","NA","NA","3420728","NAP perception","10","13578","14","yes","1024"
"73.3333333333","yes","73.3333333333","946.066666667","946.066666667","white","no","xpyriment","Ich habe die obigen Informationen gelesen und verstanden.","legacy","legacy","0","uniform","1","0","0","undefined","undefined","1","f","2","1","NA","0","1","0","0","0","0","0","0","0","0","24","24","24","0","0","0","NA","0","0","2","0","0","0","2","24","24","24","24","24","Wed Oct  4 12:50:09 2017","Forced-choice identification task with a practice and an experimental phase","yes","NAP_GER_AA_4blocks_noglides.osexp","/Users/aviadalbert/Documents/Academisch/UoC/Dissertation/Experiment/OpenSesame/NAP-FC/NAP_GER_AA_4blocks_noglides","yes","no","sans","no","20","no","black","no","Weiter","yes","768","legacy","14","9","0","/Users/aviadalbert/Documents/Academisch/UoC/Dissertation/Experiment/OpenSesame/NAP-FC/NAP_GER_AA_4blocks_noglides/subject-1.csv","xpyriment","Jazzy James","3.1.9","yes","yes","59a800d99ad5a1025d81bb03","59a801616c613b0251691de0","no","no","0","f","f","space","NA","right shift","return","f","613","4214","25054","NA","8320","7122","613","2","legacy","1024","1","44100","-16","experiment","spal","4","1","2","0","1","englisch,italienisch","1","","odd","3380239","3354650","NA","NA","3384454","3380236","NA","2882185","3379761","2882186","2882186","3304177","3312500","3424755","3423251","3425369","3324570","3319914","3354650","NA","3219267","3272869","3352990","3319690","3380239","3319917","NA","3424755","3424755","NA","NA","3423247","NAP perception","11","14191","15","yes","1024"
"75","yes","75","927.8125","927.8125","white","no","xpyriment","Ich habe die obigen Informationen gelesen und verstanden.","legacy","legacy","0","uniform","1","0","0","undefined","undefined","1","j","2","1","NA","0","1","0","0","0","0","0","0","0","0","25","25","25","0","0","0","NA","0","0","2","0","0","0","2","25","25","25","25","25","Wed Oct  4 12:50:09 2017","Forced-choice identification task with a practice and an experimental phase","yes","NAP_GER_AA_4blocks_noglides.osexp","/Users/aviadalbert/Documents/Academisch/UoC/Dissertation/Experiment/OpenSesame/NAP-FC/NAP_GER_AA_4blocks_noglides","yes","no","sans","no","20","no","black","no","Weiter","yes","768","legacy","15","9","0","/Users/aviadalbert/Documents/Academisch/UoC/Dissertation/Experiment/OpenSesame/NAP-FC/NAP_GER_AA_4blocks_noglides/subject-1.csv","xpyriment","Jazzy James","3.1.9","yes","yes","59a800d99ad5a1025d81bb03","59a801616c613b0251691de0","no","no","0","j","f","space","NA","right shift","return","j","654","4214","25054","NA","8320","7122","654","2","legacy","1024","1","44100","-16","experiment","enval","4","1","2","0","1","englisch,italienisch","1","","odd","3380239","3354650","NA","NA","3384454","3380236","NA","2882185","3379761","2882186","2882186","3304177","3312500","3427159","3425654","3427814","3324570","3319914","3354650","NA","3219267","3272869","3352990","3319690","3380239","3319917","NA","3427158","3427158","NA","NA","3425650","NAP perception","12","14845","16","yes","1024"
"70.5882352941","yes","70.5882352941","913.176470588","913.176470588","white","no","xpyriment","Ich habe die obigen Informationen gelesen und verstanden.","legacy","legacy","0","uniform","0","0","0","undefined","undefined","0","f","2","1","NA","0","1","0","0","0","0","0","0","0","0","26","26","26","0","0","0","NA","0","0","2","0","0","0","2","26","26","26","26","26","Wed Oct  4 12:50:09 2017","Forced-choice identification task with a practice and an experimental phase","yes","NAP_GER_AA_4blocks_noglides.osexp","/Users/aviadalbert/Documents/Academisch/UoC/Dissertation/Experiment/OpenSesame/NAP-FC/NAP_GER_AA_4blocks_noglides","yes","no","sans","no","20","no","black","no","Weiter","yes","768","legacy","16","9","0","/Users/aviadalbert/Documents/Academisch/UoC/Dissertation/Experiment/OpenSesame/NAP-FC/NAP_GER_AA_4blocks_noglides/subject-1.csv","xpyriment","Jazzy James","3.1.9","yes","yes","59a800d99ad5a1025d81bb03","59a801616c613b0251691de0","no","no","0","j","f","space","NA","right shift","return","j","679","4214","25054","NA","8320","7122","679","2","legacy","1024","1","44100","-16","experiment","nmal","4","1","2","0","1","englisch,italienisch","1","","odd","3380239","3354650","NA","NA","3384454","3380236","NA","2882185","3379761","2882186","2882186","3304177","3312500","3429591","3428088","3430271","3324570","3319914","3354650","NA","3219267","3272869","3352990","3319690","3380239","3319917","NA","3429591","3429591","NA","NA","3428084","NAP perception","12","15524","17","yes","1024"
"66.6666666667","yes","66.6666666667","895.611111111","895.611111111","white","no","xpyriment","Ich habe die obigen Informationen gelesen und verstanden.","legacy","legacy","0","uniform","0","0","0","undefined","undefined","0","f","2","1","NA","0","1","0","0","0","0","0","0","0","0","27","27","27","0","0","0","NA","0","0","2","0","0","0","2","27","27","27","27","27","Wed Oct  4 12:50:09 2017","Forced-choice identification task with a practice and an experimental phase","yes","NAP_GER_AA_4blocks_noglides.osexp","/Users/aviadalbert/Documents/Academisch/UoC/Dissertation/Experiment/OpenSesame/NAP-FC/NAP_GER_AA_4blocks_noglides","yes","no","sans","no","20","no","black","no","Weiter","yes","768","legacy","17","9","0","/Users/aviadalbert/Documents/Academisch/UoC/Dissertation/Experiment/OpenSesame/NAP-FC/NAP_GER_AA_4blocks_noglides/subject-1.csv","xpyriment","Jazzy James","3.1.9","yes","yes","59a800d99ad5a1025d81bb03","59a801616c613b0251691de0","no","no","0","j","f","space","NA","right shift","return","j","597","4214","25054","NA","8320","7122","597","2","legacy","1024","1","44100","-16","experiment","nmal","4","1","2","0","1","englisch,italienisch","1","","odd","3380239","3354650","NA","NA","3384454","3380236","NA","2882185","3379761","2882186","2882186","3304177","3312500","3432064","3430559","3432662","3324570","3319914","3354650","NA","3219267","3272869","3352990","3319690","3380239","3319917","NA","3432064","3432064","NA","NA","3430555","NAP perception","12","16121","18","yes","1024"
"68.4210526316","yes","68.4210526316","903.052631579","903.052631579","white","no","xpyriment","Ich habe die obigen Informationen gelesen und verstanden.","legacy","legacy","0","uniform","1","0","0","undefined","undefined","1","j","2","1","NA","0","1","0","0","0","0","0","0","0","0","28","28","28","0","0","0","NA","0","0","2","0","0","0","2","28","28","28","28","28","Wed Oct  4 12:50:09 2017","Forced-choice identification task with a practice and an experimental phase","yes","NAP_GER_AA_4blocks_noglides.osexp","/Users/aviadalbert/Documents/Academisch/UoC/Dissertation/Experiment/OpenSesame/NAP-FC/NAP_GER_AA_4blocks_noglides","yes","no","sans","no","20","no","black","no","Weiter","yes","768","legacy","18","9","0","/Users/aviadalbert/Documents/Academisch/UoC/Dissertation/Experiment/OpenSesame/NAP-FC/NAP_GER_AA_4blocks_noglides/subject-1.csv","xpyriment","Jazzy James","3.1.9","yes","yes","59a800d99ad5a1025d81bb03","59a801616c613b0251691de0","no","no","0","j","f","space","NA","right shift","return","j","1037","4214","25054","NA","8320","7122","1037","2","legacy","1024","1","44100","-16","experiment","nefal","4","1","2","0","1","englisch,italienisch","1","","odd","3380239","3354650","NA","NA","3384454","3380236","NA","2882185","3379761","2882186","2882186","3304177","3312500","3434444","3432939","3435483","3324570","3319914","3354650","NA","3219267","3272869","3352990","3319690","3380239","3319917","NA","3434443","3434443","NA","NA","3432935","NAP perception","13","17158","19","yes","1024"
"70","yes","70","891.95","891.95","white","no","xpyriment","Ich habe die obigen Informationen gelesen und verstanden.","legacy","legacy","0","uniform","1","0","0","undefined","undefined","1","j","2","1","NA","0","1","0","0","0","0","0","0","0","0","29","29","29","0","0","0","NA","0","0","2","0","0","0","2","29","29","29","29","29","Wed Oct  4 12:50:09 2017","Forced-choice identification task with a practice and an experimental phase","yes","NAP_GER_AA_4blocks_noglides.osexp","/Users/aviadalbert/Documents/Academisch/UoC/Dissertation/Experiment/OpenSesame/NAP-FC/NAP_GER_AA_4blocks_noglides","yes","no","sans","no","20","no","black","no","Weiter","yes","768","legacy","19","9","0","/Users/aviadalbert/Documents/Academisch/UoC/Dissertation/Experiment/OpenSesame/NAP-FC/NAP_GER_AA_4blocks_noglides/subject-1.csv","xpyriment","Jazzy James","3.1.9","yes","yes","59a800d99ad5a1025d81bb03","59a801616c613b0251691de0","no","no","0","j","f","space","NA","right shift","return","j","681","4214","25054","NA","8320","7122","681","2","legacy","1024","1","44100","-16","experiment","enfal","4","1","2","0","1","englisch,italienisch","1","","odd","3380239","3354650","NA","NA","3384454","3380236","NA","2882185","3379761","2882186","2882186","3304177","3312500","3437266","3435760","3437948","3324570","3319914","3354650","NA","3219267","3272869","3352990","3319690","3380239","3319917","NA","3437265","3437266","NA","NA","3435756","NAP perception","14","17839","20","yes","1024"
"66.6666666667","yes","66.6666666667","888.285714286","888.285714286","white","no","xpyriment","Ich habe die obigen Informationen gelesen und verstanden.","legacy","legacy","0","uniform","0","0","0","undefined","undefined","0","f","2","1","NA","0","1","0","0","0","0","0","0","0","0","30","30","30","0","0","0","NA","0","0","2","0","0","0","2","30","30","30","30","30","Wed Oct  4 12:50:09 2017","Forced-choice identification task with a practice and an experimental phase","yes","NAP_GER_AA_4blocks_noglides.osexp","/Users/aviadalbert/Documents/Academisch/UoC/Dissertation/Experiment/OpenSesame/NAP-FC/NAP_GER_AA_4blocks_noglides","yes","no","sans","no","20","no","black","no","Weiter","yes","768","legacy","20","9","0","/Users/aviadalbert/Documents/Academisch/UoC/Dissertation/Experiment/OpenSesame/NAP-FC/NAP_GER_AA_4blocks_noglides/subject-1.csv","xpyriment","Jazzy James","3.1.9","yes","yes","59a800d99ad5a1025d81bb03","59a801616c613b0251691de0","no","no","0","j","f","space","NA","right shift","return","j","815","4214","25054","NA","8320","7122","815","2","legacy","1024","1","44100","-16","experiment","lkal","4","1","2","0","1","englisch,italienisch","1","","odd","3380239","3354650","NA","NA","3384454","3380236","NA","2882185","3379761","2882186","2882186","3304177","3312500","3439730","3438227","3440546","3324570","3319914","3354650","NA","3219267","3272869","3352990","3319690","3380239","3319917","NA","3439730","3439730","NA","NA","3438223","NAP perception","14","18654","21","yes","1024"
"68.1818181818","yes","68.1818181818","878.590909091","878.590909091","white","no","xpyriment","Ich habe die obigen Informationen gelesen und verstanden.","legacy","legacy","0","uniform","1","0","0","undefined","undefined","1","j","2","1","NA","0","1","0","0","0","0","0","0","0","0","31","31","31","0","0","0","NA","0","0","2","0","0","0","2","31","31","31","31","31","Wed Oct  4 12:50:09 2017","Forced-choice identification task with a practice and an experimental phase","yes","NAP_GER_AA_4blocks_noglides.osexp","/Users/aviadalbert/Documents/Academisch/UoC/Dissertation/Experiment/OpenSesame/NAP-FC/NAP_GER_AA_4blocks_noglides","yes","no","sans","no","20","no","black","no","Weiter","yes","768","legacy","21","9","0","/Users/aviadalbert/Documents/Academisch/UoC/Dissertation/Experiment/OpenSesame/NAP-FC/NAP_GER_AA_4blocks_noglides/subject-1.csv","xpyriment","Jazzy James","3.1.9","yes","yes","59a800d99ad5a1025d81bb03","59a801616c613b0251691de0","no","no","0","j","f","space","NA","right shift","return","j","675","4214","25054","NA","8320","7122","675","2","legacy","1024","1","44100","-16","experiment","sepal","4","1","2","0","1","englisch,italienisch","1","","odd","3380239","3354650","NA","NA","3384454","3380236","NA","2882185","3379761","2882186","2882186","3304177","3312500","3442317","3440814","3442993","3324570","3319914","3354650","NA","3219267","3272869","3352990","3319690","3380239","3319917","NA","3442317","3442317","NA","NA","3440810","NAP perception","15","19329","22","yes","1024"
"69.5652173913","yes","69.5652173913","871.347826087","871.347826087","white","no","xpyriment","Ich habe die obigen Informationen gelesen und verstanden.","legacy","legacy","0","uniform","1","0","0","undefined","undefined","1","j","2","1","NA","0","1","0","0","0","0","0","0","0","0","32","32","32","0","0","0","NA","0","0","2","0","0","0","2","32","32","32","32","32","Wed Oct  4 12:50:09 2017","Forced-choice identification task with a practice and an experimental phase","yes","NAP_GER_AA_4blocks_noglides.osexp","/Users/aviadalbert/Documents/Academisch/UoC/Dissertation/Experiment/OpenSesame/NAP-FC/NAP_GER_AA_4blocks_noglides","yes","no","sans","no","20","no","black","no","Weiter","yes","768","legacy","22","9","0","/Users/aviadalbert/Documents/Academisch/UoC/Dissertation/Experiment/OpenSesame/NAP-FC/NAP_GER_AA_4blocks_noglides/subject-1.csv","xpyriment","Jazzy James","3.1.9","yes","yes","59a800d99ad5a1025d81bb03","59a801616c613b0251691de0","no","no","0","j","f","space","NA","right shift","return","j","712","4214","25054","NA","8320","7122","712","2","legacy","1024","1","44100","-16","experiment","felal","4","1","2","0","1","englisch,italienisch","1","","odd","3380239","3354650","NA","NA","3384454","3380236","NA","2882185","3379761","2882186","2882186","3304177","3312500","3444766","3443263","3445479","3324570","3319914","3354650","NA","3219267","3272869","3352990","3319690","3380239","3319917","NA","3444766","3444766","NA","NA","3443259","NAP perception","16","20041","23","yes","1024"
"70.8333333333","yes","70.8333333333","864.958333333","864.958333333","white","no","xpyriment","Ich habe die obigen Informationen gelesen und verstanden.","legacy","legacy","0","uniform","1","0","0","undefined","undefined","1","j","2","1","NA","0","1","0","0","0","0","0","0","0","0","33","33","33","0","0","0","NA","0","0","2","0","0","0","2","33","33","33","33","33","Wed Oct  4 12:50:09 2017","Forced-choice identification task with a practice and an experimental phase","yes","NAP_GER_AA_4blocks_noglides.osexp","/Users/aviadalbert/Documents/Academisch/UoC/Dissertation/Experiment/OpenSesame/NAP-FC/NAP_GER_AA_4blocks_noglides","yes","no","sans","no","20","no","black","no","Weiter","yes","768","legacy","23","9","0","/Users/aviadalbert/Documents/Academisch/UoC/Dissertation/Experiment/OpenSesame/NAP-FC/NAP_GER_AA_4blocks_noglides/subject-1.csv","xpyriment","Jazzy James","3.1.9","yes","yes","59a800d99ad5a1025d81bb03","59a801616c613b0251691de0","no","no","0","j","f","space","NA","right shift","return","j","718","4214","25054","NA","8320","7122","718","2","legacy","1024","1","44100","-16","experiment","espal","4","1","2","0","1","englisch,italienisch","1","","odd","3380239","3354650","NA","NA","3384454","3380236","NA","2882185","3379761","2882186","2882186","3304177","3312500","3447251","3445747","3447971","3324570","3319914","3354650","NA","3219267","3272869","3352990","3319690","3380239","3319917","NA","3447250","3447250","NA","NA","3445743","NAP perception","17","20759","24","yes","1024"
"72","yes","72","859.08","859.08","white","no","xpyriment","Ich habe die obigen Informationen gelesen und verstanden.","legacy","legacy","0","uniform","1","0","0","undefined","undefined","1","j","2","1","NA","0","1","0","0","0","0","0","0","0","0","34","34","34","0","0","0","NA","0","0","2","0","0","0","2","34","34","34","34","34","Wed Oct  4 12:50:09 2017","Forced-choice identification task with a practice and an experimental phase","yes","NAP_GER_AA_4blocks_noglides.osexp","/Users/aviadalbert/Documents/Academisch/UoC/Dissertation/Experiment/OpenSesame/NAP-FC/NAP_GER_AA_4blocks_noglides","yes","no","sans","no","20","no","black","no","Weiter","yes","768","legacy","24","9","0","/Users/aviadalbert/Documents/Academisch/UoC/Dissertation/Experiment/OpenSesame/NAP-FC/NAP_GER_AA_4blocks_noglides/subject-1.csv","xpyriment","Jazzy James","3.1.9","yes","yes","59a800d99ad5a1025d81bb03","59a801616c613b0251691de0","no","no","0","j","f","space","NA","right shift","return","j","718","4214","25054","NA","8320","7122","718","2","legacy","1024","1","44100","-16","experiment","fetal","4","1","2","0","1","englisch,italienisch","1","","odd","3380239","3354650","NA","NA","3384454","3380236","NA","2882185","3379761","2882186","2882186","3304177","3312500","3449746","3448239","3450466","3324570","3319914","3354650","NA","3219267","3272869","3352990","3319690","3380239","3319917","NA","3449746","3449746","NA","NA","3448235","NAP perception","18","21477","25","yes","1024"
"73.0769230769","yes","73.0769230769","862.307692308","862.307692308","white","no","xpyriment","Ich habe die obigen Informationen gelesen und verstanden.","legacy","legacy","0","uniform","1","0","0","undefined","undefined","1","f","2","1","NA","0","1","0","0","0","0","0","0","0","0","35","35","35","0","0","0","NA","0","0","2","0","0","0","2","35","35","35","35","35","Wed Oct  4 12:50:09 2017","Forced-choice identification task with a practice and an experimental phase","yes","NAP_GER_AA_4blocks_noglides.osexp","/Users/aviadalbert/Documents/Academisch/UoC/Dissertation/Experiment/OpenSesame/NAP-FC/NAP_GER_AA_4blocks_noglides","yes","no","sans","no","20","no","black","no","Weiter","yes","768","legacy","25","9","0","/Users/aviadalbert/Documents/Academisch/UoC/Dissertation/Experiment/OpenSesame/NAP-FC/NAP_GER_AA_4blocks_noglides/subject-1.csv","xpyriment","Jazzy James","3.1.9","yes","yes","59a800d99ad5a1025d81bb03","59a801616c613b0251691de0","no","no","0","f","f","space","NA","right shift","return","f","943","4214","25054","NA","8320","7122","943","2","legacy","1024","1","44100","-16","experiment","ʃfal","4","1","2","0","1","englisch,italienisch","1","","odd","3380239","3354650","NA","NA","3384454","3380236","NA","2882185","3379761","2882186","2882186","3304177","3312500","3452243","3450737","3453188","3324570","3319914","3354650","NA","3219267","3272869","3352990","3319690","3380239","3319917","NA","3452243","3452243","NA","NA","3450733","NAP perception","19","22420","26","yes","1024"
"74.0740740741","yes","74.0740740741","863.888888889","863.888888889","white","no","xpyriment","Ich habe die obigen Informationen gelesen und verstanden.","legacy","legacy","0","uniform","1","0","0","undefined","undefined","1","j","2","1","NA","0","1","0","0","0","0","0","0","0","0","36","36","36","0","0","0","NA","0","0","2","0","0","0","2","36","36","36","36","36","Wed Oct  4 12:50:09 2017","Forced-choice identification task with a practice and an experimental phase","yes","NAP_GER_AA_4blocks_noglides.osexp","/Users/aviadalbert/Documents/Academisch/UoC/Dissertation/Experiment/OpenSesame/NAP-FC/NAP_GER_AA_4blocks_noglides","yes","no","sans","no","20","no","black","no","Weiter","yes","768","legacy","26","9","0","/Users/aviadalbert/Documents/Academisch/UoC/Dissertation/Experiment/OpenSesame/NAP-FC/NAP_GER_AA_4blocks_noglides/subject-1.csv","xpyriment","Jazzy James","3.1.9","yes","yes","59a800d99ad5a1025d81bb03","59a801616c613b0251691de0","no","no","0","j","f","space","NA","right shift","return","j","905","4214","25054","NA","8320","7122","905","2","legacy","1024","1","44100","-16","experiment","lemal","4","1","2","0","1","englisch,italienisch","1","","odd","3380239","3354650","NA","NA","3384454","3380236","NA","2882185","3379761","2882186","2882186","3304177","3312500","3454987","3453481","3455893","3324570","3319914","3354650","NA","3219267","3272869","3352990","3319690","3380239","3319917","NA","3454987","3454987","NA","NA","3453478","NAP perception","20","23325","27","yes","1024"
"75","yes","75","864.428571429","864.428571429","white","no","xpyriment","Ich habe die obigen Informationen gelesen und verstanden.","legacy","legacy","0","uniform","1","0","0","undefined","undefined","1","f","2","1","NA","0","1","0","0","0","0","0","0","0","0","37","37","37","0","0","0","NA","0","0","2","0","0","0","2","37","37","37","37","37","Wed Oct  4 12:50:09 2017","Forced-choice identification task with a practice and an experimental phase","yes","NAP_GER_AA_4blocks_noglides.osexp","/Users/aviadalbert/Documents/Academisch/UoC/Dissertation/Experiment/OpenSesame/NAP-FC/NAP_GER_AA_4blocks_noglides","yes","no","sans","no","20","no","black","no","Weiter","yes","768","legacy","27","9","0","/Users/aviadalbert/Documents/Academisch/UoC/Dissertation/Experiment/OpenSesame/NAP-FC/NAP_GER_AA_4blocks_noglides/subject-1.csv","xpyriment","Jazzy James","3.1.9","yes","yes","59a800d99ad5a1025d81bb03","59a801616c613b0251691de0","no","no","0","f","f","space","NA","right shift","return","f","879","4214","25054","NA","8320","7122","879","2","legacy","1024","1","44100","-16","experiment","flal","4","1","2","0","1","englisch,italienisch","1","","odd","3380239","3354650","NA","NA","3384454","3380236","NA","2882185","3379761","2882186","2882186","3304177","3312500","3457683","3456180","3458563","3324570","3319914","3354650","NA","3219267","3272869","3352990","3319690","3380239","3319917","NA","3457683","3457683","NA","NA","3456176","NAP perception","21","24204","28","yes","1024"
"72.4137931034","yes","72.4137931034","882.862068966","882.862068966","white","no","xpyriment","Ich habe die obigen Informationen gelesen und verstanden.","legacy","legacy","0","uniform","0","0","0","undefined","undefined","0","f","2","1","NA","0","1","0","0","0","0","0","0","0","0","38","38","38","0","0","0","NA","0","0","2","0","0","0","2","38","38","38","38","38","Wed Oct  4 12:50:09 2017","Forced-choice identification task with a practice and an experimental phase","yes","NAP_GER_AA_4blocks_noglides.osexp","/Users/aviadalbert/Documents/Academisch/UoC/Dissertation/Experiment/OpenSesame/NAP-FC/NAP_GER_AA_4blocks_noglides","yes","no","sans","no","20","no","black","no","Weiter","yes","768","legacy","28","9","0","/Users/aviadalbert/Documents/Academisch/UoC/Dissertation/Experiment/OpenSesame/NAP-FC/NAP_GER_AA_4blocks_noglides/subject-1.csv","xpyriment","Jazzy James","3.1.9","yes","yes","59a800d99ad5a1025d81bb03","59a801616c613b0251691de0","no","no","0","j","f","space","NA","right shift","return","j","1399","4214","25054","NA","8320","7122","1399","2","legacy","1024","1","44100","-16","experiment","mnal","4","1","2","0","1","englisch,italienisch","1","","odd","3380239","3354650","NA","NA","3384454","3380236","NA","2882185","3379761","2882186","2882186","3304177","3312500","3460334","3458828","3461735","3324570","3319914","3354650","NA","3219267","3272869","3352990","3319690","3380239","3319917","NA","3460334","3460334","NA","NA","3458823","NAP perception","21","25603","29","yes","1024"
"73.3333333333","yes","73.3333333333","880.733333333","880.733333333","white","no","xpyriment","Ich habe die obigen Informationen gelesen und verstanden.","legacy","legacy","0","uniform","1","0","0","undefined","undefined","1","j","2","1","NA","0","1","0","0","0","0","0","0","0","0","39","39","39","0","0","0","NA","0","0","2","0","0","0","2","39","39","39","39","39","Wed Oct  4 12:50:09 2017","Forced-choice identification task with a practice and an experimental phase","yes","NAP_GER_AA_4blocks_noglides.osexp","/Users/aviadalbert/Documents/Academisch/UoC/Dissertation/Experiment/OpenSesame/NAP-FC/NAP_GER_AA_4blocks_noglides","yes","no","sans","no","20","no","black","no","Weiter","yes","768","legacy","29","9","0","/Users/aviadalbert/Documents/Academisch/UoC/Dissertation/Experiment/OpenSesame/NAP-FC/NAP_GER_AA_4blocks_noglides/subject-1.csv","xpyriment","Jazzy James","3.1.9","yes","yes","59a800d99ad5a1025d81bb03","59a801616c613b0251691de0","no","no","0","j","f","space","NA","right shift","return","j","819","4214","25054","NA","8320","7122","819","2","legacy","1024","1","44100","-16","experiment","zeval","4","1","2","0","1","englisch,italienisch","1","","odd","3380239","3354650","NA","NA","3384454","3380236","NA","2882185","3379761","2882186","2882186","3304177","3312500","3463516","3462013","3464336","3324570","3319914","3354650","NA","3219267","3272869","3352990","3319690","3380239","3319917","NA","3463516","3463516","NA","NA","3462009","NAP perception","22","26422","30","yes","1024"
"74.1935483871","yes","74.1935483871","871.483870968","871.483870968","white","no","xpyriment","Ich habe die obigen Informationen gelesen und verstanden.","legacy","legacy","0","uniform","1","0","0","undefined","undefined","1","j","2","1","NA","0","1","0","0","0","0","0","0","0","0","40","40","40","0","0","0","NA","0","0","2","0","0","0","2","40","40","40","40","40","Wed Oct  4 12:50:09 2017","Forced-choice identification task with a practice and an experimental phase","yes","NAP_GER_AA_4blocks_noglides.osexp","/Users/aviadalbert/Documents/Academisch/UoC/Dissertation/Experiment/OpenSesame/NAP-FC/NAP_GER_AA_4blocks_noglides","yes","no","sans","no","20","no","black","no","Weiter","yes","768","legacy","30","9","0","/Users/aviadalbert/Documents/Academisch/UoC/Dissertation/Experiment/OpenSesame/NAP-FC/NAP_GER_AA_4blocks_noglides/subject-1.csv","xpyriment","Jazzy James","3.1.9","yes","yes","59a800d99ad5a1025d81bb03","59a801616c613b0251691de0","no","no","0","j","f","space","NA","right shift","return","j","594","4214","25054","NA","8320","7122","594","2","legacy","1024","1","44100","-16","experiment","lefal","4","1","2","0","1","englisch,italienisch","1","","odd","3380239","3354650","NA","NA","3384454","3380236","NA","2882185","3379761","2882186","2882186","3304177","3312500","3466118","3464612","3466713","3324570","3319914","3354650","NA","3219267","3272869","3352990","3319690","3380239","3319917","NA","3466117","3466118","NA","NA","3464608","NAP perception","23","27016","31","yes","1024"
"75","yes","75","864.0625","864.0625","white","no","xpyriment","Ich habe die obigen Informationen gelesen und verstanden.","legacy","legacy","0","uniform","1","0","0","undefined","undefined","1","j","2","1","NA","0","1","0","0","0","0","0","0","0","0","41","41","41","0","0","0","NA","0","0","2","0","0","0","2","41","41","41","41","41","Wed Oct  4 12:50:09 2017","Forced-choice identification task with a practice and an experimental phase","yes","NAP_GER_AA_4blocks_noglides.osexp","/Users/aviadalbert/Documents/Academisch/UoC/Dissertation/Experiment/OpenSesame/NAP-FC/NAP_GER_AA_4blocks_noglides","yes","no","sans","no","20","no","black","no","Weiter","yes","768","legacy","31","9","0","/Users/aviadalbert/Documents/Academisch/UoC/Dissertation/Experiment/OpenSesame/NAP-FC/NAP_GER_AA_4blocks_noglides/subject-1.csv","xpyriment","Jazzy James","3.1.9","yes","yes","59a800d99ad5a1025d81bb03","59a801616c613b0251691de0","no","no","0","j","f","space","NA","right shift","return","j","634","4214","25054","NA","8320","7122","634","2","legacy","1024","1","44100","-16","experiment","ʃemal","4","1","2","0","1","englisch,italienisch","1","","odd","3380239","3354650","NA","NA","3384454","3380236","NA","2882185","3379761","2882186","2882186","3304177","3312500","3468493","3466990","3469128","3324570","3319914","3354650","NA","3219267","3272869","3352990","3319690","3380239","3319917","NA","3468493","3468493","NA","NA","3466986","NAP perception","24","27650","32","yes","1024"
"75.7575757576","yes","75.7575757576","861.545454545","861.545454545","white","no","xpyriment","Ich habe die obigen Informationen gelesen und verstanden.","legacy","legacy","0","uniform","1","0","0","undefined","undefined","1","j","2","1","NA","0","1","0","0","0","0","0","0","0","0","42","42","42","0","0","0","NA","0","0","2","0","0","0","2","42","42","42","42","42","Wed Oct  4 12:50:09 2017","Forced-choice identification task with a practice and an experimental phase","yes","NAP_GER_AA_4blocks_noglides.osexp","/Users/aviadalbert/Documents/Academisch/UoC/Dissertation/Experiment/OpenSesame/NAP-FC/NAP_GER_AA_4blocks_noglides","yes","no","sans","no","20","no","black","no","Weiter","yes","768","legacy","32","9","0","/Users/aviadalbert/Documents/Academisch/UoC/Dissertation/Experiment/OpenSesame/NAP-FC/NAP_GER_AA_4blocks_noglides/subject-1.csv","xpyriment","Jazzy James","3.1.9","yes","yes","59a800d99ad5a1025d81bb03","59a801616c613b0251691de0","no","no","0","j","f","space","NA","right shift","return","j","781","4214","25054","NA","8320","7122","781","2","legacy","1024","1","44100","-16","experiment","velal","4","1","2","0","1","englisch,italienisch","1","","odd","3380239","3354650","NA","NA","3384454","3380236","NA","2882185","3379761","2882186","2882186","3304177","3312500","3470913","3469405","3471695","3324570","3319914","3354650","NA","3219267","3272869","3352990","3319690","3380239","3319917","NA","3470912","3470913","NA","NA","3469401","NAP perception","25","28431","33","yes","1024"
"76.4705882353","yes","76.4705882353","866.235294118","866.235294118","white","no","xpyriment","Ich habe die obigen Informationen gelesen und verstanden.","legacy","legacy","0","uniform","1","0","0","undefined","undefined","1","f","2","1","NA","0","1","0","0","0","0","0","0","0","0","43","43","43","0","0","0","NA","0","0","2","0","0","0","2","43","43","43","43","43","Wed Oct  4 12:50:09 2017","Forced-choice identification task with a practice and an experimental phase","yes","NAP_GER_AA_4blocks_noglides.osexp","/Users/aviadalbert/Documents/Academisch/UoC/Dissertation/Experiment/OpenSesame/NAP-FC/NAP_GER_AA_4blocks_noglides","yes","no","sans","no","20","no","black","no","Weiter","yes","768","legacy","33","9","0","/Users/aviadalbert/Documents/Academisch/UoC/Dissertation/Experiment/OpenSesame/NAP-FC/NAP_GER_AA_4blocks_noglides/subject-1.csv","xpyriment","Jazzy James","3.1.9","yes","yes","59a800d99ad5a1025d81bb03","59a801616c613b0251691de0","no","no","0","f","f","space","NA","right shift","return","f","1021","4214","25054","NA","8320","7122","1021","2","legacy","1024","1","44100","-16","experiment","fsal","4","1","2","0","1","englisch,italienisch","1","","odd","3380239","3354650","NA","NA","3384454","3380236","NA","2882185","3379761","2882186","2882186","3304177","3312500","3473482","3471979","3474504","3324570","3319914","3354650","NA","3219267","3272869","3352990","3319690","3380239","3319917","NA","3473482","3473482","NA","NA","3471975","NAP perception","26","29452","34","yes","1024"
"74.2857142857","yes","74.2857142857","927.2","927.2","white","no","xpyriment","Ich habe die obigen Informationen gelesen und verstanden.","legacy","legacy","0","uniform","0","0","0","undefined","undefined","0","f","2","1","NA","0","1","0","0","0","0","0","0","0","0","44","44","44","0","0","0","NA","0","0","2","0","0","0","2","44","44","44","44","44","Wed Oct  4 12:50:09 2017","Forced-choice identification task with a practice and an experimental phase","yes","NAP_GER_AA_4blocks_noglides.osexp","/Users/aviadalbert/Documents/Academisch/UoC/Dissertation/Experiment/OpenSesame/NAP-FC/NAP_GER_AA_4blocks_noglides","yes","no","sans","no","20","no","black","no","Weiter","yes","768","legacy","34","9","0","/Users/aviadalbert/Documents/Academisch/UoC/Dissertation/Experiment/OpenSesame/NAP-FC/NAP_GER_AA_4blocks_noglides/subject-1.csv","xpyriment","Jazzy James","3.1.9","yes","yes","59a800d99ad5a1025d81bb03","59a801616c613b0251691de0","no","no","0","None","f","space","NA","right shift","return","None","3000","4214","25054","NA","8320","7122","3000","2","legacy","1024","1","44100","-16","experiment","lmal","4","1","2","0","1","englisch,italienisch","1","","odd","3380239","3354650","NA","NA","3384454","3380236","NA","2882185","3379761","2882186","2882186","3304177","3312500","3476287","3474780","3480291","3324570","3319914","3354650","NA","3219267","3272869","3352990","3319690","3380239","3319917","NA","3476287","3476287","3479291","3479288","3474776","NAP perception","26","32452","35","yes","1024"
"72.2222222222","yes","72.2222222222","933.111111111","933.111111111","white","no","xpyriment","Ich habe die obigen Informationen gelesen und verstanden.","legacy","legacy","0","uniform","0","0","0","undefined","undefined","0","f","2","1","NA","0","1","0","0","0","0","0","0","0","0","45","45","45","0","0","0","NA","0","0","2","0","0","0","2","45","45","45","45","45","Wed Oct  4 12:50:09 2017","Forced-choice identification task with a practice and an experimental phase","yes","NAP_GER_AA_4blocks_noglides.osexp","/Users/aviadalbert/Documents/Academisch/UoC/Dissertation/Experiment/OpenSesame/NAP-FC/NAP_GER_AA_4blocks_noglides","yes","no","sans","no","20","no","black","no","Weiter","yes","768","legacy","35","9","0","/Users/aviadalbert/Documents/Academisch/UoC/Dissertation/Experiment/OpenSesame/NAP-FC/NAP_GER_AA_4blocks_noglides/subject-1.csv","xpyriment","Jazzy James","3.1.9","yes","yes","59a800d99ad5a1025d81bb03","59a801616c613b0251691de0","no","no","0","j","f","space","NA","right shift","return","j","1140","4214","25054","NA","8320","7122","1140","2","legacy","1024","1","44100","-16","experiment","lmal","4","1","2","0","1","englisch,italienisch","1","","odd","3380239","3354650","NA","NA","3384454","3380236","NA","2882185","3379761","2882186","2882186","3304177","3312500","3482073","3480570","3483214","3324570","3319914","3354650","NA","3219267","3272869","3352990","3319690","3380239","3319917","NA","3482073","3482073","3479291","3479288","3480565","NAP perception","26","33592","36","yes","1024"
"72.972972973","yes","72.972972973","931.108108108","931.108108108","white","no","xpyriment","Ich habe die obigen Informationen gelesen und verstanden.","legacy","legacy","0","uniform","1","0","0","undefined","undefined","1","j","2","1","NA","0","1","0","0","0","0","0","0","0","0","46","46","46","0","0","0","NA","0","0","2","0","0","0","2","46","46","46","46","46","Wed Oct  4 12:50:09 2017","Forced-choice identification task with a practice and an experimental phase","yes","NAP_GER_AA_4blocks_noglides.osexp","/Users/aviadalbert/Documents/Academisch/UoC/Dissertation/Experiment/OpenSesame/NAP-FC/NAP_GER_AA_4blocks_noglides","yes","no","sans","no","20","no","black","no","Weiter","yes","768","legacy","36","9","0","/Users/aviadalbert/Documents/Academisch/UoC/Dissertation/Experiment/OpenSesame/NAP-FC/NAP_GER_AA_4blocks_noglides/subject-1.csv","xpyriment","Jazzy James","3.1.9","yes","yes","59a800d99ad5a1025d81bb03","59a801616c613b0251691de0","no","no","0","j","f","space","NA","right shift","return","j","859","4214","25054","NA","8320","7122","859","2","legacy","1024","1","44100","-16","experiment","ezmal","4","1","2","0","1","englisch,italienisch","1","","odd","3380239","3354650","NA","NA","3384454","3380236","NA","2882185","3379761","2882186","2882186","3304177","3312500","3484984","3483478","3485845","3324570","3319914","3354650","NA","3219267","3272869","3352990","3319690","3380239","3319917","NA","3484984","3484984","3479291","3479288","3483474","NAP perception","27","34451","37","yes","1024"
"73.6842105263","yes","73.6842105263","927.815789474","927.815789474","white","no","xpyriment","Ich habe die obigen Informationen gelesen und verstanden.","legacy","legacy","0","uniform","1","0","0","undefined","undefined","1","j","2","1","NA","0","1","0","0","0","0","0","0","0","0","47","47","47","0","0","0","NA","0","0","2","0","0","0","2","47","47","47","47","47","Wed Oct  4 12:50:09 2017","Forced-choice identification task with a practice and an experimental phase","yes","NAP_GER_AA_4blocks_noglides.osexp","/Users/aviadalbert/Documents/Academisch/UoC/Dissertation/Experiment/OpenSesame/NAP-FC/NAP_GER_AA_4blocks_noglides","yes","no","sans","no","20","no","black","no","Weiter","yes","768","legacy","37","9","0","/Users/aviadalbert/Documents/Academisch/UoC/Dissertation/Experiment/OpenSesame/NAP-FC/NAP_GER_AA_4blocks_noglides/subject-1.csv","xpyriment","Jazzy James","3.1.9","yes","yes","59a800d99ad5a1025d81bb03","59a801616c613b0251691de0","no","no","0","j","f","space","NA","right shift","return","j","806","4214","25054","NA","8320","7122","806","2","legacy","1024","1","44100","-16","experiment","eftal","4","1","2","0","1","englisch,italienisch","1","","odd","3380239","3354650","NA","NA","3384454","3380236","NA","2882185","3379761","2882186","2882186","3304177","3312500","3487622","3486118","3488430","3324570","3319914","3354650","NA","3219267","3272869","3352990","3319690","3380239","3319917","NA","3487621","3487622","3479291","3479288","3486114","NAP perception","28","35257","38","yes","1024"
"74.358974359","yes","74.358974359","925.307692308","925.307692308","white","no","xpyriment","Ich habe die obigen Informationen gelesen und verstanden.","legacy","legacy","0","uniform","1","0","0","undefined","undefined","1","j","2","1","NA","0","1","0","0","0","0","0","0","0","0","48","48","48","0","0","0","NA","0","0","2","0","0","0","2","48","48","48","48","48","Wed Oct  4 12:50:09 2017","Forced-choice identification task with a practice and an experimental phase","yes","NAP_GER_AA_4blocks_noglides.osexp","/Users/aviadalbert/Documents/Academisch/UoC/Dissertation/Experiment/OpenSesame/NAP-FC/NAP_GER_AA_4blocks_noglides","yes","no","sans","no","20","no","black","no","Weiter","yes","768","legacy","38","9","0","/Users/aviadalbert/Documents/Academisch/UoC/Dissertation/Experiment/OpenSesame/NAP-FC/NAP_GER_AA_4blocks_noglides/subject-1.csv","xpyriment","Jazzy James","3.1.9","yes","yes","59a800d99ad5a1025d81bb03","59a801616c613b0251691de0","no","no","0","j","f","space","NA","right shift","return","j","830","4214","25054","NA","8320","7122","830","2","legacy","1024","1","44100","-16","experiment","emzal","4","1","2","0","1","englisch,italienisch","1","","odd","3380239","3354650","NA","NA","3384454","3380236","NA","2882185","3379761","2882186","2882186","3304177","3312500","3490201","3488697","3491032","3324570","3319914","3354650","NA","3219267","3272869","3352990","3319690","3380239","3319917","NA","3490201","3490201","3479291","3479288","3488693","NAP perception","29","36087","39","yes","1024"
"75","yes","75","917.725","917.725","white","no","xpyriment","Ich habe die obigen Informationen gelesen und verstanden.","legacy","legacy","0","uniform","1","0","0","undefined","undefined","1","j","2","1","NA","0","1","0","0","0","0","0","0","0","0","49","49","49","0","0","0","NA","0","0","2","0","0","0","2","49","49","49","49","49","Wed Oct  4 12:50:09 2017","Forced-choice identification task with a practice and an experimental phase","yes","NAP_GER_AA_4blocks_noglides.osexp","/Users/aviadalbert/Documents/Academisch/UoC/Dissertation/Experiment/OpenSesame/NAP-FC/NAP_GER_AA_4blocks_noglides","yes","no","sans","no","20","no","black","no","Weiter","yes","768","legacy","39","9","0","/Users/aviadalbert/Documents/Academisch/UoC/Dissertation/Experiment/OpenSesame/NAP-FC/NAP_GER_AA_4blocks_noglides/subject-1.csv","xpyriment","Jazzy James","3.1.9","yes","yes","59a800d99ad5a1025d81bb03","59a801616c613b0251691de0","no","no","0","j","f","space","NA","right shift","return","j","622","4214","25054","NA","8320","7122","622","2","legacy","1024","1","44100","-16","experiment","efsal","4","1","2","0","1","englisch,italienisch","1","","odd","3380239","3354650","NA","NA","3384454","3380236","NA","2882185","3379761","2882186","2882186","3304177","3312500","3492809","3491302","3493432","3324570","3319914","3354650","NA","3219267","3272869","3352990","3319690","3380239","3319917","NA","3492809","3492809","3479291","3479288","3491298","NAP perception","30","36709","40","yes","1024"
"75.6097560976","yes","75.6097560976","915.609756098","915.609756098","white","no","xpyriment","Ich habe die obigen Informationen gelesen und verstanden.","legacy","legacy","0","uniform","1","0","0","undefined","undefined","1","j","2","1","NA","0","1","0","0","0","0","0","0","0","0","50","50","50","0","0","0","NA","0","0","2","0","0","0","2","50","50","50","50","50","Wed Oct  4 12:50:09 2017","Forced-choice identification task with a practice and an experimental phase","yes","NAP_GER_AA_4blocks_noglides.osexp","/Users/aviadalbert/Documents/Academisch/UoC/Dissertation/Experiment/OpenSesame/NAP-FC/NAP_GER_AA_4blocks_noglides","yes","no","sans","no","20","no","black","no","Weiter","yes","768","legacy","40","9","0","/Users/aviadalbert/Documents/Academisch/UoC/Dissertation/Experiment/OpenSesame/NAP-FC/NAP_GER_AA_4blocks_noglides/subject-1.csv","xpyriment","Jazzy James","3.1.9","yes","yes","59a800d99ad5a1025d81bb03","59a801616c613b0251691de0","no","no","0","j","f","space","NA","right shift","return","j","831","4214","25054","NA","8320","7122","831","2","legacy","1024","1","44100","-16","experiment","efnal","4","1","2","0","1","englisch,italienisch","1","","odd","3380239","3354650","NA","NA","3384454","3380236","NA","2882185","3379761","2882186","2882186","3304177","3312500","3495216","3493713","3496049","3324570","3319914","3354650","NA","3219267","3272869","3352990","3319690","3380239","3319917","NA","3495216","3495216","3479291","3479288","3493709","NAP perception","31","37540","41","yes","1024"
"76.1904761905","yes","76.1904761905","909.30952381","909.30952381","white","no","xpyriment","Ich habe die obigen Informationen gelesen und verstanden.","legacy","legacy","0","uniform","1","0","0","undefined","undefined","1","j","2","1","NA","0","1","0","0","0","0","0","0","0","0","51","51","51","0","0","0","NA","0","0","2","0","0","0","2","51","51","51","51","51","Wed Oct  4 12:50:09 2017","Forced-choice identification task with a practice and an experimental phase","yes","NAP_GER_AA_4blocks_noglides.osexp","/Users/aviadalbert/Documents/Academisch/UoC/Dissertation/Experiment/OpenSesame/NAP-FC/NAP_GER_AA_4blocks_noglides","yes","no","sans","no","20","no","black","no","Weiter","yes","768","legacy","41","9","0","/Users/aviadalbert/Documents/Academisch/UoC/Dissertation/Experiment/OpenSesame/NAP-FC/NAP_GER_AA_4blocks_noglides/subject-1.csv","xpyriment","Jazzy James","3.1.9","yes","yes","59a800d99ad5a1025d81bb03","59a801616c613b0251691de0","no","no","0","j","f","space","NA","right shift","return","j","651","4214","25054","NA","8320","7122","651","2","legacy","1024","1","44100","-16","experiment","elkal","4","1","2","0","1","englisch,italienisch","1","","odd","3380239","3354650","NA","NA","3384454","3380236","NA","2882185","3379761","2882186","2882186","3304177","3312500","3497839","3496334","3498491","3324570","3319914","3354650","NA","3219267","3272869","3352990","3319690","3380239","3319917","NA","3497839","3497839","3479291","3479288","3496330","NAP perception","32","38191","42","yes","1024"
"76.7441860465","yes","76.7441860465","909.534883721","909.534883721","white","no","xpyriment","Ich habe die obigen Informationen gelesen und verstanden.","legacy","legacy","0","uniform","1","0","0","undefined","undefined","1","j","2","1","NA","0","1","0","0","0","0","0","0","0","0","52","52","52","0","0","0","NA","0","0","2","0","0","0","2","52","52","52","52","52","Wed Oct  4 12:50:09 2017","Forced-choice identification task with a practice and an experimental phase","yes","NAP_GER_AA_4blocks_noglides.osexp","/Users/aviadalbert/Documents/Academisch/UoC/Dissertation/Experiment/OpenSesame/NAP-FC/NAP_GER_AA_4blocks_noglides","yes","no","sans","no","20","no","black","no","Weiter","yes","768","legacy","42","9","0","/Users/aviadalbert/Documents/Academisch/UoC/Dissertation/Experiment/OpenSesame/NAP-FC/NAP_GER_AA_4blocks_noglides/subject-1.csv","xpyriment","Jazzy James","3.1.9","yes","yes","59a800d99ad5a1025d81bb03","59a801616c613b0251691de0","no","no","0","j","f","space","NA","right shift","return","j","919","4214","25054","NA","8320","7122","919","2","legacy","1024","1","44100","-16","experiment","sefal","4","1","2","0","1","englisch,italienisch","1","","odd","3380239","3354650","NA","NA","3384454","3380236","NA","2882185","3379761","2882186","2882186","3304177","3312500","3500273","3498766","3501193","3324570","3319914","3354650","NA","3219267","3272869","3352990","3319690","3380239","3319917","NA","3500273","3500273","3479291","3479288","3498762","NAP perception","33","39110","43","yes","1024"
"77.2727272727","yes","77.2727272727","924.227272727","924.227272727","white","no","xpyriment","Ich habe die obigen Informationen gelesen und verstanden.","legacy","legacy","0","uniform","1","0","0","undefined","undefined","1","f","2","1","NA","0","1","0","0","0","0","0","0","0","0","53","53","53","0","0","0","NA","0","0","2","0","0","0","2","53","53","53","53","53","Wed Oct  4 12:50:09 2017","Forced-choice identification task with a practice and an experimental phase","yes","NAP_GER_AA_4blocks_noglides.osexp","/Users/aviadalbert/Documents/Academisch/UoC/Dissertation/Experiment/OpenSesame/NAP-FC/NAP_GER_AA_4blocks_noglides","yes","no","sans","no","20","no","black","no","Weiter","yes","768","legacy","43","9","0","/Users/aviadalbert/Documents/Academisch/UoC/Dissertation/Experiment/OpenSesame/NAP-FC/NAP_GER_AA_4blocks_noglides/subject-1.csv","xpyriment","Jazzy James","3.1.9","yes","yes","59a800d99ad5a1025d81bb03","59a801616c613b0251691de0","no","no","0","f","f","space","NA","right shift","return","f","1556","4214","25054","NA","8320","7122","1556","2","legacy","1024","1","44100","-16","experiment","nval","4","1","2","0","1","englisch,italienisch","1","","odd","3380239","3354650","NA","NA","3384454","3380236","NA","2882185","3379761","2882186","2882186","3304177","3312500","3502968","3501464","3504525","3324570","3319914","3354650","NA","3219267","3272869","3352990","3319690","3380239","3319917","NA","3502968","3502968","3479291","3479288","3501460","NAP perception","34","40666","44","yes","1024"
"77.7777777778","yes","77.7777777778","918.044444444","918.044444444","white","no","xpyriment","Ich habe die obigen Informationen gelesen und verstanden.","legacy","legacy","0","uniform","1","0","0","undefined","undefined","1","j","2","1","NA","0","1","0","0","0","0","0","0","0","0","54","54","54","0","0","0","NA","0","0","2","0","0","0","2","54","54","54","54","54","Wed Oct  4 12:50:09 2017","Forced-choice identification task with a practice and an experimental phase","yes","NAP_GER_AA_4blocks_noglides.osexp","/Users/aviadalbert/Documents/Academisch/UoC/Dissertation/Experiment/OpenSesame/NAP-FC/NAP_GER_AA_4blocks_noglides","yes","no","sans","no","20","no","black","no","Weiter","yes","768","legacy","44","9","0","/Users/aviadalbert/Documents/Academisch/UoC/Dissertation/Experiment/OpenSesame/NAP-FC/NAP_GER_AA_4blocks_noglides/subject-1.csv","xpyriment","Jazzy James","3.1.9","yes","yes","59a800d99ad5a1025d81bb03","59a801616c613b0251691de0","no","no","0","j","f","space","NA","right shift","return","j","646","4214","25054","NA","8320","7122","646","2","legacy","1024","1","44100","-16","experiment","emtal","4","1","2","0","1","englisch,italienisch","1","","odd","3380239","3354650","NA","NA","3384454","3380236","NA","2882185","3379761","2882186","2882186","3304177","3312500","3506302","3504798","3506950","3324570","3319914","3354650","NA","3219267","3272869","3352990","3319690","3380239","3319917","NA","3506301","3506301","3479291","3479288","3504794","NAP perception","35","41312","45","yes","1024"
"78.2608695652","yes","78.2608695652","918.760869565","918.760869565","white","no","xpyriment","Ich habe die obigen Informationen gelesen und verstanden.","legacy","legacy","0","uniform","1","0","0","undefined","undefined","1","f","2","1","NA","0","1","0","0","0","0","0","0","0","0","55","55","55","0","0","0","NA","0","0","2","0","0","0","2","55","55","55","55","55","Wed Oct  4 12:50:09 2017","Forced-choice identification task with a practice and an experimental phase","yes","NAP_GER_AA_4blocks_noglides.osexp","/Users/aviadalbert/Documents/Academisch/UoC/Dissertation/Experiment/OpenSesame/NAP-FC/NAP_GER_AA_4blocks_noglides","yes","no","sans","no","20","no","black","no","Weiter","yes","768","legacy","45","9","0","/Users/aviadalbert/Documents/Academisch/UoC/Dissertation/Experiment/OpenSesame/NAP-FC/NAP_GER_AA_4blocks_noglides/subject-1.csv","xpyriment","Jazzy James","3.1.9","yes","yes","59a800d99ad5a1025d81bb03","59a801616c613b0251691de0","no","no","0","f","f","space","NA","right shift","return","f","951","4214","25054","NA","8320","7122","951","2","legacy","1024","1","44100","-16","experiment","ʃmal","4","1","2","0","1","englisch,italienisch","1","","odd","3380239","3354650","NA","NA","3384454","3380236","NA","2882185","3379761","2882186","2882186","3304177","3312500","3508716","3507212","3509669","3324570","3319914","3354650","NA","3219267","3272869","3352990","3319690","3380239","3319917","NA","3508716","3508716","3479291","3479288","3507208","NAP perception","36","42263","46","yes","1024"
"78.7234042553","yes","78.7234042553","915.446808511","915.446808511","white","no","xpyriment","Ich habe die obigen Informationen gelesen und verstanden.","legacy","legacy","0","uniform","1","0","0","undefined","undefined","1","j","2","1","NA","0","1","0","0","0","0","0","0","0","0","56","56","56","0","0","0","NA","0","0","2","0","0","0","2","56","56","56","56","56","Wed Oct  4 12:50:09 2017","Forced-choice identification task with a practice and an experimental phase","yes","NAP_GER_AA_4blocks_noglides.osexp","/Users/aviadalbert/Documents/Academisch/UoC/Dissertation/Experiment/OpenSesame/NAP-FC/NAP_GER_AA_4blocks_noglides","yes","no","sans","no","20","no","black","no","Weiter","yes","768","legacy","46","9","0","/Users/aviadalbert/Documents/Academisch/UoC/Dissertation/Experiment/OpenSesame/NAP-FC/NAP_GER_AA_4blocks_noglides/subject-1.csv","xpyriment","Jazzy James","3.1.9","yes","yes","59a800d99ad5a1025d81bb03","59a801616c613b0251691de0","no","no","0","j","f","space","NA","right shift","return","j","763","4214","25054","NA","8320","7122","763","2","legacy","1024","1","44100","-16","experiment","nemal","4","1","2","0","1","englisch,italienisch","1","","odd","3380239","3354650","NA","NA","3384454","3380236","NA","2882185","3379761","2882186","2882186","3304177","3312500","3511450","3509947","3512215","3324570","3319914","3354650","NA","3219267","3272869","3352990","3319690","3380239","3319917","NA","3511450","3511450","3479291","3479288","3509943","NAP perception","37","43026","47","yes","1024"
"79.1666666667","yes","79.1666666667","937.979166667","937.979166667","white","no","xpyriment","Ich habe die obigen Informationen gelesen und verstanden.","legacy","legacy","0","uniform","1","0","0","undefined","undefined","1","f","2","1","NA","0","1","0","0","0","0","0","0","0","0","57","57","57","0","0","0","NA","0","0","2","0","0","0","2","57","57","57","57","57","Wed Oct  4 12:50:09 2017","Forced-choice identification task with a practice and an experimental phase","yes","NAP_GER_AA_4blocks_noglides.osexp","/Users/aviadalbert/Documents/Academisch/UoC/Dissertation/Experiment/OpenSesame/NAP-FC/NAP_GER_AA_4blocks_noglides","yes","no","sans","no","20","no","black","no","Weiter","yes","768","legacy","47","9","0","/Users/aviadalbert/Documents/Academisch/UoC/Dissertation/Experiment/OpenSesame/NAP-FC/NAP_GER_AA_4blocks_noglides/subject-1.csv","xpyriment","Jazzy James","3.1.9","yes","yes","59a800d99ad5a1025d81bb03","59a801616c613b0251691de0","no","no","0","f","f","space","NA","right shift","return","f","1997","4214","25054","NA","8320","7122","1997","2","legacy","1024","1","44100","-16","experiment","fnal","4","1","2","0","1","englisch,italienisch","1","","odd","3380239","3354650","NA","NA","3384454","3380236","NA","2882185","3379761","2882186","2882186","3304177","3312500","3514000","3512495","3515999","3324570","3319914","3354650","NA","3219267","3272869","3352990","3319690","3380239","3319917","NA","3514000","3514000","3479291","3479288","3512491","NAP perception","38","45023","48","yes","1024"
"79.5918367347","yes","79.5918367347","937.591836735","937.591836735","white","no","xpyriment","Ich habe die obigen Informationen gelesen und verstanden.","legacy","legacy","0","uniform","1","0","0","undefined","undefined","1","f","2","1","NA","0","1","0","0","0","0","0","0","0","0","58","58","58","0","0","0","NA","0","0","2","0","0","0","2","58","58","58","58","58","Wed Oct  4 12:50:09 2017","Forced-choice identification task with a practice and an experimental phase","yes","NAP_GER_AA_4blocks_noglides.osexp","/Users/aviadalbert/Documents/Academisch/UoC/Dissertation/Experiment/OpenSesame/NAP-FC/NAP_GER_AA_4blocks_noglides","yes","no","sans","no","20","no","black","no","Weiter","yes","768","legacy","48","9","0","/Users/aviadalbert/Documents/Academisch/UoC/Dissertation/Experiment/OpenSesame/NAP-FC/NAP_GER_AA_4blocks_noglides/subject-1.csv","xpyriment","Jazzy James","3.1.9","yes","yes","59a800d99ad5a1025d81bb03","59a801616c613b0251691de0","no","no","0","f","f","space","NA","right shift","return","f","919","4214","25054","NA","8320","7122","919","2","legacy","1024","1","44100","-16","experiment","ʃpal","4","1","2","0","1","englisch,italienisch","1","","odd","3380239","3354650","NA","NA","3384454","3380236","NA","2882185","3379761","2882186","2882186","3304177","3312500","3517770","3516265","3518691","3324570","3319914","3354650","NA","3219267","3272869","3352990","3319690","3380239","3319917","NA","3517770","3517770","3479291","3479288","3516261","NAP perception","39","45942","49","yes","1024"
"80","yes","80","952.7","952.7","white","no","xpyriment","Ich habe die obigen Informationen gelesen und verstanden.","legacy","legacy","0","uniform","1","0","0","undefined","undefined","1","f","2","1","NA","0","1","0","0","0","0","0","0","0","0","59","59","59","0","0","0","NA","0","0","2","0","0","0","2","59","59","59","59","59","Wed Oct  4 12:50:09 2017","Forced-choice identification task with a practice and an experimental phase","yes","NAP_GER_AA_4blocks_noglides.osexp","/Users/aviadalbert/Documents/Academisch/UoC/Dissertation/Experiment/OpenSesame/NAP-FC/NAP_GER_AA_4blocks_noglides","yes","no","sans","no","20","no","black","no","Weiter","yes","768","legacy","49","9","0","/Users/aviadalbert/Documents/Academisch/UoC/Dissertation/Experiment/OpenSesame/NAP-FC/NAP_GER_AA_4blocks_noglides/subject-1.csv","xpyriment","Jazzy James","3.1.9","yes","yes","59a800d99ad5a1025d81bb03","59a801616c613b0251691de0","no","no","0","f","f","space","NA","right shift","return","f","1693","4214","25054","NA","8320","7122","1693","2","legacy","1024","1","44100","-16","experiment","lval","4","1","2","0","1","englisch,italienisch","1","","odd","3380239","3354650","NA","NA","3384454","3380236","NA","2882185","3379761","2882186","2882186","3304177","3312500","3520479","3518975","3522175","3324570","3319914","3354650","NA","3219267","3272869","3352990","3319690","3380239","3319917","NA","3520478","3520479","3479291","3479288","3518971","NAP perception","40","47635","50","yes","1024"
"80.3921568627","yes","80.3921568627","946.294117647","946.294117647","white","no","xpyriment","Ich habe die obigen Informationen gelesen und verstanden.","legacy","legacy","0","uniform","1","0","0","undefined","undefined","1","j","2","1","NA","0","1","0","0","0","0","0","0","0","0","60","60","60","0","0","0","NA","0","0","2","0","0","0","2","60","60","60","60","60","Wed Oct  4 12:50:09 2017","Forced-choice identification task with a practice and an experimental phase","yes","NAP_GER_AA_4blocks_noglides.osexp","/Users/aviadalbert/Documents/Academisch/UoC/Dissertation/Experiment/OpenSesame/NAP-FC/NAP_GER_AA_4blocks_noglides","yes","no","sans","no","20","no","black","no","Weiter","yes","768","legacy","50","9","0","/Users/aviadalbert/Documents/Academisch/UoC/Dissertation/Experiment/OpenSesame/NAP-FC/NAP_GER_AA_4blocks_noglides/subject-1.csv","xpyriment","Jazzy James","3.1.9","yes","yes","59a800d99ad5a1025d81bb03","59a801616c613b0251691de0","no","no","0","j","f","space","NA","right shift","return","j","626","4214","25054","NA","8320","7122","626","2","legacy","1024","1","44100","-16","experiment","semal","4","1","2","0","1","englisch,italienisch","1","","odd","3380239","3354650","NA","NA","3384454","3380236","NA","2882185","3379761","2882186","2882186","3304177","3312500","3523960","3522456","3524587","3324570","3319914","3354650","NA","3219267","3272869","3352990","3319690","3380239","3319917","NA","3523959","3523960","3479291","3479288","3522452","NAP perception","41","48261","51","yes","1024"
"80.7692307692","yes","80.7692307692","946.596153846","946.596153846","white","no","xpyriment","Ich habe die obigen Informationen gelesen und verstanden.","legacy","legacy","0","uniform","1","0","0","undefined","undefined","1","f","2","1","NA","0","1","0","0","0","0","0","0","0","0","61","61","61","0","0","0","NA","0","0","2","0","0","0","2","61","61","61","61","61","Wed Oct  4 12:50:09 2017","Forced-choice identification task with a practice and an experimental phase","yes","NAP_GER_AA_4blocks_noglides.osexp","/Users/aviadalbert/Documents/Academisch/UoC/Dissertation/Experiment/OpenSesame/NAP-FC/NAP_GER_AA_4blocks_noglides","yes","no","sans","no","20","no","black","no","Weiter","yes","768","legacy","51","9","0","/Users/aviadalbert/Documents/Academisch/UoC/Dissertation/Experiment/OpenSesame/NAP-FC/NAP_GER_AA_4blocks_noglides/subject-1.csv","xpyriment","Jazzy James","3.1.9","yes","yes","59a800d99ad5a1025d81bb03","59a801616c613b0251691de0","no","no","0","f","f","space","NA","right shift","return","f","962","4214","25054","NA","8320","7122","962","2","legacy","1024","1","44100","-16","experiment","smal","4","1","2","0","1","englisch,italienisch","1","","odd","3380239","3354650","NA","NA","3384454","3380236","NA","2882185","3379761","2882186","2882186","3304177","3312500","3526359","3524854","3527322","3324570","3319914","3354650","NA","3219267","3272869","3352990","3319690","3380239","3319917","NA","3526359","3526359","3479291","3479288","3524850","NAP perception","42","49223","52","yes","1024"
"81.1320754717","yes","81.1320754717","946.679245283","946.679245283","white","no","xpyriment","Ich habe die obigen Informationen gelesen und verstanden.","legacy","legacy","0","uniform","1","0","0","undefined","undefined","1","f","2","1","NA","0","1","0","0","0","0","0","0","0","0","62","62","62","0","0","0","NA","0","0","2","0","0","0","2","62","62","62","62","62","Wed Oct  4 12:50:09 2017","Forced-choice identification task with a practice and an experimental phase","yes","NAP_GER_AA_4blocks_noglides.osexp","/Users/aviadalbert/Documents/Academisch/UoC/Dissertation/Experiment/OpenSesame/NAP-FC/NAP_GER_AA_4blocks_noglides","yes","no","sans","no","20","no","black","no","Weiter","yes","768","legacy","52","9","0","/Users/aviadalbert/Documents/Academisch/UoC/Dissertation/Experiment/OpenSesame/NAP-FC/NAP_GER_AA_4blocks_noglides/subject-1.csv","xpyriment","Jazzy James","3.1.9","yes","yes","59a800d99ad5a1025d81bb03","59a801616c613b0251691de0","no","no","0","f","f","space","NA","right shift","return","f","951","4214","25054","NA","8320","7122","951","2","legacy","1024","1","44100","-16","experiment","nval","4","1","2","0","1","englisch,italienisch","1","","odd","3380239","3354650","NA","NA","3384454","3380236","NA","2882185","3379761","2882186","2882186","3304177","3312500","3529092","3527586","3530044","3324570","3319914","3354650","NA","3219267","3272869","3352990","3319690","3380239","3319917","NA","3529092","3529092","3479291","3479288","3527582","NAP perception","43","50174","53","yes","1024"
"81.4814814815","yes","81.4814814815","941.888888889","941.888888889","white","no","xpyriment","Ich habe die obigen Informationen gelesen und verstanden.","legacy","legacy","0","uniform","1","0","0","undefined","undefined","1","f","2","1","NA","0","1","0","0","0","0","0","0","0","0","63","63","63","0","0","0","NA","0","0","2","0","0","0","2","63","63","63","63","63","Wed Oct  4 12:50:09 2017","Forced-choice identification task with a practice and an experimental phase","yes","NAP_GER_AA_4blocks_noglides.osexp","/Users/aviadalbert/Documents/Academisch/UoC/Dissertation/Experiment/OpenSesame/NAP-FC/NAP_GER_AA_4blocks_noglides","yes","no","sans","no","20","no","black","no","Weiter","yes","768","legacy","53","9","0","/Users/aviadalbert/Documents/Academisch/UoC/Dissertation/Experiment/OpenSesame/NAP-FC/NAP_GER_AA_4blocks_noglides/subject-1.csv","xpyriment","Jazzy James","3.1.9","yes","yes","59a800d99ad5a1025d81bb03","59a801616c613b0251691de0","no","no","0","f","f","space","NA","right shift","return","f","688","4214","25054","NA","8320","7122","688","2","legacy","1024","1","44100","-16","experiment","mtal","4","1","2","0","1","englisch,italienisch","1","","odd","3380239","3354650","NA","NA","3384454","3380236","NA","2882185","3379761","2882186","2882186","3304177","3312500","3531827","3530322","3532517","3324570","3319914","3354650","NA","3219267","3272869","3352990","3319690","3380239","3319917","NA","3531827","3531827","3479291","3479288","3530318","NAP perception","44","50862","54","yes","1024"
"81.8181818182","yes","81.8181818182","944.709090909","944.709090909","white","no","xpyriment","Ich habe die obigen Informationen gelesen und verstanden.","legacy","legacy","0","uniform","1","0","0","undefined","undefined","1","j","2","1","NA","0","1","0","0","0","0","0","0","0","0","64","64","64","0","0","0","NA","0","0","2","0","0","0","2","64","64","64","64","64","Wed Oct  4 12:50:09 2017","Forced-choice identification task with a practice and an experimental phase","yes","NAP_GER_AA_4blocks_noglides.osexp","/Users/aviadalbert/Documents/Academisch/UoC/Dissertation/Experiment/OpenSesame/NAP-FC/NAP_GER_AA_4blocks_noglides","yes","no","sans","no","20","no","black","no","Weiter","yes","768","legacy","54","9","0","/Users/aviadalbert/Documents/Academisch/UoC/Dissertation/Experiment/OpenSesame/NAP-FC/NAP_GER_AA_4blocks_noglides/subject-1.csv","xpyriment","Jazzy James","3.1.9","yes","yes","59a800d99ad5a1025d81bb03","59a801616c613b0251691de0","no","no","0","j","f","space","NA","right shift","return","j","1097","4214","25054","NA","8320","7122","1097","2","legacy","1024","1","44100","-16","experiment","elfal","4","1","2","0","1","englisch,italienisch","1","","odd","3380239","3354650","NA","NA","3384454","3380236","NA","2882185","3379761","2882186","2882186","3304177","3312500","3534309","3532805","3535407","3324570","3319914","3354650","NA","3219267","3272869","3352990","3319690","3380239","3319917","NA","3534309","3534309","3479291","3479288","3532801","NAP perception","45","51959","55","yes","1024"
