"acc","accept_status","accuracy","average_response_time","avg_rt","background","bidi","canvas_backend","checkbox_status","clock_backend","color_backend","compensation","coordinates","correct","correct_block_activation","correct_block_exit","correct_instructions_1","correct_instructions_2","correct_keyboard_response","correct_response","count_block_activation","count_block_exit","count_block_info_QA","count_cont_e_block_message","count_e_block_loop","count_e_block_sequence","count_end_of_experiment","count_experiment","count_experimental_loop","count_form_consent","count_info_forms","count_instructions_1","count_instructions_2","count_keyboard_response","count_listen_message","count_logger","count_p_block_loop","count_p_block_sequence","count_p_feedback","count_pause_feedback","count_personal_details_form_1","count_personal_details_form_2","count_post_loop_blank","count_practice_loop","count_pre_e_block_message","count_pre_p_block_message","count_reset_feedback","count_stimulus_image","count_stimulus_sound","count_timeout_message","count_timeout_sound","count_trial_sequence","datetime","description","disable_garbage_collection","experiment_file","experiment_path","expyriment_opengl","font_bold","font_family","font_italic","font_size","font_underline","foreground","form_clicks","form_response","fullscreen","height","keyboard_backend","live_row","live_row_p_block_loop","live_row_practice_loop","logfile","mouse_backend","opensesame_codename","opensesame_version","osf_always_upload_data","osf_always_upload_experiment","osf_datanode_id","osf_id","practice","pygame_doublebuf","repeat_cycle","response","response_block_activation","response_block_exit","response_block_info_QA","response_instructions_1","response_instructions_2","response_keyboard_response","response_time","response_time_block_activation","response_time_block_exit","response_time_block_info_QA","response_time_instructions_1","response_time_instructions_2","response_time_keyboard_response","round_decimals","sampler_backend","sound_buf_size","sound_channels","sound_freq","sound_sample_size","start","stimulus","subject_age","subject_education","subject_gender","subject_german_native","subject_handedness","subject_language_other","subject_nr","subject_other_native_lang","subject_parity","time_block_activation","time_block_exit","time_block_info_QA","time_cont_e_block_message","time_e_block_loop","time_e_block_sequence","time_end_of_experiment","time_experiment","time_experimental_loop","time_form_consent","time_info_forms","time_instructions_1","time_instructions_2","time_keyboard_response","time_listen_message","time_logger","time_p_block_loop","time_p_block_sequence","time_p_feedback","time_pause_feedback","time_personal_details_form_1","time_personal_details_form_2","time_post_loop_blank","time_practice_loop","time_pre_e_block_message","time_pre_p_block_message","time_reset_feedback","time_stimulus_image","time_stimulus_sound","time_timeout_message","time_timeout_sound","time_trial_sequence","title","total_correct","total_response_time","total_responses","uniform_coordinates","width"
"100","yes","100","2015","2015","white","no","xpyriment","Ich habe die obigen Informationen gelesen und verstanden.","legacy","legacy","0","uniform","1","0","NA","undefined","undefined","1","f","0","0","NA","NA","NA","NA","NA","0","0","0","0","0","0","0","0","0","0","0","NA","NA","0","0","0","0","NA","0","0","0","0","0","0","0","Wed Oct  4 21:44:44 2017","Forced-choice identification task with a practice and an experimental phase","yes","NAP_GER_AA_4blocks_noglides.osexp","/Users/aviadalbert/Documents/Academisch/UoC/Dissertation/Experiment/OpenSesame/NAP-FC/NAP_GER_AA_4blocks_noglides","yes","no","sans","no","20","no","black","no","Weiter","yes","768","legacy","0","0","0","/Users/aviadalbert/Documents/Academisch/UoC/Dissertation/Experiment/OpenSesame/NAP-FC/NAP_GER_AA_4blocks_noglides/subject-10.csv","xpyriment","Jazzy James","3.1.9","yes","yes","59a800d99ad5a1025d81bb03","59a801616c613b0251691de0","yes","no","0","f","f","NA","NA","space","n","f","2015","11754","NA","NA","33439","15229","2015","2","legacy","1024","1","44100","-16","experiment","flal","4","1","2","0","1","englsch","10","","even","125019","NA","NA","NA","NA","NA","NA","1617","NA","1618","1618","76058","109501","138512","137004","140528","136774","125014","NA","NA","18905","53472","NA","124796","NA","125018","NA","138512","138512","NA","NA","137000","NAP perception","1","2015","1","yes","1024"
"100","yes","100","1723","1723","white","no","xpyriment","Ich habe die obigen Informationen gelesen und verstanden.","legacy","legacy","0","uniform","1","0","NA","undefined","undefined","1","j","0","0","NA","NA","NA","NA","NA","0","0","0","0","0","0","1","1","1","0","0","NA","NA","0","0","0","0","NA","0","0","1","1","1","1","1","Wed Oct  4 21:44:44 2017","Forced-choice identification task with a practice and an experimental phase","yes","NAP_GER_AA_4blocks_noglides.osexp","/Users/aviadalbert/Documents/Academisch/UoC/Dissertation/Experiment/OpenSesame/NAP-FC/NAP_GER_AA_4blocks_noglides","yes","no","sans","no","20","no","black","no","Weiter","yes","768","legacy","1","1","0","/Users/aviadalbert/Documents/Academisch/UoC/Dissertation/Experiment/OpenSesame/NAP-FC/NAP_GER_AA_4blocks_noglides/subject-10.csv","xpyriment","Jazzy James","3.1.9","yes","yes","59a800d99ad5a1025d81bb03","59a801616c613b0251691de0","yes","no","0","j","f","NA","NA","space","n","j","1431","11754","NA","NA","33439","15229","1431","2","legacy","1024","1","44100","-16","experiment","lepal","4","1","2","0","1","englsch","10","","even","125019","NA","NA","NA","NA","NA","NA","1617","NA","1618","1618","76058","109501","142320","140816","143752","136774","125014","NA","NA","18905","53472","NA","124796","NA","125018","NA","142320","142320","NA","NA","140812","NAP perception","2","3446","2","yes","1024"
"100","yes","100","1507.66666667","1507.66666667","white","no","xpyriment","Ich habe die obigen Informationen gelesen und verstanden.","legacy","legacy","0","uniform","1","0","NA","undefined","undefined","1","j","0","0","NA","NA","NA","NA","NA","0","0","0","0","0","0","2","2","2","0","0","NA","NA","0","0","0","0","NA","0","0","2","2","2","2","2","Wed Oct  4 21:44:44 2017","Forced-choice identification task with a practice and an experimental phase","yes","NAP_GER_AA_4blocks_noglides.osexp","/Users/aviadalbert/Documents/Academisch/UoC/Dissertation/Experiment/OpenSesame/NAP-FC/NAP_GER_AA_4blocks_noglides","yes","no","sans","no","20","no","black","no","Weiter","yes","768","legacy","2","2","0","/Users/aviadalbert/Documents/Academisch/UoC/Dissertation/Experiment/OpenSesame/NAP-FC/NAP_GER_AA_4blocks_noglides/subject-10.csv","xpyriment","Jazzy James","3.1.9","yes","yes","59a800d99ad5a1025d81bb03","59a801616c613b0251691de0","yes","no","0","j","f","NA","NA","space","n","j","1077","11754","NA","NA","33439","15229","1077","2","legacy","1024","1","44100","-16","experiment","emtal","4","1","2","0","1","englsch","10","","even","125019","NA","NA","NA","NA","NA","NA","1617","NA","1618","1618","76058","109501","145531","144027","146609","136774","125014","NA","NA","18905","53472","NA","124796","NA","125018","NA","145531","145531","NA","NA","144023","NAP perception","3","4523","3","yes","1024"
"100","yes","100","1482.25","1482.25","white","no","xpyriment","Ich habe die obigen Informationen gelesen und verstanden.","legacy","legacy","0","uniform","1","0","NA","undefined","undefined","1","f","0","0","NA","NA","NA","NA","NA","0","0","0","0","0","0","3","3","3","0","0","NA","NA","0","0","0","0","NA","0","0","3","3","3","3","3","Wed Oct  4 21:44:44 2017","Forced-choice identification task with a practice and an experimental phase","yes","NAP_GER_AA_4blocks_noglides.osexp","/Users/aviadalbert/Documents/Academisch/UoC/Dissertation/Experiment/OpenSesame/NAP-FC/NAP_GER_AA_4blocks_noglides","yes","no","sans","no","20","no","black","no","Weiter","yes","768","legacy","3","3","0","/Users/aviadalbert/Documents/Academisch/UoC/Dissertation/Experiment/OpenSesame/NAP-FC/NAP_GER_AA_4blocks_noglides/subject-10.csv","xpyriment","Jazzy James","3.1.9","yes","yes","59a800d99ad5a1025d81bb03","59a801616c613b0251691de0","yes","no","0","f","f","NA","NA","space","n","f","1406","11754","NA","NA","33439","15229","1406","2","legacy","1024","1","44100","-16","experiment","ʃpal","4","1","2","0","1","englsch","10","","even","125019","NA","NA","NA","NA","NA","NA","1617","NA","1618","1618","76058","109501","148393","146886","149800","136774","125014","NA","NA","18905","53472","NA","124796","NA","125018","NA","148393","148393","NA","NA","146882","NAP perception","4","5929","4","yes","1024"
"100","yes","100","1424.4","1424.4","white","no","xpyriment","Ich habe die obigen Informationen gelesen und verstanden.","legacy","legacy","0","uniform","1","0","NA","undefined","undefined","1","j","0","0","NA","NA","NA","NA","NA","0","0","0","0","0","0","4","4","4","0","0","NA","NA","0","0","0","0","NA","0","0","4","4","4","4","4","Wed Oct  4 21:44:44 2017","Forced-choice identification task with a practice and an experimental phase","yes","NAP_GER_AA_4blocks_noglides.osexp","/Users/aviadalbert/Documents/Academisch/UoC/Dissertation/Experiment/OpenSesame/NAP-FC/NAP_GER_AA_4blocks_noglides","yes","no","sans","no","20","no","black","no","Weiter","yes","768","legacy","4","4","0","/Users/aviadalbert/Documents/Academisch/UoC/Dissertation/Experiment/OpenSesame/NAP-FC/NAP_GER_AA_4blocks_noglides/subject-10.csv","xpyriment","Jazzy James","3.1.9","yes","yes","59a800d99ad5a1025d81bb03","59a801616c613b0251691de0","yes","no","0","j","f","NA","NA","space","n","j","1193","11754","NA","NA","33439","15229","1193","2","legacy","1024","1","44100","-16","experiment","nefal","4","1","2","0","1","englsch","10","","even","125019","NA","NA","NA","NA","NA","NA","1617","NA","1618","1618","76058","109501","151581","150076","152775","136774","125014","NA","NA","18905","53472","NA","124796","NA","125018","NA","151581","151581","NA","NA","150072","NAP perception","5","7122","5","yes","1024"
"100","yes","100","1416.33333333","1416.33333333","white","no","xpyriment","Ich habe die obigen Informationen gelesen und verstanden.","legacy","legacy","0","uniform","1","0","NA","undefined","undefined","1","f","0","0","NA","NA","NA","NA","NA","0","0","0","0","0","0","5","5","5","0","0","NA","NA","0","0","0","0","NA","0","0","5","5","5","5","5","Wed Oct  4 21:44:44 2017","Forced-choice identification task with a practice and an experimental phase","yes","NAP_GER_AA_4blocks_noglides.osexp","/Users/aviadalbert/Documents/Academisch/UoC/Dissertation/Experiment/OpenSesame/NAP-FC/NAP_GER_AA_4blocks_noglides","yes","no","sans","no","20","no","black","no","Weiter","yes","768","legacy","5","5","0","/Users/aviadalbert/Documents/Academisch/UoC/Dissertation/Experiment/OpenSesame/NAP-FC/NAP_GER_AA_4blocks_noglides/subject-10.csv","xpyriment","Jazzy James","3.1.9","yes","yes","59a800d99ad5a1025d81bb03","59a801616c613b0251691de0","yes","no","0","f","f","NA","NA","space","n","f","1376","11754","NA","NA","33439","15229","1376","2","legacy","1024","1","44100","-16","experiment","sfal","4","1","2","0","1","englsch","10","","even","125019","NA","NA","NA","NA","NA","NA","1617","NA","1618","1618","76058","109501","154561","153055","155938","136774","125014","NA","NA","18905","53472","NA","124796","NA","125018","NA","154560","154560","NA","NA","153051","NAP perception","6","8498","6","yes","1024"
"100","yes","100","1444.14285714","1444.14285714","white","no","xpyriment","Ich habe die obigen Informationen gelesen und verstanden.","legacy","legacy","0","uniform","1","0","NA","undefined","undefined","1","f","0","0","NA","NA","NA","NA","NA","0","0","0","0","0","0","6","6","6","0","0","NA","NA","0","0","0","0","NA","0","0","6","6","6","6","6","Wed Oct  4 21:44:44 2017","Forced-choice identification task with a practice and an experimental phase","yes","NAP_GER_AA_4blocks_noglides.osexp","/Users/aviadalbert/Documents/Academisch/UoC/Dissertation/Experiment/OpenSesame/NAP-FC/NAP_GER_AA_4blocks_noglides","yes","no","sans","no","20","no","black","no","Weiter","yes","768","legacy","6","6","0","/Users/aviadalbert/Documents/Academisch/UoC/Dissertation/Experiment/OpenSesame/NAP-FC/NAP_GER_AA_4blocks_noglides/subject-10.csv","xpyriment","Jazzy James","3.1.9","yes","yes","59a800d99ad5a1025d81bb03","59a801616c613b0251691de0","yes","no","0","f","f","NA","NA","space","n","f","1611","11754","NA","NA","33439","15229","1611","2","legacy","1024","1","44100","-16","experiment","zmal","4","1","2","0","1","englsch","10","","even","125019","NA","NA","NA","NA","NA","NA","1617","NA","1618","1618","76058","109501","157724","156219","159336","136774","125014","NA","NA","18905","53472","NA","124796","NA","125018","NA","157723","157723","NA","NA","156215","NAP perception","7","10109","7","yes","1024"
"100","yes","100","1405","1405","white","no","xpyriment","Ich habe die obigen Informationen gelesen und verstanden.","legacy","legacy","0","uniform","1","0","NA","undefined","undefined","1","j","0","0","NA","NA","NA","NA","NA","0","0","0","0","0","0","7","7","7","0","0","NA","NA","0","0","0","0","NA","0","0","7","7","7","7","7","Wed Oct  4 21:44:44 2017","Forced-choice identification task with a practice and an experimental phase","yes","NAP_GER_AA_4blocks_noglides.osexp","/Users/aviadalbert/Documents/Academisch/UoC/Dissertation/Experiment/OpenSesame/NAP-FC/NAP_GER_AA_4blocks_noglides","yes","no","sans","no","20","no","black","no","Weiter","yes","768","legacy","7","7","0","/Users/aviadalbert/Documents/Academisch/UoC/Dissertation/Experiment/OpenSesame/NAP-FC/NAP_GER_AA_4blocks_noglides/subject-10.csv","xpyriment","Jazzy James","3.1.9","yes","yes","59a800d99ad5a1025d81bb03","59a801616c613b0251691de0","yes","no","0","j","f","NA","NA","space","n","j","1131","11754","NA","NA","33439","15229","1131","2","legacy","1024","1","44100","-16","experiment","mesal","4","1","2","0","1","englsch","10","","even","125019","NA","NA","NA","NA","NA","NA","1617","NA","1618","1618","76058","109501","161123","159619","162255","136774","125014","NA","NA","18905","53472","NA","124796","NA","125018","NA","161122","161122","NA","NA","159614","NAP perception","8","11240","8","yes","1024"
"100","yes","100","1343.66666667","1343.66666667","white","no","xpyriment","Ich habe die obigen Informationen gelesen und verstanden.","legacy","legacy","0","uniform","1","0","NA","undefined","undefined","1","j","0","0","NA","NA","NA","NA","NA","0","0","0","0","0","0","8","8","8","0","0","NA","NA","0","0","0","0","NA","0","0","8","8","8","8","8","Wed Oct  4 21:44:44 2017","Forced-choice identification task with a practice and an experimental phase","yes","NAP_GER_AA_4blocks_noglides.osexp","/Users/aviadalbert/Documents/Academisch/UoC/Dissertation/Experiment/OpenSesame/NAP-FC/NAP_GER_AA_4blocks_noglides","yes","no","sans","no","20","no","black","no","Weiter","yes","768","legacy","8","8","0","/Users/aviadalbert/Documents/Academisch/UoC/Dissertation/Experiment/OpenSesame/NAP-FC/NAP_GER_AA_4blocks_noglides/subject-10.csv","xpyriment","Jazzy James","3.1.9","yes","yes","59a800d99ad5a1025d81bb03","59a801616c613b0251691de0","yes","no","0","j","f","NA","NA","space","n","j","853","11754","NA","NA","33439","15229","853","2","legacy","1024","1","44100","-16","experiment","enval","4","1","2","0","1","englsch","10","","even","125019","NA","NA","NA","NA","NA","NA","1617","NA","1618","1618","76058","109501","164036","162532","164890","136774","125014","NA","NA","18905","53472","NA","124796","NA","125018","NA","164035","164035","NA","NA","162528","NAP perception","9","12093","9","yes","1024"
"100","yes","100","1369.2","1369.2","white","no","xpyriment","Ich habe die obigen Informationen gelesen und verstanden.","legacy","legacy","0","uniform","1","0","NA","undefined","undefined","1","f","0","0","NA","NA","NA","NA","NA","0","0","0","0","0","0","9","9","9","0","0","NA","NA","0","0","0","0","NA","0","0","9","9","9","9","9","Wed Oct  4 21:44:44 2017","Forced-choice identification task with a practice and an experimental phase","yes","NAP_GER_AA_4blocks_noglides.osexp","/Users/aviadalbert/Documents/Academisch/UoC/Dissertation/Experiment/OpenSesame/NAP-FC/NAP_GER_AA_4blocks_noglides","yes","no","sans","no","20","no","black","no","Weiter","yes","768","legacy","9","9","0","/Users/aviadalbert/Documents/Academisch/UoC/Dissertation/Experiment/OpenSesame/NAP-FC/NAP_GER_AA_4blocks_noglides/subject-10.csv","xpyriment","Jazzy James","3.1.9","yes","yes","59a800d99ad5a1025d81bb03","59a801616c613b0251691de0","yes","no","0","f","f","NA","NA","space","n","f","1599","11754","NA","NA","33439","15229","1599","2","legacy","1024","1","44100","-16","experiment","vlal","4","1","2","0","1","englsch","10","","even","125019","NA","NA","NA","NA","NA","NA","1617","NA","1618","1618","76058","109501","166678","165173","168278","136774","125014","NA","NA","18905","53472","NA","124796","NA","125018","NA","166678","166678","NA","NA","165168","NAP perception","10","13692","10","yes","1024"
"100","yes","100","1389","1389","white","no","xpyriment","Ich habe die obigen Informationen gelesen und verstanden.","legacy","legacy","0","uniform","1","0","0","undefined","undefined","1","f","2","1","NA","0","1","0","0","0","0","0","0","0","0","10","10","10","0","0","0","NA","0","0","2","0","0","0","2","10","10","10","10","10","Wed Oct  4 21:44:44 2017","Forced-choice identification task with a practice and an experimental phase","yes","NAP_GER_AA_4blocks_noglides.osexp","/Users/aviadalbert/Documents/Academisch/UoC/Dissertation/Experiment/OpenSesame/NAP-FC/NAP_GER_AA_4blocks_noglides","yes","no","sans","no","20","no","black","no","Weiter","yes","768","legacy","0","9","0","/Users/aviadalbert/Documents/Academisch/UoC/Dissertation/Experiment/OpenSesame/NAP-FC/NAP_GER_AA_4blocks_noglides/subject-10.csv","xpyriment","Jazzy James","3.1.9","yes","yes","59a800d99ad5a1025d81bb03","59a801616c613b0251691de0","no","no","0","f","f","space","NA","space","n","f","1389","2899","45250","NA","33439","15229","1389","2","legacy","1024","1","44100","-16","experiment","zmal","4","1","2","0","1","englsch","10","","even","215762","170000","NA","NA","218662","215758","NA","1617","215305","1618","1618","76058","109501","220379","218871","221769","136774","125014","170000","NA","18905","53472","168338","124796","215762","125018","NA","220378","220378","NA","NA","218868","NAP perception","1","1389","1","yes","1024"
"50","yes","50","1143.5","1143.5","white","no","xpyriment","Ich habe die obigen Informationen gelesen und verstanden.","legacy","legacy","0","uniform","0","0","0","undefined","undefined","0","f","2","1","NA","0","1","0","0","0","0","0","0","0","0","11","11","11","0","0","0","NA","0","0","2","0","0","0","2","11","11","11","11","11","Wed Oct  4 21:44:44 2017","Forced-choice identification task with a practice and an experimental phase","yes","NAP_GER_AA_4blocks_noglides.osexp","/Users/aviadalbert/Documents/Academisch/UoC/Dissertation/Experiment/OpenSesame/NAP-FC/NAP_GER_AA_4blocks_noglides","yes","no","sans","no","20","no","black","no","Weiter","yes","768","legacy","1","9","0","/Users/aviadalbert/Documents/Academisch/UoC/Dissertation/Experiment/OpenSesame/NAP-FC/NAP_GER_AA_4blocks_noglides/subject-10.csv","xpyriment","Jazzy James","3.1.9","yes","yes","59a800d99ad5a1025d81bb03","59a801616c613b0251691de0","no","no","0","j","f","space","NA","space","n","j","898","2899","45250","NA","33439","15229","898","2","legacy","1024","1","44100","-16","experiment","lfal","4","1","2","0","1","englsch","10","","even","215762","170000","NA","NA","218662","215758","NA","1617","215305","1618","1618","76058","109501","223553","222049","224452","136774","125014","170000","NA","18905","53472","168338","124796","215762","125018","NA","223553","223553","NA","NA","222045","NAP perception","1","2287","2","yes","1024"
"33.3333333333","yes","33.3333333333","1041","1041","white","no","xpyriment","Ich habe die obigen Informationen gelesen und verstanden.","legacy","legacy","0","uniform","0","0","0","undefined","undefined","0","f","2","1","NA","0","1","0","0","0","0","0","0","0","0","12","12","12","0","0","0","NA","0","0","2","0","0","0","2","12","12","12","12","12","Wed Oct  4 21:44:44 2017","Forced-choice identification task with a practice and an experimental phase","yes","NAP_GER_AA_4blocks_noglides.osexp","/Users/aviadalbert/Documents/Academisch/UoC/Dissertation/Experiment/OpenSesame/NAP-FC/NAP_GER_AA_4blocks_noglides","yes","no","sans","no","20","no","black","no","Weiter","yes","768","legacy","2","9","0","/Users/aviadalbert/Documents/Academisch/UoC/Dissertation/Experiment/OpenSesame/NAP-FC/NAP_GER_AA_4blocks_noglides/subject-10.csv","xpyriment","Jazzy James","3.1.9","yes","yes","59a800d99ad5a1025d81bb03","59a801616c613b0251691de0","no","no","0","j","f","space","NA","space","n","j","836","2899","45250","NA","33439","15229","836","2","legacy","1024","1","44100","-16","experiment","mtal","4","1","2","0","1","englsch","10","","even","215762","170000","NA","NA","218662","215758","NA","1617","215305","1618","1618","76058","109501","226247","224743","227084","136774","125014","170000","NA","18905","53472","168338","124796","215762","125018","NA","226246","226246","NA","NA","224739","NAP perception","1","3123","3","yes","1024"
"50","yes","50","962.5","962.5","white","no","xpyriment","Ich habe die obigen Informationen gelesen und verstanden.","legacy","legacy","0","uniform","1","0","0","undefined","undefined","1","j","2","1","NA","0","1","0","0","0","0","0","0","0","0","13","13","13","0","0","0","NA","0","0","2","0","0","0","2","13","13","13","13","13","Wed Oct  4 21:44:44 2017","Forced-choice identification task with a practice and an experimental phase","yes","NAP_GER_AA_4blocks_noglides.osexp","/Users/aviadalbert/Documents/Academisch/UoC/Dissertation/Experiment/OpenSesame/NAP-FC/NAP_GER_AA_4blocks_noglides","yes","no","sans","no","20","no","black","no","Weiter","yes","768","legacy","3","9","0","/Users/aviadalbert/Documents/Academisch/UoC/Dissertation/Experiment/OpenSesame/NAP-FC/NAP_GER_AA_4blocks_noglides/subject-10.csv","xpyriment","Jazzy James","3.1.9","yes","yes","59a800d99ad5a1025d81bb03","59a801616c613b0251691de0","no","no","0","j","f","space","NA","space","n","j","727","2899","45250","NA","33439","15229","727","2","legacy","1024","1","44100","-16","experiment","eftal","4","1","2","0","1","englsch","10","","even","215762","170000","NA","NA","218662","215758","NA","1617","215305","1618","1618","76058","109501","228877","227370","229605","136774","125014","170000","NA","18905","53472","168338","124796","215762","125018","NA","228876","228876","NA","NA","227366","NAP perception","2","3850","4","yes","1024"
"60","yes","60","906.6","906.6","white","no","xpyriment","Ich habe die obigen Informationen gelesen und verstanden.","legacy","legacy","0","uniform","1","0","0","undefined","undefined","1","j","2","1","NA","0","1","0","0","0","0","0","0","0","0","14","14","14","0","0","0","NA","0","0","2","0","0","0","2","14","14","14","14","14","Wed Oct  4 21:44:44 2017","Forced-choice identification task with a practice and an experimental phase","yes","NAP_GER_AA_4blocks_noglides.osexp","/Users/aviadalbert/Documents/Academisch/UoC/Dissertation/Experiment/OpenSesame/NAP-FC/NAP_GER_AA_4blocks_noglides","yes","no","sans","no","20","no","black","no","Weiter","yes","768","legacy","4","9","0","/Users/aviadalbert/Documents/Academisch/UoC/Dissertation/Experiment/OpenSesame/NAP-FC/NAP_GER_AA_4blocks_noglides/subject-10.csv","xpyriment","Jazzy James","3.1.9","yes","yes","59a800d99ad5a1025d81bb03","59a801616c613b0251691de0","no","no","0","j","f","space","NA","space","n","j","683","2899","45250","NA","33439","15229","683","2","legacy","1024","1","44100","-16","experiment","zemal","4","1","2","0","1","englsch","10","","even","215762","170000","NA","NA","218662","215758","NA","1617","215305","1618","1618","76058","109501","231398","229891","232082","136774","125014","170000","NA","18905","53472","168338","124796","215762","125018","NA","231397","231397","NA","NA","229887","NAP perception","3","4533","5","yes","1024"
"66.6666666667","yes","66.6666666667","874.5","874.5","white","no","xpyriment","Ich habe die obigen Informationen gelesen und verstanden.","legacy","legacy","0","uniform","1","0","0","undefined","undefined","1","j","2","1","NA","0","1","0","0","0","0","0","0","0","0","15","15","15","0","0","0","NA","0","0","2","0","0","0","2","15","15","15","15","15","Wed Oct  4 21:44:44 2017","Forced-choice identification task with a practice and an experimental phase","yes","NAP_GER_AA_4blocks_noglides.osexp","/Users/aviadalbert/Documents/Academisch/UoC/Dissertation/Experiment/OpenSesame/NAP-FC/NAP_GER_AA_4blocks_noglides","yes","no","sans","no","20","no","black","no","Weiter","yes","768","legacy","5","9","0","/Users/aviadalbert/Documents/Academisch/UoC/Dissertation/Experiment/OpenSesame/NAP-FC/NAP_GER_AA_4blocks_noglides/subject-10.csv","xpyriment","Jazzy James","3.1.9","yes","yes","59a800d99ad5a1025d81bb03","59a801616c613b0251691de0","no","no","0","j","f","space","NA","space","n","j","714","2899","45250","NA","33439","15229","714","2","legacy","1024","1","44100","-16","experiment","emlal","4","1","2","0","1","englsch","10","","even","215762","170000","NA","NA","218662","215758","NA","1617","215305","1618","1618","76058","109501","233863","232358","234579","136774","125014","170000","NA","18905","53472","168338","124796","215762","125018","NA","233863","233863","NA","NA","232354","NAP perception","4","5247","6","yes","1024"
"71.4285714286","yes","71.4285714286","837.142857143","837.142857143","white","no","xpyriment","Ich habe die obigen Informationen gelesen und verstanden.","legacy","legacy","0","uniform","1","0","0","undefined","undefined","1","j","2","1","NA","0","1","0","0","0","0","0","0","0","0","16","16","16","0","0","0","NA","0","0","2","0","0","0","2","16","16","16","16","16","Wed Oct  4 21:44:44 2017","Forced-choice identification task with a practice and an experimental phase","yes","NAP_GER_AA_4blocks_noglides.osexp","/Users/aviadalbert/Documents/Academisch/UoC/Dissertation/Experiment/OpenSesame/NAP-FC/NAP_GER_AA_4blocks_noglides","yes","no","sans","no","20","no","black","no","Weiter","yes","768","legacy","6","9","0","/Users/aviadalbert/Documents/Academisch/UoC/Dissertation/Experiment/OpenSesame/NAP-FC/NAP_GER_AA_4blocks_noglides/subject-10.csv","xpyriment","Jazzy James","3.1.9","yes","yes","59a800d99ad5a1025d81bb03","59a801616c613b0251691de0","no","no","0","j","f","space","NA","space","n","j","613","2899","45250","NA","33439","15229","613","2","legacy","1024","1","44100","-16","experiment","esmal","4","1","2","0","1","englsch","10","","even","215762","170000","NA","NA","218662","215758","NA","1617","215305","1618","1618","76058","109501","236366","234859","236980","136774","125014","170000","NA","18905","53472","168338","124796","215762","125018","NA","236365","236365","NA","NA","234855","NAP perception","5","5860","7","yes","1024"
"62.5","yes","62.5","837.375","837.375","white","no","xpyriment","Ich habe die obigen Informationen gelesen und verstanden.","legacy","legacy","0","uniform","0","0","0","undefined","undefined","0","f","2","1","NA","0","1","0","0","0","0","0","0","0","0","17","17","17","0","0","0","NA","0","0","2","0","0","0","2","17","17","17","17","17","Wed Oct  4 21:44:44 2017","Forced-choice identification task with a practice and an experimental phase","yes","NAP_GER_AA_4blocks_noglides.osexp","/Users/aviadalbert/Documents/Academisch/UoC/Dissertation/Experiment/OpenSesame/NAP-FC/NAP_GER_AA_4blocks_noglides","yes","no","sans","no","20","no","black","no","Weiter","yes","768","legacy","7","9","0","/Users/aviadalbert/Documents/Academisch/UoC/Dissertation/Experiment/OpenSesame/NAP-FC/NAP_GER_AA_4blocks_noglides/subject-10.csv","xpyriment","Jazzy James","3.1.9","yes","yes","59a800d99ad5a1025d81bb03","59a801616c613b0251691de0","no","no","0","j","f","space","NA","space","n","j","839","2899","45250","NA","33439","15229","839","2","legacy","1024","1","44100","-16","experiment","lpal","4","1","2","0","1","englsch","10","","even","215762","170000","NA","NA","218662","215758","NA","1617","215305","1618","1618","76058","109501","238759","237254","239599","136774","125014","170000","NA","18905","53472","168338","124796","215762","125018","NA","238758","238758","NA","NA","237250","NAP perception","5","6699","8","yes","1024"
"66.6666666667","yes","66.6666666667","910","910","white","no","xpyriment","Ich habe die obigen Informationen gelesen und verstanden.","legacy","legacy","0","uniform","1","0","0","undefined","undefined","1","f","2","1","NA","0","1","0","0","0","0","0","0","0","0","18","18","18","0","0","0","NA","0","0","2","0","0","0","2","18","18","18","18","18","Wed Oct  4 21:44:44 2017","Forced-choice identification task with a practice and an experimental phase","yes","NAP_GER_AA_4blocks_noglides.osexp","/Users/aviadalbert/Documents/Academisch/UoC/Dissertation/Experiment/OpenSesame/NAP-FC/NAP_GER_AA_4blocks_noglides","yes","no","sans","no","20","no","black","no","Weiter","yes","768","legacy","8","9","0","/Users/aviadalbert/Documents/Academisch/UoC/Dissertation/Experiment/OpenSesame/NAP-FC/NAP_GER_AA_4blocks_noglides/subject-10.csv","xpyriment","Jazzy James","3.1.9","yes","yes","59a800d99ad5a1025d81bb03","59a801616c613b0251691de0","no","no","0","f","f","space","NA","space","n","f","1491","2899","45250","NA","33439","15229","1491","2","legacy","1024","1","44100","-16","experiment","fnal","4","1","2","0","1","englsch","10","","even","215762","170000","NA","NA","218662","215758","NA","1617","215305","1618","1618","76058","109501","241388","239883","242880","136774","125014","170000","NA","18905","53472","168338","124796","215762","125018","NA","241387","241387","NA","NA","239879","NAP perception","6","8190","9","yes","1024"
"70","yes","70","926.9","926.9","white","no","xpyriment","Ich habe die obigen Informationen gelesen und verstanden.","legacy","legacy","0","uniform","1","0","0","undefined","undefined","1","j","2","1","NA","0","1","0","0","0","0","0","0","0","0","19","19","19","0","0","0","NA","0","0","2","0","0","0","2","19","19","19","19","19","Wed Oct  4 21:44:44 2017","Forced-choice identification task with a practice and an experimental phase","yes","NAP_GER_AA_4blocks_noglides.osexp","/Users/aviadalbert/Documents/Academisch/UoC/Dissertation/Experiment/OpenSesame/NAP-FC/NAP_GER_AA_4blocks_noglides","yes","no","sans","no","20","no","black","no","Weiter","yes","768","legacy","9","9","0","/Users/aviadalbert/Documents/Academisch/UoC/Dissertation/Experiment/OpenSesame/NAP-FC/NAP_GER_AA_4blocks_noglides/subject-10.csv","xpyriment","Jazzy James","3.1.9","yes","yes","59a800d99ad5a1025d81bb03","59a801616c613b0251691de0","no","no","0","j","f","space","NA","space","n","j","1079","2899","45250","NA","33439","15229","1079","2","legacy","1024","1","44100","-16","experiment","fesal","4","1","2","0","1","englsch","10","","even","215762","170000","NA","NA","218662","215758","NA","1617","215305","1618","1618","76058","109501","244662","243155","245742","136774","125014","170000","NA","18905","53472","168338","124796","215762","125018","NA","244662","244662","NA","NA","243151","NAP perception","7","9269","10","yes","1024"
"63.6363636364","yes","63.6363636364","938.090909091","938.090909091","white","no","xpyriment","Ich habe die obigen Informationen gelesen und verstanden.","legacy","legacy","0","uniform","0","0","0","undefined","undefined","0","f","2","1","NA","0","1","0","0","0","0","0","0","0","0","20","20","20","0","0","0","NA","0","0","2","0","0","0","2","20","20","20","20","20","Wed Oct  4 21:44:44 2017","Forced-choice identification task with a practice and an experimental phase","yes","NAP_GER_AA_4blocks_noglides.osexp","/Users/aviadalbert/Documents/Academisch/UoC/Dissertation/Experiment/OpenSesame/NAP-FC/NAP_GER_AA_4blocks_noglides","yes","no","sans","no","20","no","black","no","Weiter","yes","768","legacy","10","9","0","/Users/aviadalbert/Documents/Academisch/UoC/Dissertation/Experiment/OpenSesame/NAP-FC/NAP_GER_AA_4blocks_noglides/subject-10.csv","xpyriment","Jazzy James","3.1.9","yes","yes","59a800d99ad5a1025d81bb03","59a801616c613b0251691de0","no","no","0","j","f","space","NA","space","n","j","1050","2899","45250","NA","33439","15229","1050","2","legacy","1024","1","44100","-16","experiment","nmal","4","1","2","0","1","englsch","10","","even","215762","170000","NA","NA","218662","215758","NA","1617","215305","1618","1618","76058","109501","247537","246032","248588","136774","125014","170000","NA","18905","53472","168338","124796","215762","125018","NA","247537","247537","NA","NA","246028","NAP perception","7","10319","11","yes","1024"
"66.6666666667","yes","66.6666666667","937.666666667","937.666666667","white","no","xpyriment","Ich habe die obigen Informationen gelesen und verstanden.","legacy","legacy","0","uniform","1","0","0","undefined","undefined","1","f","2","1","NA","0","1","0","0","0","0","0","0","0","0","21","21","21","0","0","0","NA","0","0","2","0","0","0","2","21","21","21","21","21","Wed Oct  4 21:44:44 2017","Forced-choice identification task with a practice and an experimental phase","yes","NAP_GER_AA_4blocks_noglides.osexp","/Users/aviadalbert/Documents/Academisch/UoC/Dissertation/Experiment/OpenSesame/NAP-FC/NAP_GER_AA_4blocks_noglides","yes","no","sans","no","20","no","black","no","Weiter","yes","768","legacy","11","9","0","/Users/aviadalbert/Documents/Academisch/UoC/Dissertation/Experiment/OpenSesame/NAP-FC/NAP_GER_AA_4blocks_noglides/subject-10.csv","xpyriment","Jazzy James","3.1.9","yes","yes","59a800d99ad5a1025d81bb03","59a801616c613b0251691de0","no","no","0","f","f","space","NA","space","n","f","933","2899","45250","NA","33439","15229","933","2","legacy","1024","1","44100","-16","experiment","smal","4","1","2","0","1","englsch","10","","even","215762","170000","NA","NA","218662","215758","NA","1617","215305","1618","1618","76058","109501","250381","248876","251315","136774","125014","170000","NA","18905","53472","168338","124796","215762","125018","NA","250380","250380","NA","NA","248872","NAP perception","8","11252","12","yes","1024"
"69.2307692308","yes","69.2307692308","965.461538462","965.461538462","white","no","xpyriment","Ich habe die obigen Informationen gelesen und verstanden.","legacy","legacy","0","uniform","1","0","0","undefined","undefined","1","j","2","1","NA","0","1","0","0","0","0","0","0","0","0","22","22","22","0","0","0","NA","0","0","2","0","0","0","2","22","22","22","22","22","Wed Oct  4 21:44:44 2017","Forced-choice identification task with a practice and an experimental phase","yes","NAP_GER_AA_4blocks_noglides.osexp","/Users/aviadalbert/Documents/Academisch/UoC/Dissertation/Experiment/OpenSesame/NAP-FC/NAP_GER_AA_4blocks_noglides","yes","no","sans","no","20","no","black","no","Weiter","yes","768","legacy","12","9","0","/Users/aviadalbert/Documents/Academisch/UoC/Dissertation/Experiment/OpenSesame/NAP-FC/NAP_GER_AA_4blocks_noglides/subject-10.csv","xpyriment","Jazzy James","3.1.9","yes","yes","59a800d99ad5a1025d81bb03","59a801616c613b0251691de0","no","no","0","j","f","space","NA","space","n","j","1299","2899","45250","NA","33439","15229","1299","2","legacy","1024","1","44100","-16","experiment","elmal","4","1","2","0","1","englsch","10","","even","215762","170000","NA","NA","218662","215758","NA","1617","215305","1618","1618","76058","109501","253091","251587","254391","136774","125014","170000","NA","18905","53472","168338","124796","215762","125018","NA","253091","253091","NA","NA","251583","NAP perception","9","12551","13","yes","1024"
"71.4285714286","yes","71.4285714286","970.357142857","970.357142857","white","no","xpyriment","Ich habe die obigen Informationen gelesen und verstanden.","legacy","legacy","0","uniform","1","0","0","undefined","undefined","1","j","2","1","NA","0","1","0","0","0","0","0","0","0","0","23","23","23","0","0","0","NA","0","0","2","0","0","0","2","23","23","23","23","23","Wed Oct  4 21:44:44 2017","Forced-choice identification task with a practice and an experimental phase","yes","NAP_GER_AA_4blocks_noglides.osexp","/Users/aviadalbert/Documents/Academisch/UoC/Dissertation/Experiment/OpenSesame/NAP-FC/NAP_GER_AA_4blocks_noglides","yes","no","sans","no","20","no","black","no","Weiter","yes","768","legacy","13","9","0","/Users/aviadalbert/Documents/Academisch/UoC/Dissertation/Experiment/OpenSesame/NAP-FC/NAP_GER_AA_4blocks_noglides/subject-10.csv","xpyriment","Jazzy James","3.1.9","yes","yes","59a800d99ad5a1025d81bb03","59a801616c613b0251691de0","no","no","0","j","f","space","NA","space","n","j","1034","2899","45250","NA","33439","15229","1034","2","legacy","1024","1","44100","-16","experiment","neval","4","1","2","0","1","englsch","10","","even","215762","170000","NA","NA","218662","215758","NA","1617","215305","1618","1618","76058","109501","256172","254665","257207","136774","125014","170000","NA","18905","53472","168338","124796","215762","125018","NA","256172","256172","NA","NA","254661","NAP perception","10","13585","14","yes","1024"
"73.3333333333","yes","73.3333333333","946","946","white","no","xpyriment","Ich habe die obigen Informationen gelesen und verstanden.","legacy","legacy","0","uniform","1","0","0","undefined","undefined","1","f","2","1","NA","0","1","0","0","0","0","0","0","0","0","24","24","24","0","0","0","NA","0","0","2","0","0","0","2","24","24","24","24","24","Wed Oct  4 21:44:44 2017","Forced-choice identification task with a practice and an experimental phase","yes","NAP_GER_AA_4blocks_noglides.osexp","/Users/aviadalbert/Documents/Academisch/UoC/Dissertation/Experiment/OpenSesame/NAP-FC/NAP_GER_AA_4blocks_noglides","yes","no","sans","no","20","no","black","no","Weiter","yes","768","legacy","14","9","0","/Users/aviadalbert/Documents/Academisch/UoC/Dissertation/Experiment/OpenSesame/NAP-FC/NAP_GER_AA_4blocks_noglides/subject-10.csv","xpyriment","Jazzy James","3.1.9","yes","yes","59a800d99ad5a1025d81bb03","59a801616c613b0251691de0","no","no","0","f","f","space","NA","space","n","f","605","2899","45250","NA","33439","15229","605","2","legacy","1024","1","44100","-16","experiment","ʃmal","4","1","2","0","1","englsch","10","","even","215762","170000","NA","NA","218662","215758","NA","1617","215305","1618","1618","76058","109501","258977","257473","259583","136774","125014","170000","NA","18905","53472","168338","124796","215762","125018","NA","258976","258976","NA","NA","257469","NAP perception","11","14190","15","yes","1024"
"68.75","yes","68.75","939.3125","939.3125","white","no","xpyriment","Ich habe die obigen Informationen gelesen und verstanden.","legacy","legacy","0","uniform","0","0","0","undefined","undefined","0","f","2","1","NA","0","1","0","0","0","0","0","0","0","0","25","25","25","0","0","0","NA","0","0","2","0","0","0","2","25","25","25","25","25","Wed Oct  4 21:44:44 2017","Forced-choice identification task with a practice and an experimental phase","yes","NAP_GER_AA_4blocks_noglides.osexp","/Users/aviadalbert/Documents/Academisch/UoC/Dissertation/Experiment/OpenSesame/NAP-FC/NAP_GER_AA_4blocks_noglides","yes","no","sans","no","20","no","black","no","Weiter","yes","768","legacy","15","9","0","/Users/aviadalbert/Documents/Academisch/UoC/Dissertation/Experiment/OpenSesame/NAP-FC/NAP_GER_AA_4blocks_noglides/subject-10.csv","xpyriment","Jazzy James","3.1.9","yes","yes","59a800d99ad5a1025d81bb03","59a801616c613b0251691de0","no","no","0","j","f","space","NA","space","n","j","839","2899","45250","NA","33439","15229","839","2","legacy","1024","1","44100","-16","experiment","lmal","4","1","2","0","1","englsch","10","","even","215762","170000","NA","NA","218662","215758","NA","1617","215305","1618","1618","76058","109501","261359","259851","262199","136774","125014","170000","NA","18905","53472","168338","124796","215762","125018","NA","261358","261358","NA","NA","259847","NAP perception","11","15029","16","yes","1024"
"70.5882352941","yes","70.5882352941","929.294117647","929.294117647","white","no","xpyriment","Ich habe die obigen Informationen gelesen und verstanden.","legacy","legacy","0","uniform","1","0","0","undefined","undefined","1","f","2","1","NA","0","1","0","0","0","0","0","0","0","0","26","26","26","0","0","0","NA","0","0","2","0","0","0","2","26","26","26","26","26","Wed Oct  4 21:44:44 2017","Forced-choice identification task with a practice and an experimental phase","yes","NAP_GER_AA_4blocks_noglides.osexp","/Users/aviadalbert/Documents/Academisch/UoC/Dissertation/Experiment/OpenSesame/NAP-FC/NAP_GER_AA_4blocks_noglides","yes","no","sans","no","20","no","black","no","Weiter","yes","768","legacy","16","9","0","/Users/aviadalbert/Documents/Academisch/UoC/Dissertation/Experiment/OpenSesame/NAP-FC/NAP_GER_AA_4blocks_noglides/subject-10.csv","xpyriment","Jazzy James","3.1.9","yes","yes","59a800d99ad5a1025d81bb03","59a801616c613b0251691de0","no","no","0","f","f","space","NA","space","n","f","769","2899","45250","NA","33439","15229","769","2","legacy","1024","1","44100","-16","experiment","zval","4","1","2","0","1","englsch","10","","even","215762","170000","NA","NA","218662","215758","NA","1617","215305","1618","1618","76058","109501","263979","262475","264749","136774","125014","170000","NA","18905","53472","168338","124796","215762","125018","NA","263979","263979","NA","NA","262470","NAP perception","12","15798","17","yes","1024"
"72.2222222222","yes","72.2222222222","917.888888889","917.888888889","white","no","xpyriment","Ich habe die obigen Informationen gelesen und verstanden.","legacy","legacy","0","uniform","1","0","0","undefined","undefined","1","f","2","1","NA","0","1","0","0","0","0","0","0","0","0","27","27","27","0","0","0","NA","0","0","2","0","0","0","2","27","27","27","27","27","Wed Oct  4 21:44:44 2017","Forced-choice identification task with a practice and an experimental phase","yes","NAP_GER_AA_4blocks_noglides.osexp","/Users/aviadalbert/Documents/Academisch/UoC/Dissertation/Experiment/OpenSesame/NAP-FC/NAP_GER_AA_4blocks_noglides","yes","no","sans","no","20","no","black","no","Weiter","yes","768","legacy","17","9","0","/Users/aviadalbert/Documents/Academisch/UoC/Dissertation/Experiment/OpenSesame/NAP-FC/NAP_GER_AA_4blocks_noglides/subject-10.csv","xpyriment","Jazzy James","3.1.9","yes","yes","59a800d99ad5a1025d81bb03","59a801616c613b0251691de0","no","no","0","f","f","space","NA","space","n","f","724","2899","45250","NA","33439","15229","724","2","legacy","1024","1","44100","-16","experiment","flal","4","1","2","0","1","englsch","10","","even","215762","170000","NA","NA","218662","215758","NA","1617","215305","1618","1618","76058","109501","266540","265031","267265","136774","125014","170000","NA","18905","53472","168338","124796","215762","125018","NA","266539","266539","NA","NA","265027","NAP perception","13","16522","18","yes","1024"
"73.6842105263","yes","73.6842105263","908.947368421","908.947368421","white","no","xpyriment","Ich habe die obigen Informationen gelesen und verstanden.","legacy","legacy","0","uniform","1","0","0","undefined","undefined","1","j","2","1","NA","0","1","0","0","0","0","0","0","0","0","28","28","28","0","0","0","NA","0","0","2","0","0","0","2","28","28","28","28","28","Wed Oct  4 21:44:44 2017","Forced-choice identification task with a practice and an experimental phase","yes","NAP_GER_AA_4blocks_noglides.osexp","/Users/aviadalbert/Documents/Academisch/UoC/Dissertation/Experiment/OpenSesame/NAP-FC/NAP_GER_AA_4blocks_noglides","yes","no","sans","no","20","no","black","no","Weiter","yes","768","legacy","18","9","0","/Users/aviadalbert/Documents/Academisch/UoC/Dissertation/Experiment/OpenSesame/NAP-FC/NAP_GER_AA_4blocks_noglides/subject-10.csv","xpyriment","Jazzy James","3.1.9","yes","yes","59a800d99ad5a1025d81bb03","59a801616c613b0251691de0","no","no","0","j","f","space","NA","space","n","j","748","2899","45250","NA","33439","15229","748","2","legacy","1024","1","44100","-16","experiment","ezval","4","1","2","0","1","englsch","10","","even","215762","170000","NA","NA","218662","215758","NA","1617","215305","1618","1618","76058","109501","269036","267532","269786","136774","125014","170000","NA","18905","53472","168338","124796","215762","125018","NA","269036","269036","NA","NA","267527","NAP perception","14","17270","19","yes","1024"
"75","yes","75","895.85","895.85","white","no","xpyriment","Ich habe die obigen Informationen gelesen und verstanden.","legacy","legacy","0","uniform","1","0","0","undefined","undefined","1","j","2","1","NA","0","1","0","0","0","0","0","0","0","0","29","29","29","0","0","0","NA","0","0","2","0","0","0","2","29","29","29","29","29","Wed Oct  4 21:44:44 2017","Forced-choice identification task with a practice and an experimental phase","yes","NAP_GER_AA_4blocks_noglides.osexp","/Users/aviadalbert/Documents/Academisch/UoC/Dissertation/Experiment/OpenSesame/NAP-FC/NAP_GER_AA_4blocks_noglides","yes","no","sans","no","20","no","black","no","Weiter","yes","768","legacy","19","9","0","/Users/aviadalbert/Documents/Academisch/UoC/Dissertation/Experiment/OpenSesame/NAP-FC/NAP_GER_AA_4blocks_noglides/subject-10.csv","xpyriment","Jazzy James","3.1.9","yes","yes","59a800d99ad5a1025d81bb03","59a801616c613b0251691de0","no","no","0","j","f","space","NA","space","n","j","647","2899","45250","NA","33439","15229","647","2","legacy","1024","1","44100","-16","experiment","lemal","4","1","2","0","1","englsch","10","","even","215762","170000","NA","NA","218662","215758","NA","1617","215305","1618","1618","76058","109501","271573","270069","272222","136774","125014","170000","NA","18905","53472","168338","124796","215762","125018","NA","271572","271572","NA","NA","270064","NAP perception","15","17917","20","yes","1024"
"76.1904761905","yes","76.1904761905","910.238095238","910.238095238","white","no","xpyriment","Ich habe die obigen Informationen gelesen und verstanden.","legacy","legacy","0","uniform","1","0","0","undefined","undefined","1","f","2","1","NA","0","1","0","0","0","0","0","0","0","0","30","30","30","0","0","0","NA","0","0","2","0","0","0","2","30","30","30","30","30","Wed Oct  4 21:44:44 2017","Forced-choice identification task with a practice and an experimental phase","yes","NAP_GER_AA_4blocks_noglides.osexp","/Users/aviadalbert/Documents/Academisch/UoC/Dissertation/Experiment/OpenSesame/NAP-FC/NAP_GER_AA_4blocks_noglides","yes","no","sans","no","20","no","black","no","Weiter","yes","768","legacy","20","9","0","/Users/aviadalbert/Documents/Academisch/UoC/Dissertation/Experiment/OpenSesame/NAP-FC/NAP_GER_AA_4blocks_noglides/subject-10.csv","xpyriment","Jazzy James","3.1.9","yes","yes","59a800d99ad5a1025d81bb03","59a801616c613b0251691de0","no","no","0","f","f","space","NA","space","n","f","1198","2899","45250","NA","33439","15229","1198","2","legacy","1024","1","44100","-16","experiment","vnal","4","1","2","0","1","englsch","10","","even","215762","170000","NA","NA","218662","215758","NA","1617","215305","1618","1618","76058","109501","274005","272500","275205","136774","125014","170000","NA","18905","53472","168338","124796","215762","125018","NA","274005","274005","NA","NA","272495","NAP perception","16","19115","21","yes","1024"
"77.2727272727","yes","77.2727272727","915.318181818","915.318181818","white","no","xpyriment","Ich habe die obigen Informationen gelesen und verstanden.","legacy","legacy","0","uniform","1","0","0","undefined","undefined","1","j","2","1","NA","0","1","0","0","0","0","0","0","0","0","31","31","31","0","0","0","NA","0","0","2","0","0","0","2","31","31","31","31","31","Wed Oct  4 21:44:44 2017","Forced-choice identification task with a practice and an experimental phase","yes","NAP_GER_AA_4blocks_noglides.osexp","/Users/aviadalbert/Documents/Academisch/UoC/Dissertation/Experiment/OpenSesame/NAP-FC/NAP_GER_AA_4blocks_noglides","yes","no","sans","no","20","no","black","no","Weiter","yes","768","legacy","21","9","0","/Users/aviadalbert/Documents/Academisch/UoC/Dissertation/Experiment/OpenSesame/NAP-FC/NAP_GER_AA_4blocks_noglides/subject-10.csv","xpyriment","Jazzy James","3.1.9","yes","yes","59a800d99ad5a1025d81bb03","59a801616c613b0251691de0","no","no","0","j","f","space","NA","space","n","j","1022","2899","45250","NA","33439","15229","1022","2","legacy","1024","1","44100","-16","experiment","emnal","4","1","2","0","1","englsch","10","","even","215762","170000","NA","NA","218662","215758","NA","1617","215305","1618","1618","76058","109501","276982","275478","278005","136774","125014","170000","NA","18905","53472","168338","124796","215762","125018","NA","276982","276982","NA","NA","275473","NAP perception","17","20137","22","yes","1024"
"78.2608695652","yes","78.2608695652","956.695652174","956.695652174","white","no","xpyriment","Ich habe die obigen Informationen gelesen und verstanden.","legacy","legacy","0","uniform","1","0","0","undefined","undefined","1","f","2","1","NA","0","1","0","0","0","0","0","0","0","0","32","32","32","0","0","0","NA","0","0","2","0","0","0","2","32","32","32","32","32","Wed Oct  4 21:44:44 2017","Forced-choice identification task with a practice and an experimental phase","yes","NAP_GER_AA_4blocks_noglides.osexp","/Users/aviadalbert/Documents/Academisch/UoC/Dissertation/Experiment/OpenSesame/NAP-FC/NAP_GER_AA_4blocks_noglides","yes","no","sans","no","20","no","black","no","Weiter","yes","768","legacy","22","9","0","/Users/aviadalbert/Documents/Academisch/UoC/Dissertation/Experiment/OpenSesame/NAP-FC/NAP_GER_AA_4blocks_noglides/subject-10.csv","xpyriment","Jazzy James","3.1.9","yes","yes","59a800d99ad5a1025d81bb03","59a801616c613b0251691de0","no","no","0","f","f","space","NA","space","n","f","1867","2899","45250","NA","33439","15229","1867","2","legacy","1024","1","44100","-16","experiment","nmal","4","1","2","0","1","englsch","10","","even","215762","170000","NA","NA","218662","215758","NA","1617","215305","1618","1618","76058","109501","279788","278281","281656","136774","125014","170000","NA","18905","53472","168338","124796","215762","125018","NA","279787","279788","NA","NA","278277","NAP perception","18","22004","23","yes","1024"
"79.1666666667","yes","79.1666666667","956.208333333","956.208333333","white","no","xpyriment","Ich habe die obigen Informationen gelesen und verstanden.","legacy","legacy","0","uniform","1","0","0","undefined","undefined","1","f","2","1","NA","0","1","0","0","0","0","0","0","0","0","33","33","33","0","0","0","NA","0","0","2","0","0","0","2","33","33","33","33","33","Wed Oct  4 21:44:44 2017","Forced-choice identification task with a practice and an experimental phase","yes","NAP_GER_AA_4blocks_noglides.osexp","/Users/aviadalbert/Documents/Academisch/UoC/Dissertation/Experiment/OpenSesame/NAP-FC/NAP_GER_AA_4blocks_noglides","yes","no","sans","no","20","no","black","no","Weiter","yes","768","legacy","23","9","0","/Users/aviadalbert/Documents/Academisch/UoC/Dissertation/Experiment/OpenSesame/NAP-FC/NAP_GER_AA_4blocks_noglides/subject-10.csv","xpyriment","Jazzy James","3.1.9","yes","yes","59a800d99ad5a1025d81bb03","59a801616c613b0251691de0","no","no","0","f","f","space","NA","space","n","f","945","2899","45250","NA","33439","15229","945","2","legacy","1024","1","44100","-16","experiment","fnal","4","1","2","0","1","englsch","10","","even","215762","170000","NA","NA","218662","215758","NA","1617","215305","1618","1618","76058","109501","283439","281933","284385","136774","125014","170000","NA","18905","53472","168338","124796","215762","125018","NA","283438","283438","NA","NA","281929","NAP perception","19","22949","24","yes","1024"
"76","yes","76","981.68","981.68","white","no","xpyriment","Ich habe die obigen Informationen gelesen und verstanden.","legacy","legacy","0","uniform","0","0","0","undefined","undefined","0","f","2","1","NA","0","1","0","0","0","0","0","0","0","0","34","34","34","0","0","0","NA","0","0","2","0","0","0","2","34","34","34","34","34","Wed Oct  4 21:44:44 2017","Forced-choice identification task with a practice and an experimental phase","yes","NAP_GER_AA_4blocks_noglides.osexp","/Users/aviadalbert/Documents/Academisch/UoC/Dissertation/Experiment/OpenSesame/NAP-FC/NAP_GER_AA_4blocks_noglides","yes","no","sans","no","20","no","black","no","Weiter","yes","768","legacy","24","9","0","/Users/aviadalbert/Documents/Academisch/UoC/Dissertation/Experiment/OpenSesame/NAP-FC/NAP_GER_AA_4blocks_noglides/subject-10.csv","xpyriment","Jazzy James","3.1.9","yes","yes","59a800d99ad5a1025d81bb03","59a801616c613b0251691de0","no","no","0","j","f","space","NA","space","n","j","1593","2899","45250","NA","33439","15229","1593","2","legacy","1024","1","44100","-16","experiment","mlal","4","1","2","0","1","englsch","10","","even","215762","170000","NA","NA","218662","215758","NA","1617","215305","1618","1618","76058","109501","286177","284672","287771","136774","125014","170000","NA","18905","53472","168338","124796","215762","125018","NA","286177","286177","NA","NA","284667","NAP perception","19","24542","25","yes","1024"
"73.0769230769","yes","73.0769230769","980.192307692","980.192307692","white","no","xpyriment","Ich habe die obigen Informationen gelesen und verstanden.","legacy","legacy","0","uniform","0","0","0","undefined","undefined","0","f","2","1","NA","0","1","0","0","0","0","0","0","0","0","35","35","35","0","0","0","NA","0","0","2","0","0","0","2","35","35","35","35","35","Wed Oct  4 21:44:44 2017","Forced-choice identification task with a practice and an experimental phase","yes","NAP_GER_AA_4blocks_noglides.osexp","/Users/aviadalbert/Documents/Academisch/UoC/Dissertation/Experiment/OpenSesame/NAP-FC/NAP_GER_AA_4blocks_noglides","yes","no","sans","no","20","no","black","no","Weiter","yes","768","legacy","25","9","0","/Users/aviadalbert/Documents/Academisch/UoC/Dissertation/Experiment/OpenSesame/NAP-FC/NAP_GER_AA_4blocks_noglides/subject-10.csv","xpyriment","Jazzy James","3.1.9","yes","yes","59a800d99ad5a1025d81bb03","59a801616c613b0251691de0","no","no","0","j","f","space","NA","space","n","j","943","2899","45250","NA","33439","15229","943","2","legacy","1024","1","44100","-16","experiment","lpal","4","1","2","0","1","englsch","10","","even","215762","170000","NA","NA","218662","215758","NA","1617","215305","1618","1618","76058","109501","289552","288044","290496","136774","125014","170000","NA","18905","53472","168338","124796","215762","125018","NA","289552","289552","NA","NA","288040","NAP perception","19","25485","26","yes","1024"
"74.0740740741","yes","74.0740740741","974.074074074","974.074074074","white","no","xpyriment","Ich habe die obigen Informationen gelesen und verstanden.","legacy","legacy","0","uniform","1","0","0","undefined","undefined","1","j","2","1","NA","0","1","0","0","0","0","0","0","0","0","36","36","36","0","0","0","NA","0","0","2","0","0","0","2","36","36","36","36","36","Wed Oct  4 21:44:44 2017","Forced-choice identification task with a practice and an experimental phase","yes","NAP_GER_AA_4blocks_noglides.osexp","/Users/aviadalbert/Documents/Academisch/UoC/Dissertation/Experiment/OpenSesame/NAP-FC/NAP_GER_AA_4blocks_noglides","yes","no","sans","no","20","no","black","no","Weiter","yes","768","legacy","26","9","0","/Users/aviadalbert/Documents/Academisch/UoC/Dissertation/Experiment/OpenSesame/NAP-FC/NAP_GER_AA_4blocks_noglides/subject-10.csv","xpyriment","Jazzy James","3.1.9","yes","yes","59a800d99ad5a1025d81bb03","59a801616c613b0251691de0","no","no","0","j","f","space","NA","space","n","j","815","2899","45250","NA","33439","15229","815","2","legacy","1024","1","44100","-16","experiment","felal","4","1","2","0","1","englsch","10","","even","215762","170000","NA","NA","218662","215758","NA","1617","215305","1618","1618","76058","109501","292270","290765","293086","136774","125014","170000","NA","18905","53472","168338","124796","215762","125018","NA","292269","292269","NA","NA","290760","NAP perception","20","26300","27","yes","1024"
"71.4285714286","yes","71.4285714286","967.714285714","967.714285714","white","no","xpyriment","Ich habe die obigen Informationen gelesen und verstanden.","legacy","legacy","0","uniform","0","0","0","undefined","undefined","0","f","2","1","NA","0","1","0","0","0","0","0","0","0","0","37","37","37","0","0","0","NA","0","0","2","0","0","0","2","37","37","37","37","37","Wed Oct  4 21:44:44 2017","Forced-choice identification task with a practice and an experimental phase","yes","NAP_GER_AA_4blocks_noglides.osexp","/Users/aviadalbert/Documents/Academisch/UoC/Dissertation/Experiment/OpenSesame/NAP-FC/NAP_GER_AA_4blocks_noglides","yes","no","sans","no","20","no","black","no","Weiter","yes","768","legacy","27","9","0","/Users/aviadalbert/Documents/Academisch/UoC/Dissertation/Experiment/OpenSesame/NAP-FC/NAP_GER_AA_4blocks_noglides/subject-10.csv","xpyriment","Jazzy James","3.1.9","yes","yes","59a800d99ad5a1025d81bb03","59a801616c613b0251691de0","no","no","0","j","f","space","NA","space","n","j","796","2899","45250","NA","33439","15229","796","2","legacy","1024","1","44100","-16","experiment","nval","4","1","2","0","1","englsch","10","","even","215762","170000","NA","NA","218662","215758","NA","1617","215305","1618","1618","76058","109501","294871","293367","295668","136774","125014","170000","NA","18905","53472","168338","124796","215762","125018","NA","294870","294870","NA","NA","293363","NAP perception","20","27096","28","yes","1024"
"72.4137931034","yes","72.4137931034","959.379310345","959.379310345","white","no","xpyriment","Ich habe die obigen Informationen gelesen und verstanden.","legacy","legacy","0","uniform","1","0","0","undefined","undefined","1","j","2","1","NA","0","1","0","0","0","0","0","0","0","0","38","38","38","0","0","0","NA","0","0","2","0","0","0","2","38","38","38","38","38","Wed Oct  4 21:44:44 2017","Forced-choice identification task with a practice and an experimental phase","yes","NAP_GER_AA_4blocks_noglides.osexp","/Users/aviadalbert/Documents/Academisch/UoC/Dissertation/Experiment/OpenSesame/NAP-FC/NAP_GER_AA_4blocks_noglides","yes","no","sans","no","20","no","black","no","Weiter","yes","768","legacy","28","9","0","/Users/aviadalbert/Documents/Academisch/UoC/Dissertation/Experiment/OpenSesame/NAP-FC/NAP_GER_AA_4blocks_noglides/subject-10.csv","xpyriment","Jazzy James","3.1.9","yes","yes","59a800d99ad5a1025d81bb03","59a801616c613b0251691de0","no","no","0","j","f","space","NA","space","n","j","726","2899","45250","NA","33439","15229","726","2","legacy","1024","1","44100","-16","experiment","emzal","4","1","2","0","1","englsch","10","","even","215762","170000","NA","NA","218662","215758","NA","1617","215305","1618","1618","76058","109501","297460","295953","298187","136774","125014","170000","NA","18905","53472","168338","124796","215762","125018","NA","297459","297460","NA","NA","295949","NAP perception","21","27822","29","yes","1024"
"73.3333333333","yes","73.3333333333","948.166666667","948.166666667","white","no","xpyriment","Ich habe die obigen Informationen gelesen und verstanden.","legacy","legacy","0","uniform","1","0","0","undefined","undefined","1","j","2","1","NA","0","1","0","0","0","0","0","0","0","0","39","39","39","0","0","0","NA","0","0","2","0","0","0","2","39","39","39","39","39","Wed Oct  4 21:44:44 2017","Forced-choice identification task with a practice and an experimental phase","yes","NAP_GER_AA_4blocks_noglides.osexp","/Users/aviadalbert/Documents/Academisch/UoC/Dissertation/Experiment/OpenSesame/NAP-FC/NAP_GER_AA_4blocks_noglides","yes","no","sans","no","20","no","black","no","Weiter","yes","768","legacy","29","9","0","/Users/aviadalbert/Documents/Academisch/UoC/Dissertation/Experiment/OpenSesame/NAP-FC/NAP_GER_AA_4blocks_noglides/subject-10.csv","xpyriment","Jazzy James","3.1.9","yes","yes","59a800d99ad5a1025d81bb03","59a801616c613b0251691de0","no","no","0","j","f","space","NA","space","n","j","623","2899","45250","NA","33439","15229","623","2","legacy","1024","1","44100","-16","experiment","ezmal","4","1","2","0","1","englsch","10","","even","215762","170000","NA","NA","218662","215758","NA","1617","215305","1618","1618","76058","109501","299962","298458","300586","136774","125014","170000","NA","18905","53472","168338","124796","215762","125018","NA","299961","299961","NA","NA","298453","NAP perception","22","28445","30","yes","1024"
"74.1935483871","yes","74.1935483871","937.967741935","937.967741935","white","no","xpyriment","Ich habe die obigen Informationen gelesen und verstanden.","legacy","legacy","0","uniform","1","0","0","undefined","undefined","1","j","2","1","NA","0","1","0","0","0","0","0","0","0","0","40","40","40","0","0","0","NA","0","0","2","0","0","0","2","40","40","40","40","40","Wed Oct  4 21:44:44 2017","Forced-choice identification task with a practice and an experimental phase","yes","NAP_GER_AA_4blocks_noglides.osexp","/Users/aviadalbert/Documents/Academisch/UoC/Dissertation/Experiment/OpenSesame/NAP-FC/NAP_GER_AA_4blocks_noglides","yes","no","sans","no","20","no","black","no","Weiter","yes","768","legacy","30","9","0","/Users/aviadalbert/Documents/Academisch/UoC/Dissertation/Experiment/OpenSesame/NAP-FC/NAP_GER_AA_4blocks_noglides/subject-10.csv","xpyriment","Jazzy James","3.1.9","yes","yes","59a800d99ad5a1025d81bb03","59a801616c613b0251691de0","no","no","0","j","f","space","NA","space","n","j","632","2899","45250","NA","33439","15229","632","2","legacy","1024","1","44100","-16","experiment","vezal","4","1","2","0","1","englsch","10","","even","215762","170000","NA","NA","218662","215758","NA","1617","215305","1618","1618","76058","109501","302382","300877","303016","136774","125014","170000","NA","18905","53472","168338","124796","215762","125018","NA","302382","302382","NA","NA","300873","NAP perception","23","29077","31","yes","1024"
"75","yes","75","927.59375","927.59375","white","no","xpyriment","Ich habe die obigen Informationen gelesen und verstanden.","legacy","legacy","0","uniform","1","0","0","undefined","undefined","1","j","2","1","NA","0","1","0","0","0","0","0","0","0","0","41","41","41","0","0","0","NA","0","0","2","0","0","0","2","41","41","41","41","41","Wed Oct  4 21:44:44 2017","Forced-choice identification task with a practice and an experimental phase","yes","NAP_GER_AA_4blocks_noglides.osexp","/Users/aviadalbert/Documents/Academisch/UoC/Dissertation/Experiment/OpenSesame/NAP-FC/NAP_GER_AA_4blocks_noglides","yes","no","sans","no","20","no","black","no","Weiter","yes","768","legacy","31","9","0","/Users/aviadalbert/Documents/Academisch/UoC/Dissertation/Experiment/OpenSesame/NAP-FC/NAP_GER_AA_4blocks_noglides/subject-10.csv","xpyriment","Jazzy James","3.1.9","yes","yes","59a800d99ad5a1025d81bb03","59a801616c613b0251691de0","no","no","0","j","f","space","NA","space","n","j","606","2899","45250","NA","33439","15229","606","2","legacy","1024","1","44100","-16","experiment","ʃemal","4","1","2","0","1","englsch","10","","even","215762","170000","NA","NA","218662","215758","NA","1617","215305","1618","1618","76058","109501","304808","303304","305415","136774","125014","170000","NA","18905","53472","168338","124796","215762","125018","NA","304808","304808","NA","NA","303300","NAP perception","24","29683","32","yes","1024"
"75.7575757576","yes","75.7575757576","925.393939394","925.393939394","white","no","xpyriment","Ich habe die obigen Informationen gelesen und verstanden.","legacy","legacy","0","uniform","1","0","0","undefined","undefined","1","f","2","1","NA","0","1","0","0","0","0","0","0","0","0","42","42","42","0","0","0","NA","0","0","2","0","0","0","2","42","42","42","42","42","Wed Oct  4 21:44:44 2017","Forced-choice identification task with a practice and an experimental phase","yes","NAP_GER_AA_4blocks_noglides.osexp","/Users/aviadalbert/Documents/Academisch/UoC/Dissertation/Experiment/OpenSesame/NAP-FC/NAP_GER_AA_4blocks_noglides","yes","no","sans","no","20","no","black","no","Weiter","yes","768","legacy","32","9","0","/Users/aviadalbert/Documents/Academisch/UoC/Dissertation/Experiment/OpenSesame/NAP-FC/NAP_GER_AA_4blocks_noglides/subject-10.csv","xpyriment","Jazzy James","3.1.9","yes","yes","59a800d99ad5a1025d81bb03","59a801616c613b0251691de0","no","no","0","f","f","space","NA","space","n","f","855","2899","45250","NA","33439","15229","855","2","legacy","1024","1","44100","-16","experiment","ʃfal","4","1","2","0","1","englsch","10","","even","215762","170000","NA","NA","218662","215758","NA","1617","215305","1618","1618","76058","109501","307217","305713","308074","136774","125014","170000","NA","18905","53472","168338","124796","215762","125018","NA","307216","307217","NA","NA","305709","NAP perception","25","30538","33","yes","1024"
"76.4705882353","yes","76.4705882353","932.588235294","932.588235294","white","no","xpyriment","Ich habe die obigen Informationen gelesen und verstanden.","legacy","legacy","0","uniform","1","0","0","undefined","undefined","1","j","2","1","NA","0","1","0","0","0","0","0","0","0","0","43","43","43","0","0","0","NA","0","0","2","0","0","0","2","43","43","43","43","43","Wed Oct  4 21:44:44 2017","Forced-choice identification task with a practice and an experimental phase","yes","NAP_GER_AA_4blocks_noglides.osexp","/Users/aviadalbert/Documents/Academisch/UoC/Dissertation/Experiment/OpenSesame/NAP-FC/NAP_GER_AA_4blocks_noglides","yes","no","sans","no","20","no","black","no","Weiter","yes","768","legacy","33","9","0","/Users/aviadalbert/Documents/Academisch/UoC/Dissertation/Experiment/OpenSesame/NAP-FC/NAP_GER_AA_4blocks_noglides/subject-10.csv","xpyriment","Jazzy James","3.1.9","yes","yes","59a800d99ad5a1025d81bb03","59a801616c613b0251691de0","no","no","0","j","f","space","NA","space","n","j","1170","2899","45250","NA","33439","15229","1170","2","legacy","1024","1","44100","-16","experiment","esfal","4","1","2","0","1","englsch","10","","even","215762","170000","NA","NA","218662","215758","NA","1617","215305","1618","1618","76058","109501","309858","308351","311030","136774","125014","170000","NA","18905","53472","168338","124796","215762","125018","NA","309858","309858","NA","NA","308347","NAP perception","26","31708","34","yes","1024"
"77.1428571429","yes","77.1428571429","923.571428571","923.571428571","white","no","xpyriment","Ich habe die obigen Informationen gelesen und verstanden.","legacy","legacy","0","uniform","1","0","0","undefined","undefined","1","f","2","1","NA","0","1","0","0","0","0","0","0","0","0","44","44","44","0","0","0","NA","0","0","2","0","0","0","2","44","44","44","44","44","Wed Oct  4 21:44:44 2017","Forced-choice identification task with a practice and an experimental phase","yes","NAP_GER_AA_4blocks_noglides.osexp","/Users/aviadalbert/Documents/Academisch/UoC/Dissertation/Experiment/OpenSesame/NAP-FC/NAP_GER_AA_4blocks_noglides","yes","no","sans","no","20","no","black","no","Weiter","yes","768","legacy","34","9","0","/Users/aviadalbert/Documents/Academisch/UoC/Dissertation/Experiment/OpenSesame/NAP-FC/NAP_GER_AA_4blocks_noglides/subject-10.csv","xpyriment","Jazzy James","3.1.9","yes","yes","59a800d99ad5a1025d81bb03","59a801616c613b0251691de0","no","no","0","f","f","space","NA","space","n","f","617","2899","45250","NA","33439","15229","617","2","legacy","1024","1","44100","-16","experiment","ʃfal","4","1","2","0","1","englsch","10","","even","215762","170000","NA","NA","218662","215758","NA","1617","215305","1618","1618","76058","109501","312811","311306","313430","136774","125014","170000","NA","18905","53472","168338","124796","215762","125018","NA","312811","312811","NA","NA","311302","NAP perception","27","32325","35","yes","1024"
"77.7777777778","yes","77.7777777778","928.5","928.5","white","no","xpyriment","Ich habe die obigen Informationen gelesen und verstanden.","legacy","legacy","0","uniform","1","0","0","undefined","undefined","1","f","2","1","NA","0","1","0","0","0","0","0","0","0","0","45","45","45","0","0","0","NA","0","0","2","0","0","0","2","45","45","45","45","45","Wed Oct  4 21:44:44 2017","Forced-choice identification task with a practice and an experimental phase","yes","NAP_GER_AA_4blocks_noglides.osexp","/Users/aviadalbert/Documents/Academisch/UoC/Dissertation/Experiment/OpenSesame/NAP-FC/NAP_GER_AA_4blocks_noglides","yes","no","sans","no","20","no","black","no","Weiter","yes","768","legacy","35","9","0","/Users/aviadalbert/Documents/Academisch/UoC/Dissertation/Experiment/OpenSesame/NAP-FC/NAP_GER_AA_4blocks_noglides/subject-10.csv","xpyriment","Jazzy James","3.1.9","yes","yes","59a800d99ad5a1025d81bb03","59a801616c613b0251691de0","no","no","0","f","f","space","NA","space","n","f","1101","2899","45250","NA","33439","15229","1101","2","legacy","1024","1","44100","-16","experiment","flal","4","1","2","0","1","englsch","10","","even","215762","170000","NA","NA","218662","215758","NA","1617","215305","1618","1618","76058","109501","315233","313726","316336","136774","125014","170000","NA","18905","53472","168338","124796","215762","125018","NA","315233","315233","NA","NA","313722","NAP perception","28","33426","36","yes","1024"
"75.6756756757","yes","75.6756756757","926.837837838","926.837837838","white","no","xpyriment","Ich habe die obigen Informationen gelesen und verstanden.","legacy","legacy","0","uniform","0","0","0","undefined","undefined","0","f","2","1","NA","0","1","0","0","0","0","0","0","0","0","46","46","46","0","0","0","NA","0","0","2","0","0","0","2","46","46","46","46","46","Wed Oct  4 21:44:44 2017","Forced-choice identification task with a practice and an experimental phase","yes","NAP_GER_AA_4blocks_noglides.osexp","/Users/aviadalbert/Documents/Academisch/UoC/Dissertation/Experiment/OpenSesame/NAP-FC/NAP_GER_AA_4blocks_noglides","yes","no","sans","no","20","no","black","no","Weiter","yes","768","legacy","36","9","0","/Users/aviadalbert/Documents/Academisch/UoC/Dissertation/Experiment/OpenSesame/NAP-FC/NAP_GER_AA_4blocks_noglides/subject-10.csv","xpyriment","Jazzy James","3.1.9","yes","yes","59a800d99ad5a1025d81bb03","59a801616c613b0251691de0","no","no","0","j","f","space","NA","space","n","j","867","2899","45250","NA","33439","15229","867","2","legacy","1024","1","44100","-16","experiment","msal","4","1","2","0","1","englsch","10","","even","215762","170000","NA","NA","218662","215758","NA","1617","215305","1618","1618","76058","109501","318115","316609","318983","136774","125014","170000","NA","18905","53472","168338","124796","215762","125018","NA","318114","318114","NA","NA","316605","NAP perception","28","34293","37","yes","1024"
"76.3157894737","yes","76.3157894737","923.184210526","923.184210526","white","no","xpyriment","Ich habe die obigen Informationen gelesen und verstanden.","legacy","legacy","0","uniform","1","0","0","undefined","undefined","1","j","2","1","NA","0","1","0","0","0","0","0","0","0","0","47","47","47","0","0","0","NA","0","0","2","0","0","0","2","47","47","47","47","47","Wed Oct  4 21:44:44 2017","Forced-choice identification task with a practice and an experimental phase","yes","NAP_GER_AA_4blocks_noglides.osexp","/Users/aviadalbert/Documents/Academisch/UoC/Dissertation/Experiment/OpenSesame/NAP-FC/NAP_GER_AA_4blocks_noglides","yes","no","sans","no","20","no","black","no","Weiter","yes","768","legacy","37","9","0","/Users/aviadalbert/Documents/Academisch/UoC/Dissertation/Experiment/OpenSesame/NAP-FC/NAP_GER_AA_4blocks_noglides/subject-10.csv","xpyriment","Jazzy James","3.1.9","yes","yes","59a800d99ad5a1025d81bb03","59a801616c613b0251691de0","no","no","0","j","f","space","NA","space","n","j","788","2899","45250","NA","33439","15229","788","2","legacy","1024","1","44100","-16","experiment","enpal","4","1","2","0","1","englsch","10","","even","215762","170000","NA","NA","218662","215758","NA","1617","215305","1618","1618","76058","109501","320771","319264","321560","136774","125014","170000","NA","18905","53472","168338","124796","215762","125018","NA","320771","320771","NA","NA","319260","NAP perception","29","35081","38","yes","1024"
"76.9230769231","yes","76.9230769231","919.025641026","919.025641026","white","no","xpyriment","Ich habe die obigen Informationen gelesen und verstanden.","legacy","legacy","0","uniform","1","0","0","undefined","undefined","1","f","2","1","NA","0","1","0","0","0","0","0","0","0","0","48","48","48","0","0","0","NA","0","0","2","0","0","0","2","48","48","48","48","48","Wed Oct  4 21:44:44 2017","Forced-choice identification task with a practice and an experimental phase","yes","NAP_GER_AA_4blocks_noglides.osexp","/Users/aviadalbert/Documents/Academisch/UoC/Dissertation/Experiment/OpenSesame/NAP-FC/NAP_GER_AA_4blocks_noglides","yes","no","sans","no","20","no","black","no","Weiter","yes","768","legacy","38","9","0","/Users/aviadalbert/Documents/Academisch/UoC/Dissertation/Experiment/OpenSesame/NAP-FC/NAP_GER_AA_4blocks_noglides/subject-10.csv","xpyriment","Jazzy James","3.1.9","yes","yes","59a800d99ad5a1025d81bb03","59a801616c613b0251691de0","no","no","0","f","f","space","NA","space","n","f","761","2899","45250","NA","33439","15229","761","2","legacy","1024","1","44100","-16","experiment","ʃpal","4","1","2","0","1","englsch","10","","even","215762","170000","NA","NA","218662","215758","NA","1617","215305","1618","1618","76058","109501","323342","321837","324105","136774","125014","170000","NA","18905","53472","168338","124796","215762","125018","NA","323341","323341","NA","NA","321833","NAP perception","30","35842","39","yes","1024"
"77.5","yes","77.5","930.025","930.025","white","no","xpyriment","Ich habe die obigen Informationen gelesen und verstanden.","legacy","legacy","0","uniform","1","0","0","undefined","undefined","1","j","2","1","NA","0","1","0","0","0","0","0","0","0","0","49","49","49","0","0","0","NA","0","0","2","0","0","0","2","49","49","49","49","49","Wed Oct  4 21:44:44 2017","Forced-choice identification task with a practice and an experimental phase","yes","NAP_GER_AA_4blocks_noglides.osexp","/Users/aviadalbert/Documents/Academisch/UoC/Dissertation/Experiment/OpenSesame/NAP-FC/NAP_GER_AA_4blocks_noglides","yes","no","sans","no","20","no","black","no","Weiter","yes","768","legacy","39","9","0","/Users/aviadalbert/Documents/Academisch/UoC/Dissertation/Experiment/OpenSesame/NAP-FC/NAP_GER_AA_4blocks_noglides/subject-10.csv","xpyriment","Jazzy James","3.1.9","yes","yes","59a800d99ad5a1025d81bb03","59a801616c613b0251691de0","no","no","0","j","f","space","NA","space","n","j","1359","2899","45250","NA","33439","15229","1359","2","legacy","1024","1","44100","-16","experiment","semal","4","1","2","0","1","englsch","10","","even","215762","170000","NA","NA","218662","215758","NA","1617","215305","1618","1618","76058","109501","325903","324396","327263","136774","125014","170000","NA","18905","53472","168338","124796","215762","125018","NA","325903","325903","NA","NA","324392","NAP perception","31","37201","40","yes","1024"
"78.0487804878","yes","78.0487804878","922.682926829","922.682926829","white","no","xpyriment","Ich habe die obigen Informationen gelesen und verstanden.","legacy","legacy","0","uniform","1","0","0","undefined","undefined","1","j","2","1","NA","0","1","0","0","0","0","0","0","0","0","50","50","50","0","0","0","NA","0","0","2","0","0","0","2","50","50","50","50","50","Wed Oct  4 21:44:44 2017","Forced-choice identification task with a practice and an experimental phase","yes","NAP_GER_AA_4blocks_noglides.osexp","/Users/aviadalbert/Documents/Academisch/UoC/Dissertation/Experiment/OpenSesame/NAP-FC/NAP_GER_AA_4blocks_noglides","yes","no","sans","no","20","no","black","no","Weiter","yes","768","legacy","40","9","0","/Users/aviadalbert/Documents/Academisch/UoC/Dissertation/Experiment/OpenSesame/NAP-FC/NAP_GER_AA_4blocks_noglides/subject-10.csv","xpyriment","Jazzy James","3.1.9","yes","yes","59a800d99ad5a1025d81bb03","59a801616c613b0251691de0","no","no","0","j","f","space","NA","space","n","j","629","2899","45250","NA","33439","15229","629","2","legacy","1024","1","44100","-16","experiment","evlal","4","1","2","0","1","englsch","10","","even","215762","170000","NA","NA","218662","215758","NA","1617","215305","1618","1618","76058","109501","329038","327533","329668","136774","125014","170000","NA","18905","53472","168338","124796","215762","125018","NA","329038","329038","NA","NA","327529","NAP perception","32","37830","41","yes","1024"
"78.5714285714","yes","78.5714285714","922.666666667","922.666666667","white","no","xpyriment","Ich habe die obigen Informationen gelesen und verstanden.","legacy","legacy","0","uniform","1","0","0","undefined","undefined","1","f","2","1","NA","0","1","0","0","0","0","0","0","0","0","51","51","51","0","0","0","NA","0","0","2","0","0","0","2","51","51","51","51","51","Wed Oct  4 21:44:44 2017","Forced-choice identification task with a practice and an experimental phase","yes","NAP_GER_AA_4blocks_noglides.osexp","/Users/aviadalbert/Documents/Academisch/UoC/Dissertation/Experiment/OpenSesame/NAP-FC/NAP_GER_AA_4blocks_noglides","yes","no","sans","no","20","no","black","no","Weiter","yes","768","legacy","41","9","0","/Users/aviadalbert/Documents/Academisch/UoC/Dissertation/Experiment/OpenSesame/NAP-FC/NAP_GER_AA_4blocks_noglides/subject-10.csv","xpyriment","Jazzy James","3.1.9","yes","yes","59a800d99ad5a1025d81bb03","59a801616c613b0251691de0","no","no","0","f","f","space","NA","space","n","f","922","2899","45250","NA","33439","15229","922","2","legacy","1024","1","44100","-16","experiment","fsal","4","1","2","0","1","englsch","10","","even","215762","170000","NA","NA","218662","215758","NA","1617","215305","1618","1618","76058","109501","331465","329958","332388","136774","125014","170000","NA","18905","53472","168338","124796","215762","125018","NA","331465","331465","NA","NA","329954","NAP perception","33","38752","42","yes","1024"
"79.0697674419","yes","79.0697674419","919.813953488","919.813953488","white","no","xpyriment","Ich habe die obigen Informationen gelesen und verstanden.","legacy","legacy","0","uniform","1","0","0","undefined","undefined","1","j","2","1","NA","0","1","0","0","0","0","0","0","0","0","52","52","52","0","0","0","NA","0","0","2","0","0","0","2","52","52","52","52","52","Wed Oct  4 21:44:44 2017","Forced-choice identification task with a practice and an experimental phase","yes","NAP_GER_AA_4blocks_noglides.osexp","/Users/aviadalbert/Documents/Academisch/UoC/Dissertation/Experiment/OpenSesame/NAP-FC/NAP_GER_AA_4blocks_noglides","yes","no","sans","no","20","no","black","no","Weiter","yes","768","legacy","42","9","0","/Users/aviadalbert/Documents/Academisch/UoC/Dissertation/Experiment/OpenSesame/NAP-FC/NAP_GER_AA_4blocks_noglides/subject-10.csv","xpyriment","Jazzy James","3.1.9","yes","yes","59a800d99ad5a1025d81bb03","59a801616c613b0251691de0","no","no","0","j","f","space","NA","space","n","j","800","2899","45250","NA","33439","15229","800","2","legacy","1024","1","44100","-16","experiment","eʃpal","4","1","2","0","1","englsch","10","","even","215762","170000","NA","NA","218662","215758","NA","1617","215305","1618","1618","76058","109501","334175","332671","334976","136774","125014","170000","NA","18905","53472","168338","124796","215762","125018","NA","334174","334174","NA","NA","332666","NAP perception","34","39552","43","yes","1024"
"77.2727272727","yes","77.2727272727","916","916","white","no","xpyriment","Ich habe die obigen Informationen gelesen und verstanden.","legacy","legacy","0","uniform","0","0","0","undefined","undefined","0","f","2","1","NA","0","1","0","0","0","0","0","0","0","0","53","53","53","0","0","0","NA","0","0","2","0","0","0","2","53","53","53","53","53","Wed Oct  4 21:44:44 2017","Forced-choice identification task with a practice and an experimental phase","yes","NAP_GER_AA_4blocks_noglides.osexp","/Users/aviadalbert/Documents/Academisch/UoC/Dissertation/Experiment/OpenSesame/NAP-FC/NAP_GER_AA_4blocks_noglides","yes","no","sans","no","20","no","black","no","Weiter","yes","768","legacy","43","9","0","/Users/aviadalbert/Documents/Academisch/UoC/Dissertation/Experiment/OpenSesame/NAP-FC/NAP_GER_AA_4blocks_noglides/subject-10.csv","xpyriment","Jazzy James","3.1.9","yes","yes","59a800d99ad5a1025d81bb03","59a801616c613b0251691de0","no","no","0","j","f","space","NA","space","n","j","752","2899","45250","NA","33439","15229","752","2","legacy","1024","1","44100","-16","experiment","vnal","4","1","2","0","1","englsch","10","","even","215762","170000","NA","NA","218662","215758","NA","1617","215305","1618","1618","76058","109501","336783","335277","337536","136774","125014","170000","NA","18905","53472","168338","124796","215762","125018","NA","336782","336783","NA","NA","335273","NAP perception","34","40304","44","yes","1024"
"77.7777777778","yes","77.7777777778","908.911111111","908.911111111","white","no","xpyriment","Ich habe die obigen Informationen gelesen und verstanden.","legacy","legacy","0","uniform","1","0","0","undefined","undefined","1","j","2","1","NA","0","1","0","0","0","0","0","0","0","0","54","54","54","0","0","0","NA","0","0","2","0","0","0","2","54","54","54","54","54","Wed Oct  4 21:44:44 2017","Forced-choice identification task with a practice and an experimental phase","yes","NAP_GER_AA_4blocks_noglides.osexp","/Users/aviadalbert/Documents/Academisch/UoC/Dissertation/Experiment/OpenSesame/NAP-FC/NAP_GER_AA_4blocks_noglides","yes","no","sans","no","20","no","black","no","Weiter","yes","768","legacy","44","9","0","/Users/aviadalbert/Documents/Academisch/UoC/Dissertation/Experiment/OpenSesame/NAP-FC/NAP_GER_AA_4blocks_noglides/subject-10.csv","xpyriment","Jazzy James","3.1.9","yes","yes","59a800d99ad5a1025d81bb03","59a801616c613b0251691de0","no","no","0","j","f","space","NA","space","n","j","597","2899","45250","NA","33439","15229","597","2","legacy","1024","1","44100","-16","experiment","zeval","4","1","2","0","1","englsch","10","","even","215762","170000","NA","NA","218662","215758","NA","1617","215305","1618","1618","76058","109501","339326","337820","339925","136774","125014","170000","NA","18905","53472","168338","124796","215762","125018","NA","339326","339326","NA","NA","337815","NAP perception","35","40901","45","yes","1024"
"76.0869565217","yes","76.0869565217","905.695652174","905.695652174","white","no","xpyriment","Ich habe die obigen Informationen gelesen und verstanden.","legacy","legacy","0","uniform","0","0","0","undefined","undefined","0","f","2","1","NA","0","1","0","0","0","0","0","0","0","0","55","55","55","0","0","0","NA","0","0","2","0","0","0","2","55","55","55","55","55","Wed Oct  4 21:44:44 2017","Forced-choice identification task with a practice and an experimental phase","yes","NAP_GER_AA_4blocks_noglides.osexp","/Users/aviadalbert/Documents/Academisch/UoC/Dissertation/Experiment/OpenSesame/NAP-FC/NAP_GER_AA_4blocks_noglides","yes","no","sans","no","20","no","black","no","Weiter","yes","768","legacy","45","9","0","/Users/aviadalbert/Documents/Academisch/UoC/Dissertation/Experiment/OpenSesame/NAP-FC/NAP_GER_AA_4blocks_noglides/subject-10.csv","xpyriment","Jazzy James","3.1.9","yes","yes","59a800d99ad5a1025d81bb03","59a801616c613b0251691de0","no","no","0","j","f","space","NA","space","n","j","761","2899","45250","NA","33439","15229","761","2","legacy","1024","1","44100","-16","experiment","spal","4","1","2","0","1","englsch","10","","even","215762","170000","NA","NA","218662","215758","NA","1617","215305","1618","1618","76058","109501","341724","340220","342487","136774","125014","170000","NA","18905","53472","168338","124796","215762","125018","NA","341723","341723","NA","NA","340216","NAP perception","35","41662","46","yes","1024"
"76.5957446809","yes","76.5957446809","906.14893617","906.14893617","white","no","xpyriment","Ich habe die obigen Informationen gelesen und verstanden.","legacy","legacy","0","uniform","1","0","0","undefined","undefined","1","j","2","1","NA","0","1","0","0","0","0","0","0","0","0","56","56","56","0","0","0","NA","0","0","2","0","0","0","2","56","56","56","56","56","Wed Oct  4 21:44:44 2017","Forced-choice identification task with a practice and an experimental phase","yes","NAP_GER_AA_4blocks_noglides.osexp","/Users/aviadalbert/Documents/Academisch/UoC/Dissertation/Experiment/OpenSesame/NAP-FC/NAP_GER_AA_4blocks_noglides","yes","no","sans","no","20","no","black","no","Weiter","yes","768","legacy","46","9","0","/Users/aviadalbert/Documents/Academisch/UoC/Dissertation/Experiment/OpenSesame/NAP-FC/NAP_GER_AA_4blocks_noglides/subject-10.csv","xpyriment","Jazzy James","3.1.9","yes","yes","59a800d99ad5a1025d81bb03","59a801616c613b0251691de0","no","no","0","j","f","space","NA","space","n","j","927","2899","45250","NA","33439","15229","927","2","legacy","1024","1","44100","-16","experiment","elpal","4","1","2","0","1","englsch","10","","even","215762","170000","NA","NA","218662","215758","NA","1617","215305","1618","1618","76058","109501","344283","342776","345212","136774","125014","170000","NA","18905","53472","168338","124796","215762","125018","NA","344283","344283","NA","NA","342772","NAP perception","36","42589","47","yes","1024"
"77.0833333333","yes","77.0833333333","907.5","907.5","white","no","xpyriment","Ich habe die obigen Informationen gelesen und verstanden.","legacy","legacy","0","uniform","1","0","0","undefined","undefined","1","j","2","1","NA","0","1","0","0","0","0","0","0","0","0","57","57","57","0","0","0","NA","0","0","2","0","0","0","2","57","57","57","57","57","Wed Oct  4 21:44:44 2017","Forced-choice identification task with a practice and an experimental phase","yes","NAP_GER_AA_4blocks_noglides.osexp","/Users/aviadalbert/Documents/Academisch/UoC/Dissertation/Experiment/OpenSesame/NAP-FC/NAP_GER_AA_4blocks_noglides","yes","no","sans","no","20","no","black","no","Weiter","yes","768","legacy","47","9","0","/Users/aviadalbert/Documents/Academisch/UoC/Dissertation/Experiment/OpenSesame/NAP-FC/NAP_GER_AA_4blocks_noglides/subject-10.csv","xpyriment","Jazzy James","3.1.9","yes","yes","59a800d99ad5a1025d81bb03","59a801616c613b0251691de0","no","no","0","j","f","space","NA","space","n","j","971","2899","45250","NA","33439","15229","971","2","legacy","1024","1","44100","-16","experiment","efsal","4","1","2","0","1","englsch","10","","even","215762","170000","NA","NA","218662","215758","NA","1617","215305","1618","1618","76058","109501","346985","345481","347958","136774","125014","170000","NA","18905","53472","168338","124796","215762","125018","NA","346984","346984","NA","NA","345476","NAP perception","37","43560","48","yes","1024"
"77.5510204082","yes","77.5510204082","914.326530612","914.326530612","white","no","xpyriment","Ich habe die obigen Informationen gelesen und verstanden.","legacy","legacy","0","uniform","1","0","0","undefined","undefined","1","j","2","1","NA","0","1","0","0","0","0","0","0","0","0","58","58","58","0","0","0","NA","0","0","2","0","0","0","2","58","58","58","58","58","Wed Oct  4 21:44:44 2017","Forced-choice identification task with a practice and an experimental phase","yes","NAP_GER_AA_4blocks_noglides.osexp","/Users/aviadalbert/Documents/Academisch/UoC/Dissertation/Experiment/OpenSesame/NAP-FC/NAP_GER_AA_4blocks_noglides","yes","no","sans","no","20","no","black","no","Weiter","yes","768","legacy","48","9","0","/Users/aviadalbert/Documents/Academisch/UoC/Dissertation/Experiment/OpenSesame/NAP-FC/NAP_GER_AA_4blocks_noglides/subject-10.csv","xpyriment","Jazzy James","3.1.9","yes","yes","59a800d99ad5a1025d81bb03","59a801616c613b0251691de0","no","no","0","j","f","space","NA","space","n","j","1242","2899","45250","NA","33439","15229","1242","2","legacy","1024","1","44100","-16","experiment","lefal","4","1","2","0","1","englsch","10","","even","215762","170000","NA","NA","218662","215758","NA","1617","215305","1618","1618","76058","109501","349733","348229","350977","136774","125014","170000","NA","18905","53472","168338","124796","215762","125018","NA","349733","349733","NA","NA","348225","NAP perception","38","44802","49","yes","1024"
"78","yes","78","909.42","909.42","white","no","xpyriment","Ich habe die obigen Informationen gelesen und verstanden.","legacy","legacy","0","uniform","1","0","0","undefined","undefined","1","f","2","1","NA","0","1","0","0","0","0","0","0","0","0","59","59","59","0","0","0","NA","0","0","2","0","0","0","2","59","59","59","59","59","Wed Oct  4 21:44:44 2017","Forced-choice identification task with a practice and an experimental phase","yes","NAP_GER_AA_4blocks_noglides.osexp","/Users/aviadalbert/Documents/Academisch/UoC/Dissertation/Experiment/OpenSesame/NAP-FC/NAP_GER_AA_4blocks_noglides","yes","no","sans","no","20","no","black","no","Weiter","yes","768","legacy","49","9","0","/Users/aviadalbert/Documents/Academisch/UoC/Dissertation/Experiment/OpenSesame/NAP-FC/NAP_GER_AA_4blocks_noglides/subject-10.csv","xpyriment","Jazzy James","3.1.9","yes","yes","59a800d99ad5a1025d81bb03","59a801616c613b0251691de0","no","no","0","f","f","space","NA","space","n","f","669","2899","45250","NA","33439","15229","669","2","legacy","1024","1","44100","-16","experiment","vlal","4","1","2","0","1","englsch","10","","even","215762","170000","NA","NA","218662","215758","NA","1617","215305","1618","1618","76058","109501","352765","351261","353436","136774","125014","170000","NA","18905","53472","168338","124796","215762","125018","NA","352764","352764","NA","NA","351257","NAP perception","39","45471","50","yes","1024"
"78.431372549","yes","78.431372549","910.098039216","910.098039216","white","no","xpyriment","Ich habe die obigen Informationen gelesen und verstanden.","legacy","legacy","0","uniform","1","0","0","undefined","undefined","1","j","2","1","NA","0","1","0","0","0","0","0","0","0","0","60","60","60","0","0","0","NA","0","0","2","0","0","0","2","60","60","60","60","60","Wed Oct  4 21:44:44 2017","Forced-choice identification task with a practice and an experimental phase","yes","NAP_GER_AA_4blocks_noglides.osexp","/Users/aviadalbert/Documents/Academisch/UoC/Dissertation/Experiment/OpenSesame/NAP-FC/NAP_GER_AA_4blocks_noglides","yes","no","sans","no","20","no","black","no","Weiter","yes","768","legacy","50","9","0","/Users/aviadalbert/Documents/Academisch/UoC/Dissertation/Experiment/OpenSesame/NAP-FC/NAP_GER_AA_4blocks_noglides/subject-10.csv","xpyriment","Jazzy James","3.1.9","yes","yes","59a800d99ad5a1025d81bb03","59a801616c613b0251691de0","no","no","0","j","f","space","NA","space","n","j","944","2899","45250","NA","33439","15229","944","2","legacy","1024","1","44100","-16","experiment","ʃepal","4","1","2","0","1","englsch","10","","even","215762","170000","NA","NA","218662","215758","NA","1617","215305","1618","1618","76058","109501","355215","353711","356161","136774","125014","170000","NA","18905","53472","168338","124796","215762","125018","NA","355214","355214","NA","NA","353707","NAP perception","40","46415","51","yes","1024"
"78.8461538462","yes","78.8461538462","902.942307692","902.942307692","white","no","xpyriment","Ich habe die obigen Informationen gelesen und verstanden.","legacy","legacy","0","uniform","1","0","0","undefined","undefined","1","f","2","1","NA","0","1","0","0","0","0","0","0","0","0","61","61","61","0","0","0","NA","0","0","2","0","0","0","2","61","61","61","61","61","Wed Oct  4 21:44:44 2017","Forced-choice identification task with a practice and an experimental phase","yes","NAP_GER_AA_4blocks_noglides.osexp","/Users/aviadalbert/Documents/Academisch/UoC/Dissertation/Experiment/OpenSesame/NAP-FC/NAP_GER_AA_4blocks_noglides","yes","no","sans","no","20","no","black","no","Weiter","yes","768","legacy","51","9","0","/Users/aviadalbert/Documents/Academisch/UoC/Dissertation/Experiment/OpenSesame/NAP-FC/NAP_GER_AA_4blocks_noglides/subject-10.csv","xpyriment","Jazzy James","3.1.9","yes","yes","59a800d99ad5a1025d81bb03","59a801616c613b0251691de0","no","no","0","f","f","space","NA","space","n","f","538","2899","45250","NA","33439","15229","538","2","legacy","1024","1","44100","-16","experiment","sfal","4","1","2","0","1","englsch","10","","even","215762","170000","NA","NA","218662","215758","NA","1617","215305","1618","1618","76058","109501","357939","356435","358479","136774","125014","170000","NA","18905","53472","168338","124796","215762","125018","NA","357938","357938","NA","NA","356431","NAP perception","41","46953","52","yes","1024"
"77.358490566","yes","77.358490566","906.79245283","906.79245283","white","no","xpyriment","Ich habe die obigen Informationen gelesen und verstanden.","legacy","legacy","0","uniform","0","0","0","undefined","undefined","0","f","2","1","NA","0","1","0","0","0","0","0","0","0","0","62","62","62","0","0","0","NA","0","0","2","0","0","0","2","62","62","62","62","62","Wed Oct  4 21:44:44 2017","Forced-choice identification task with a practice and an experimental phase","yes","NAP_GER_AA_4blocks_noglides.osexp","/Users/aviadalbert/Documents/Academisch/UoC/Dissertation/Experiment/OpenSesame/NAP-FC/NAP_GER_AA_4blocks_noglides","yes","no","sans","no","20","no","black","no","Weiter","yes","768","legacy","52","9","0","/Users/aviadalbert/Documents/Academisch/UoC/Dissertation/Experiment/OpenSesame/NAP-FC/NAP_GER_AA_4blocks_noglides/subject-10.csv","xpyriment","Jazzy James","3.1.9","yes","yes","59a800d99ad5a1025d81bb03","59a801616c613b0251691de0","no","no","0","j","f","space","NA","space","n","j","1107","2899","45250","NA","33439","15229","1107","2","legacy","1024","1","44100","-16","experiment","lkal","4","1","2","0","1","englsch","10","","even","215762","170000","NA","NA","218662","215758","NA","1617","215305","1618","1618","76058","109501","360267","358762","361375","136774","125014","170000","NA","18905","53472","168338","124796","215762","125018","NA","360267","360267","NA","NA","358758","NAP perception","41","48060","53","yes","1024"
"77.7777777778","yes","77.7777777778","910.222222222","910.222222222","white","no","xpyriment","Ich habe die obigen Informationen gelesen und verstanden.","legacy","legacy","0","uniform","1","0","0","undefined","undefined","1","j","2","1","NA","0","1","0","0","0","0","0","0","0","0","63","63","63","0","0","0","NA","0","0","2","0","0","0","2","63","63","63","63","63","Wed Oct  4 21:44:44 2017","Forced-choice identification task with a practice and an experimental phase","yes","NAP_GER_AA_4blocks_noglides.osexp","/Users/aviadalbert/Documents/Academisch/UoC/Dissertation/Experiment/OpenSesame/NAP-FC/NAP_GER_AA_4blocks_noglides","yes","no","sans","no","20","no","black","no","Weiter","yes","768","legacy","53","9","0","/Users/aviadalbert/Documents/Academisch/UoC/Dissertation/Experiment/OpenSesame/NAP-FC/NAP_GER_AA_4blocks_noglides/subject-10.csv","xpyriment","Jazzy James","3.1.9","yes","yes","59a800d99ad5a1025d81bb03","59a801616c613b0251691de0","no","no","0","j","f","space","NA","space","n","j","1092","2899","45250","NA","33439","15229","1092","2","legacy","1024","1","44100","-16","experiment","leval","4","1","2","0","1","englsch","10","","even","215762","170000","NA","NA","218662","215758","NA","1617","215305","1618","1618","76058","109501","363161","361656","364254","136774","125014","170000","NA","18905","53472","168338","124796","215762","125018","NA","363161","363161","NA","NA","361652","NAP perception","42","49152","54","yes","1024"
"78.1818181818","yes","78.1818181818","909.490909091","909.490909091","white","no","xpyriment","Ich habe die obigen Informationen gelesen und verstanden.","legacy","legacy","0","uniform","1","0","0","undefined","undefined","1","f","2","1","NA","0","1","0","0","0","0","0","0","0","0","64","64","64","0","0","0","NA","0","0","2","0","0","0","2","64","64","64","64","64","Wed Oct  4 21:44:44 2017","Forced-choice identification task with a practice and an experimental phase","yes","NAP_GER_AA_4blocks_noglides.osexp","/Users/aviadalbert/Documents/Academisch/UoC/Dissertation/Experiment/OpenSesame/NAP-FC/NAP_GER_AA_4blocks_noglides","yes","no","sans","no","20","no","black","no","Weiter","yes","768","legacy","54","9","0","/Users/aviadalbert/Documents/Academisch/UoC/Dissertation/Experiment/OpenSesame/NAP-FC/NAP_GER_AA_4blocks_noglides/subject-10.csv","xpyriment","Jazzy James","3.1.9","yes","yes","59a800d99ad5a1025d81bb03","59a801616c613b0251691de0","no","no","0","f","f","space","NA","space","n","f","870","2899","45250","NA","33439","15229","870","2","legacy","1024","1","44100","-16","experiment","vzal","4","1","2","0","1","englsch","10","","even","215762","170000","NA","NA","218662","215758","NA","1617","215305","1618","1618","76058","109501","366028","364522","366899","136774","125014","170000","NA","18905","53472","168338","124796","215762","125018","NA","366028","366028","NA","NA","364518","NAP perception","43","50022","55","yes","1024"
"78.5714285714","yes","78.5714285714","907","907","white","no","xpyriment","Ich habe die obigen Informationen gelesen und verstanden.","legacy","legacy","0","uniform","1","0","0","undefined","undefined","1","j","2","1","NA","0","1","0","0","0","0","0","0","0","0","65","65","65","0","0","0","NA","0","0","2","0","0","0","2","65","65","65","65","65","Wed Oct  4 21:44:44 2017","Forced-choice identification task with a practice and an experimental phase","yes","NAP_GER_AA_4blocks_noglides.osexp","/Users/aviadalbert/Documents/Academisch/UoC/Dissertation/Experiment/OpenSesame/NAP-FC/NAP_GER_AA_4blocks_noglides","yes","no","sans","no","20","no","black","no","Weiter","yes","768","legacy","55","9","0","/Users/aviadalbert/Documents/Academisch/UoC/Dissertation/Experiment/OpenSesame/NAP-FC/NAP_GER_AA_4blocks_noglides/subject-10.csv","xpyriment","Jazzy James","3.1.9","yes","yes","59a800d99ad5a1025d81bb03","59a801616c613b0251691de0","no","no","0","j","f","space","NA","space","n","j","770","2899","45250","NA","33439","15229","770","2","legacy","1024","1","44100","-16","experiment","emtal","4","1","2","0","1","englsch","10","","even","215762","170000","NA","NA","218662","215758","NA","1617","215305","1618","1618","76058","109501","368695","367188","369466","136774","125014","170000","NA","18905","53472","168338","124796","215762","125018","NA","368695","368695","NA","NA","367184","NAP perception","44","50792","56","yes","1024"
"78.9473684211","yes","78.9473684211","910.684210526","910.684210526","white","no","xpyriment","Ich habe die obigen Informationen gelesen und verstanden.","legacy","legacy","0","uniform","1","0","0","undefined","undefined","1","j","2","1","NA","0","1","0","0","0","0","0","0","0","0","66","66","66","0","0","0","NA","0","0","2","0","0","0","2","66","66","66","66","66","Wed Oct  4 21:44:44 2017","Forced-choice identification task with a practice and an experimental phase","yes","NAP_GER_AA_4blocks_noglides.osexp","/Users/aviadalbert/Documents/Academisch/UoC/Dissertation/Experiment/OpenSesame/NAP-FC/NAP_GER_AA_4blocks_noglides","yes","no","sans","no","20","no","black","no","Weiter","yes","768","legacy","56","9","0","/Users/aviadalbert/Documents/Academisch/UoC/Dissertation/Experiment/OpenSesame/NAP-FC/NAP_GER_AA_4blocks_noglides/subject-10.csv","xpyriment","Jazzy James","3.1.9","yes","yes","59a800d99ad5a1025d81bb03","59a801616c613b0251691de0","no","no","0","j","f","space","NA","space","n","j","1117","2899","45250","NA","33439","15229","1117","2","legacy","1024","1","44100","-16","experiment","evzal","4","1","2","0","1","englsch","10","","even","215762","170000","NA","NA","218662","215758","NA","1617","215305","1618","1618","76058","109501","371265","369761","372383","136774","125014","170000","NA","18905","53472","168338","124796","215762","125018","NA","371265","371265","NA","NA","369757","NAP perception","45","51909","57","yes","1024"
