"acc","accept_status","accuracy","average_response_time","avg_rt","background","bidi","canvas_backend","checkbox_status","clock_backend","color_backend","compensation","coordinates","correct","correct_block_activation","correct_block_exit","correct_instructions_1","correct_instructions_2","correct_keyboard_response","correct_response","count_block_activation","count_block_exit","count_block_info_QA","count_cont_e_block_message","count_e_block_loop","count_e_block_sequence","count_end_of_experiment","count_experiment","count_experimental_loop","count_form_consent","count_info_forms","count_instructions_1","count_instructions_2","count_keyboard_response","count_listen_message","count_logger","count_p_block_loop","count_p_block_sequence","count_p_feedback","count_pause_feedback","count_personal_details_form_1","count_personal_details_form_2","count_post_loop_blank","count_practice_loop","count_pre_e_block_message","count_pre_p_block_message","count_reset_feedback","count_stimulus_image","count_stimulus_sound","count_timeout_message","count_timeout_sound","count_trial_sequence","datetime","description","disable_garbage_collection","experiment_file","experiment_path","expyriment_opengl","font_bold","font_family","font_italic","font_size","font_underline","foreground","form_clicks","form_response","fullscreen","height","keyboard_backend","live_row","live_row_p_block_loop","live_row_practice_loop","logfile","mouse_backend","opensesame_codename","opensesame_version","osf_always_upload_data","osf_always_upload_experiment","osf_datanode_id","osf_id","practice","pygame_doublebuf","repeat_cycle","response","response_block_activation","response_block_exit","response_block_info_QA","response_instructions_1","response_instructions_2","response_keyboard_response","response_time","response_time_block_activation","response_time_block_exit","response_time_block_info_QA","response_time_instructions_1","response_time_instructions_2","response_time_keyboard_response","round_decimals","sampler_backend","sound_buf_size","sound_channels","sound_freq","sound_sample_size","start","stimulus","subject_age","subject_education","subject_gender","subject_german_native","subject_handedness","subject_language_other","subject_nr","subject_other_native_lang","subject_parity","time_block_activation","time_block_exit","time_block_info_QA","time_cont_e_block_message","time_e_block_loop","time_e_block_sequence","time_end_of_experiment","time_experiment","time_experimental_loop","time_form_consent","time_info_forms","time_instructions_1","time_instructions_2","time_keyboard_response","time_listen_message","time_logger","time_p_block_loop","time_p_block_sequence","time_p_feedback","time_pause_feedback","time_personal_details_form_1","time_personal_details_form_2","time_post_loop_blank","time_practice_loop","time_pre_e_block_message","time_pre_p_block_message","time_reset_feedback","time_stimulus_image","time_stimulus_sound","time_timeout_message","time_timeout_sound","time_trial_sequence","title","total_correct","total_response_time","total_responses","uniform_coordinates","width"
"100","yes","100","1208","1208","white","no","xpyriment","Ich habe die obigen Informationen gelesen und verstanden.","legacy","legacy","0","uniform","1","0","NA","undefined","undefined","1","f","0","0","NA","NA","NA","NA","NA","0","0","0","0","0","0","0","0","0","0","0","NA","NA","0","0","0","0","NA","0","0","0","0","0","0","0","Thu Nov  2 11:48:19 2017","Forced-choice identification task with a practice and an experimental phase","yes","NAP_GER_AA_4blocks_noglides.osexp","/Users/aviadalbert/Documents/Academisch/UoC/Dissertation/Experiment/OpenSesame/NAP-FC/NAP_GER_AA_4blocks_noglides","yes","no","sans","no","20","no","black","no","Weiter","yes","768","legacy","0","0","0","/Users/aviadalbert/Documents/Academisch/UoC/Dissertation/Experiment/OpenSesame/NAP-FC/NAP_GER_AA_4blocks_noglides/subject-34.csv","xpyriment","Jazzy James","3.1.9","yes","yes","59a800d99ad5a1025d81bb03","59a801616c613b0251691de0","yes","no","0","f","j","NA","NA","return","j","f","1208","2074","NA","NA","39391","6329","1208","2","legacy","1024","1","44100","-16","experiment","flal","2","1","1","0","1","eng, french","34","","even","539340","NA","NA","NA","NA","NA","NA","1872","NA","1872","1872","493290","532685","543141","541637","544350","541415","539336","NA","NA","441583","482177","NA","539079","NA","539340","NA","543140","543140","NA","NA","541633","NAP perception","1","1208","1","yes","1024"
"100","yes","100","1169.5","1169.5","white","no","xpyriment","Ich habe die obigen Informationen gelesen und verstanden.","legacy","legacy","0","uniform","1","0","NA","undefined","undefined","1","j","0","0","NA","NA","NA","NA","NA","0","0","0","0","0","0","1","1","1","0","0","NA","NA","0","0","0","0","NA","0","0","1","1","1","1","1","Thu Nov  2 11:48:19 2017","Forced-choice identification task with a practice and an experimental phase","yes","NAP_GER_AA_4blocks_noglides.osexp","/Users/aviadalbert/Documents/Academisch/UoC/Dissertation/Experiment/OpenSesame/NAP-FC/NAP_GER_AA_4blocks_noglides","yes","no","sans","no","20","no","black","no","Weiter","yes","768","legacy","1","1","0","/Users/aviadalbert/Documents/Academisch/UoC/Dissertation/Experiment/OpenSesame/NAP-FC/NAP_GER_AA_4blocks_noglides/subject-34.csv","xpyriment","Jazzy James","3.1.9","yes","yes","59a800d99ad5a1025d81bb03","59a801616c613b0251691de0","yes","no","0","j","j","NA","NA","return","j","j","1131","2074","NA","NA","39391","6329","1131","2","legacy","1024","1","44100","-16","experiment","lepal","2","1","1","0","1","eng, french","34","","even","539340","NA","NA","NA","NA","NA","NA","1872","NA","1872","1872","493290","532685","546126","544622","547258","541415","539336","NA","NA","441583","482177","NA","539079","NA","539340","NA","546125","546125","NA","NA","544618","NAP perception","2","2339","2","yes","1024"
"100","yes","100","1196","1196","white","no","xpyriment","Ich habe die obigen Informationen gelesen und verstanden.","legacy","legacy","0","uniform","1","0","NA","undefined","undefined","1","j","0","0","NA","NA","NA","NA","NA","0","0","0","0","0","0","2","2","2","0","0","NA","NA","0","0","0","0","NA","0","0","2","2","2","2","2","Thu Nov  2 11:48:19 2017","Forced-choice identification task with a practice and an experimental phase","yes","NAP_GER_AA_4blocks_noglides.osexp","/Users/aviadalbert/Documents/Academisch/UoC/Dissertation/Experiment/OpenSesame/NAP-FC/NAP_GER_AA_4blocks_noglides","yes","no","sans","no","20","no","black","no","Weiter","yes","768","legacy","2","2","0","/Users/aviadalbert/Documents/Academisch/UoC/Dissertation/Experiment/OpenSesame/NAP-FC/NAP_GER_AA_4blocks_noglides/subject-34.csv","xpyriment","Jazzy James","3.1.9","yes","yes","59a800d99ad5a1025d81bb03","59a801616c613b0251691de0","yes","no","0","j","j","NA","NA","return","j","j","1249","2074","NA","NA","39391","6329","1249","2","legacy","1024","1","44100","-16","experiment","emtal","2","1","1","0","1","eng, french","34","","even","539340","NA","NA","NA","NA","NA","NA","1872","NA","1872","1872","493290","532685","549027","547522","550277","541415","539336","NA","NA","441583","482177","NA","539079","NA","539340","NA","549027","549027","NA","NA","547518","NAP perception","3","3588","3","yes","1024"
"100","yes","100","1160.75","1160.75","white","no","xpyriment","Ich habe die obigen Informationen gelesen und verstanden.","legacy","legacy","0","uniform","1","0","NA","undefined","undefined","1","f","0","0","NA","NA","NA","NA","NA","0","0","0","0","0","0","3","3","3","0","0","NA","NA","0","0","0","0","NA","0","0","3","3","3","3","3","Thu Nov  2 11:48:19 2017","Forced-choice identification task with a practice and an experimental phase","yes","NAP_GER_AA_4blocks_noglides.osexp","/Users/aviadalbert/Documents/Academisch/UoC/Dissertation/Experiment/OpenSesame/NAP-FC/NAP_GER_AA_4blocks_noglides","yes","no","sans","no","20","no","black","no","Weiter","yes","768","legacy","3","3","0","/Users/aviadalbert/Documents/Academisch/UoC/Dissertation/Experiment/OpenSesame/NAP-FC/NAP_GER_AA_4blocks_noglides/subject-34.csv","xpyriment","Jazzy James","3.1.9","yes","yes","59a800d99ad5a1025d81bb03","59a801616c613b0251691de0","yes","no","0","f","j","NA","NA","return","j","f","1055","2074","NA","NA","39391","6329","1055","2","legacy","1024","1","44100","-16","experiment","ﾊパal","2","1","1","0","1","eng, french","34","","even","539340","NA","NA","NA","NA","NA","NA","1872","NA","1872","1872","493290","532685","552059","550555","553115","541415","539336","NA","NA","441583","482177","NA","539079","NA","539340","NA","552058","552058","NA","NA","550551","NAP perception","4","4643","4","yes","1024"
"100","yes","100","1104.4","1104.4","white","no","xpyriment","Ich habe die obigen Informationen gelesen und verstanden.","legacy","legacy","0","uniform","1","0","NA","undefined","undefined","1","j","0","0","NA","NA","NA","NA","NA","0","0","0","0","0","0","4","4","4","0","0","NA","NA","0","0","0","0","NA","0","0","4","4","4","4","4","Thu Nov  2 11:48:19 2017","Forced-choice identification task with a practice and an experimental phase","yes","NAP_GER_AA_4blocks_noglides.osexp","/Users/aviadalbert/Documents/Academisch/UoC/Dissertation/Experiment/OpenSesame/NAP-FC/NAP_GER_AA_4blocks_noglides","yes","no","sans","no","20","no","black","no","Weiter","yes","768","legacy","4","4","0","/Users/aviadalbert/Documents/Academisch/UoC/Dissertation/Experiment/OpenSesame/NAP-FC/NAP_GER_AA_4blocks_noglides/subject-34.csv","xpyriment","Jazzy James","3.1.9","yes","yes","59a800d99ad5a1025d81bb03","59a801616c613b0251691de0","yes","no","0","j","j","NA","NA","return","j","j","879","2074","NA","NA","39391","6329","879","2","legacy","1024","1","44100","-16","experiment","nefal","2","1","1","0","1","eng, french","34","","even","539340","NA","NA","NA","NA","NA","NA","1872","NA","1872","1872","493290","532685","554891","553384","555771","541415","539336","NA","NA","441583","482177","NA","539079","NA","539340","NA","554890","554891","NA","NA","553380","NAP perception","5","5522","5","yes","1024"
"100","yes","100","1074.16666667","1074.16666667","white","no","xpyriment","Ich habe die obigen Informationen gelesen und verstanden.","legacy","legacy","0","uniform","1","0","NA","undefined","undefined","1","f","0","0","NA","NA","NA","NA","NA","0","0","0","0","0","0","5","5","5","0","0","NA","NA","0","0","0","0","NA","0","0","5","5","5","5","5","Thu Nov  2 11:48:19 2017","Forced-choice identification task with a practice and an experimental phase","yes","NAP_GER_AA_4blocks_noglides.osexp","/Users/aviadalbert/Documents/Academisch/UoC/Dissertation/Experiment/OpenSesame/NAP-FC/NAP_GER_AA_4blocks_noglides","yes","no","sans","no","20","no","black","no","Weiter","yes","768","legacy","5","5","0","/Users/aviadalbert/Documents/Academisch/UoC/Dissertation/Experiment/OpenSesame/NAP-FC/NAP_GER_AA_4blocks_noglides/subject-34.csv","xpyriment","Jazzy James","3.1.9","yes","yes","59a800d99ad5a1025d81bb03","59a801616c613b0251691de0","yes","no","0","f","j","NA","NA","return","j","f","923","2074","NA","NA","39391","6329","923","2","legacy","1024","1","44100","-16","experiment","sfal","2","1","1","0","1","eng, french","34","","even","539340","NA","NA","NA","NA","NA","NA","1872","NA","1872","1872","493290","532685","557555","556050","558479","541415","539336","NA","NA","441583","482177","NA","539079","NA","539340","NA","557555","557555","NA","NA","556046","NAP perception","6","6445","6","yes","1024"
"100","yes","100","1078.42857143","1078.42857143","white","no","xpyriment","Ich habe die obigen Informationen gelesen und verstanden.","legacy","legacy","0","uniform","1","0","NA","undefined","undefined","1","f","0","0","NA","NA","NA","NA","NA","0","0","0","0","0","0","6","6","6","0","0","NA","NA","0","0","0","0","NA","0","0","6","6","6","6","6","Thu Nov  2 11:48:19 2017","Forced-choice identification task with a practice and an experimental phase","yes","NAP_GER_AA_4blocks_noglides.osexp","/Users/aviadalbert/Documents/Academisch/UoC/Dissertation/Experiment/OpenSesame/NAP-FC/NAP_GER_AA_4blocks_noglides","yes","no","sans","no","20","no","black","no","Weiter","yes","768","legacy","6","6","0","/Users/aviadalbert/Documents/Academisch/UoC/Dissertation/Experiment/OpenSesame/NAP-FC/NAP_GER_AA_4blocks_noglides/subject-34.csv","xpyriment","Jazzy James","3.1.9","yes","yes","59a800d99ad5a1025d81bb03","59a801616c613b0251691de0","yes","no","0","f","j","NA","NA","return","j","f","1104","2074","NA","NA","39391","6329","1104","2","legacy","1024","1","44100","-16","experiment","zmal","2","1","1","0","1","eng, french","34","","even","539340","NA","NA","NA","NA","NA","NA","1872","NA","1872","1872","493290","532685","560267","558763","561373","541415","539336","NA","NA","441583","482177","NA","539079","NA","539340","NA","560266","560266","NA","NA","558759","NAP perception","7","7549","7","yes","1024"
"100","yes","100","1067.875","1067.875","white","no","xpyriment","Ich habe die obigen Informationen gelesen und verstanden.","legacy","legacy","0","uniform","1","0","NA","undefined","undefined","1","j","0","0","NA","NA","NA","NA","NA","0","0","0","0","0","0","7","7","7","0","0","NA","NA","0","0","0","0","NA","0","0","7","7","7","7","7","Thu Nov  2 11:48:19 2017","Forced-choice identification task with a practice and an experimental phase","yes","NAP_GER_AA_4blocks_noglides.osexp","/Users/aviadalbert/Documents/Academisch/UoC/Dissertation/Experiment/OpenSesame/NAP-FC/NAP_GER_AA_4blocks_noglides","yes","no","sans","no","20","no","black","no","Weiter","yes","768","legacy","7","7","0","/Users/aviadalbert/Documents/Academisch/UoC/Dissertation/Experiment/OpenSesame/NAP-FC/NAP_GER_AA_4blocks_noglides/subject-34.csv","xpyriment","Jazzy James","3.1.9","yes","yes","59a800d99ad5a1025d81bb03","59a801616c613b0251691de0","yes","no","0","j","j","NA","NA","return","j","j","994","2074","NA","NA","39391","6329","994","2","legacy","1024","1","44100","-16","experiment","mesal","2","1","1","0","1","eng, french","34","","even","539340","NA","NA","NA","NA","NA","NA","1872","NA","1872","1872","493290","532685","563165","561660","564160","541415","539336","NA","NA","441583","482177","NA","539079","NA","539340","NA","563165","563165","NA","NA","561656","NAP perception","8","8543","8","yes","1024"
"100","yes","100","1075","1075","white","no","xpyriment","Ich habe die obigen Informationen gelesen und verstanden.","legacy","legacy","0","uniform","1","0","NA","undefined","undefined","1","j","0","0","NA","NA","NA","NA","NA","0","0","0","0","0","0","8","8","8","0","0","NA","NA","0","0","0","0","NA","0","0","8","8","8","8","8","Thu Nov  2 11:48:19 2017","Forced-choice identification task with a practice and an experimental phase","yes","NAP_GER_AA_4blocks_noglides.osexp","/Users/aviadalbert/Documents/Academisch/UoC/Dissertation/Experiment/OpenSesame/NAP-FC/NAP_GER_AA_4blocks_noglides","yes","no","sans","no","20","no","black","no","Weiter","yes","768","legacy","8","8","0","/Users/aviadalbert/Documents/Academisch/UoC/Dissertation/Experiment/OpenSesame/NAP-FC/NAP_GER_AA_4blocks_noglides/subject-34.csv","xpyriment","Jazzy James","3.1.9","yes","yes","59a800d99ad5a1025d81bb03","59a801616c613b0251691de0","yes","no","0","j","j","NA","NA","return","j","j","1132","2074","NA","NA","39391","6329","1132","2","legacy","1024","1","44100","-16","experiment","enval","2","1","1","0","1","eng, french","34","","even","539340","NA","NA","NA","NA","NA","NA","1872","NA","1872","1872","493290","532685","565943","564435","567076","541415","539336","NA","NA","441583","482177","NA","539079","NA","539340","NA","565943","565943","NA","NA","564431","NAP perception","9","9675","9","yes","1024"
"100","yes","100","1083.4","1083.4","white","no","xpyriment","Ich habe die obigen Informationen gelesen und verstanden.","legacy","legacy","0","uniform","1","0","NA","undefined","undefined","1","f","0","0","NA","NA","NA","NA","NA","0","0","0","0","0","0","9","9","9","0","0","NA","NA","0","0","0","0","NA","0","0","9","9","9","9","9","Thu Nov  2 11:48:19 2017","Forced-choice identification task with a practice and an experimental phase","yes","NAP_GER_AA_4blocks_noglides.osexp","/Users/aviadalbert/Documents/Academisch/UoC/Dissertation/Experiment/OpenSesame/NAP-FC/NAP_GER_AA_4blocks_noglides","yes","no","sans","no","20","no","black","no","Weiter","yes","768","legacy","9","9","0","/Users/aviadalbert/Documents/Academisch/UoC/Dissertation/Experiment/OpenSesame/NAP-FC/NAP_GER_AA_4blocks_noglides/subject-34.csv","xpyriment","Jazzy James","3.1.9","yes","yes","59a800d99ad5a1025d81bb03","59a801616c613b0251691de0","yes","no","0","f","j","NA","NA","return","j","f","1159","2074","NA","NA","39391","6329","1159","2","legacy","1024","1","44100","-16","experiment","vlal","2","1","1","0","1","eng, french","34","","even","539340","NA","NA","NA","NA","NA","NA","1872","NA","1872","1872","493290","532685","568846","567338","570007","541415","539336","NA","NA","441583","482177","NA","539079","NA","539340","NA","568846","568846","NA","NA","567333","NAP perception","10","10834","10","yes","1024"
"100","yes","100","1212","1212","white","no","xpyriment","Ich habe die obigen Informationen gelesen und verstanden.","legacy","legacy","0","uniform","1","0","0","undefined","undefined","1","j","2","1","NA","0","1","0","0","0","0","0","0","0","0","10","10","10","0","0","0","NA","0","0","2","0","0","0","2","10","10","10","10","10","Thu Nov  2 11:48:19 2017","Forced-choice identification task with a practice and an experimental phase","yes","NAP_GER_AA_4blocks_noglides.osexp","/Users/aviadalbert/Documents/Academisch/UoC/Dissertation/Experiment/OpenSesame/NAP-FC/NAP_GER_AA_4blocks_noglides","yes","no","sans","no","20","no","black","no","Weiter","yes","768","legacy","0","9","0","/Users/aviadalbert/Documents/Academisch/UoC/Dissertation/Experiment/OpenSesame/NAP-FC/NAP_GER_AA_4blocks_noglides/subject-34.csv","xpyriment","Jazzy James","3.1.9","yes","yes","59a800d99ad5a1025d81bb03","59a801616c613b0251691de0","no","no","0","j","j","space","NA","return","j","j","1212","1415","17851","NA","39391","6329","1212","2","legacy","1024","1","44100","-16","experiment","nemal","2","1","1","0","1","eng, french","34","","even","590113","571733","NA","NA","591530","590109","NA","1872","589642","1872","1872","493290","532685","593243","591738","594457","541415","539336","571733","NA","441583","482177","570072","539079","590113","539340","NA","593242","593242","NA","NA","591735","NAP perception","1","1212","1","yes","1024"
"100","yes","100","1303","1303","white","no","xpyriment","Ich habe die obigen Informationen gelesen und verstanden.","legacy","legacy","0","uniform","1","0","0","undefined","undefined","1","f","2","1","NA","0","1","0","0","0","0","0","0","0","0","11","11","11","0","0","0","NA","0","0","2","0","0","0","2","11","11","11","11","11","Thu Nov  2 11:48:19 2017","Forced-choice identification task with a practice and an experimental phase","yes","NAP_GER_AA_4blocks_noglides.osexp","/Users/aviadalbert/Documents/Academisch/UoC/Dissertation/Experiment/OpenSesame/NAP-FC/NAP_GER_AA_4blocks_noglides","yes","no","sans","no","20","no","black","no","Weiter","yes","768","legacy","1","9","0","/Users/aviadalbert/Documents/Academisch/UoC/Dissertation/Experiment/OpenSesame/NAP-FC/NAP_GER_AA_4blocks_noglides/subject-34.csv","xpyriment","Jazzy James","3.1.9","yes","yes","59a800d99ad5a1025d81bb03","59a801616c613b0251691de0","no","no","0","f","j","space","NA","return","j","f","1394","1415","17851","NA","39391","6329","1394","2","legacy","1024","1","44100","-16","experiment","zmal","2","1","1","0","1","eng, french","34","","even","590113","571733","NA","NA","591530","590109","NA","1872","589642","1872","1872","493290","532685","596242","594738","597637","541415","539336","571733","NA","441583","482177","570072","539079","590113","539340","NA","596242","596242","NA","NA","594734","NAP perception","2","2606","2","yes","1024"
"66.6666666667","yes","66.6666666667","1603.66666667","1603.66666667","white","no","xpyriment","Ich habe die obigen Informationen gelesen und verstanden.","legacy","legacy","0","uniform","0","0","0","undefined","undefined","0","f","2","1","NA","0","1","0","0","0","0","0","0","0","0","12","12","12","0","0","0","NA","0","0","2","0","0","0","2","12","12","12","12","12","Thu Nov  2 11:48:19 2017","Forced-choice identification task with a practice and an experimental phase","yes","NAP_GER_AA_4blocks_noglides.osexp","/Users/aviadalbert/Documents/Academisch/UoC/Dissertation/Experiment/OpenSesame/NAP-FC/NAP_GER_AA_4blocks_noglides","yes","no","sans","no","20","no","black","no","Weiter","yes","768","legacy","2","9","0","/Users/aviadalbert/Documents/Academisch/UoC/Dissertation/Experiment/OpenSesame/NAP-FC/NAP_GER_AA_4blocks_noglides/subject-34.csv","xpyriment","Jazzy James","3.1.9","yes","yes","59a800d99ad5a1025d81bb03","59a801616c613b0251691de0","no","no","0","j","j","space","NA","return","j","j","2205","1415","17851","NA","39391","6329","2205","2","legacy","1024","1","44100","-16","experiment","npal","2","1","1","0","1","eng, french","34","","even","590113","571733","NA","NA","591530","590109","NA","1872","589642","1872","1872","493290","532685","599419","597915","601626","541415","539336","571733","NA","441583","482177","570072","539079","590113","539340","NA","599419","599419","NA","NA","597911","NAP perception","2","4811","3","yes","1024"
"75","yes","75","1669.75","1669.75","white","no","xpyriment","Ich habe die obigen Informationen gelesen und verstanden.","legacy","legacy","0","uniform","1","0","0","undefined","undefined","1","j","2","1","NA","0","1","0","0","0","0","0","0","0","0","13","13","13","0","0","0","NA","0","0","2","0","0","0","2","13","13","13","13","13","Thu Nov  2 11:48:19 2017","Forced-choice identification task with a practice and an experimental phase","yes","NAP_GER_AA_4blocks_noglides.osexp","/Users/aviadalbert/Documents/Academisch/UoC/Dissertation/Experiment/OpenSesame/NAP-FC/NAP_GER_AA_4blocks_noglides","yes","no","sans","no","20","no","black","no","Weiter","yes","768","legacy","3","9","0","/Users/aviadalbert/Documents/Academisch/UoC/Dissertation/Experiment/OpenSesame/NAP-FC/NAP_GER_AA_4blocks_noglides/subject-34.csv","xpyriment","Jazzy James","3.1.9","yes","yes","59a800d99ad5a1025d81bb03","59a801616c613b0251691de0","no","no","0","j","j","space","NA","return","j","j","1868","1415","17851","NA","39391","6329","1868","2","legacy","1024","1","44100","-16","experiment","evlal","2","1","1","0","1","eng, french","34","","even","590113","571733","NA","NA","591530","590109","NA","1872","589642","1872","1872","493290","532685","603387","601883","605256","541415","539336","571733","NA","441583","482177","570072","539079","590113","539340","NA","603386","603386","NA","NA","601879","NAP perception","3","6679","4","yes","1024"
"80","yes","80","1580.2","1580.2","white","no","xpyriment","Ich habe die obigen Informationen gelesen und verstanden.","legacy","legacy","0","uniform","1","0","0","undefined","undefined","1","j","2","1","NA","0","1","0","0","0","0","0","0","0","0","14","14","14","0","0","0","NA","0","0","2","0","0","0","2","14","14","14","14","14","Thu Nov  2 11:48:19 2017","Forced-choice identification task with a practice and an experimental phase","yes","NAP_GER_AA_4blocks_noglides.osexp","/Users/aviadalbert/Documents/Academisch/UoC/Dissertation/Experiment/OpenSesame/NAP-FC/NAP_GER_AA_4blocks_noglides","yes","no","sans","no","20","no","black","no","Weiter","yes","768","legacy","4","9","0","/Users/aviadalbert/Documents/Academisch/UoC/Dissertation/Experiment/OpenSesame/NAP-FC/NAP_GER_AA_4blocks_noglides/subject-34.csv","xpyriment","Jazzy James","3.1.9","yes","yes","59a800d99ad5a1025d81bb03","59a801616c613b0251691de0","no","no","0","j","j","space","NA","return","j","j","1222","1415","17851","NA","39391","6329","1222","2","legacy","1024","1","44100","-16","experiment","vezal","2","1","1","0","1","eng, french","34","","even","590113","571733","NA","NA","591530","590109","NA","1872","589642","1872","1872","493290","532685","607043","605539","608266","541415","539336","571733","NA","441583","482177","570072","539079","590113","539340","NA","607043","607043","NA","NA","605535","NAP perception","4","7901","5","yes","1024"
"83.3333333333","yes","83.3333333333","1695.5","1695.5","white","no","xpyriment","Ich habe die obigen Informationen gelesen und verstanden.","legacy","legacy","0","uniform","1","0","0","undefined","undefined","1","f","2","1","NA","0","1","0","0","0","0","0","0","0","0","15","15","15","0","0","0","NA","0","0","2","0","0","0","2","15","15","15","15","15","Thu Nov  2 11:48:19 2017","Forced-choice identification task with a practice and an experimental phase","yes","NAP_GER_AA_4blocks_noglides.osexp","/Users/aviadalbert/Documents/Academisch/UoC/Dissertation/Experiment/OpenSesame/NAP-FC/NAP_GER_AA_4blocks_noglides","yes","no","sans","no","20","no","black","no","Weiter","yes","768","legacy","5","9","0","/Users/aviadalbert/Documents/Academisch/UoC/Dissertation/Experiment/OpenSesame/NAP-FC/NAP_GER_AA_4blocks_noglides/subject-34.csv","xpyriment","Jazzy James","3.1.9","yes","yes","59a800d99ad5a1025d81bb03","59a801616c613b0251691de0","no","no","0","f","j","space","NA","return","j","f","2272","1415","17851","NA","39391","6329","2272","2","legacy","1024","1","44100","-16","experiment","ftal","2","1","1","0","1","eng, french","34","","even","590113","571733","NA","NA","591530","590109","NA","1872","589642","1872","1872","493290","532685","610043","608539","612316","541415","539336","571733","NA","441583","482177","570072","539079","590113","539340","NA","610043","610043","NA","NA","608535","NAP perception","5","10173","6","yes","1024"
"85.7142857143","yes","85.7142857143","1686.57142857","1686.57142857","white","no","xpyriment","Ich habe die obigen Informationen gelesen und verstanden.","legacy","legacy","0","uniform","1","0","0","undefined","undefined","1","f","2","1","NA","0","1","0","0","0","0","0","0","0","0","16","16","16","0","0","0","NA","0","0","2","0","0","0","2","16","16","16","16","16","Thu Nov  2 11:48:19 2017","Forced-choice identification task with a practice and an experimental phase","yes","NAP_GER_AA_4blocks_noglides.osexp","/Users/aviadalbert/Documents/Academisch/UoC/Dissertation/Experiment/OpenSesame/NAP-FC/NAP_GER_AA_4blocks_noglides","yes","no","sans","no","20","no","black","no","Weiter","yes","768","legacy","6","9","0","/Users/aviadalbert/Documents/Academisch/UoC/Dissertation/Experiment/OpenSesame/NAP-FC/NAP_GER_AA_4blocks_noglides/subject-34.csv","xpyriment","Jazzy James","3.1.9","yes","yes","59a800d99ad5a1025d81bb03","59a801616c613b0251691de0","no","no","0","f","j","space","NA","return","j","f","1633","1415","17851","NA","39391","6329","1633","2","legacy","1024","1","44100","-16","experiment","mnal","2","1","1","0","1","eng, french","34","","even","590113","571733","NA","NA","591530","590109","NA","1872","589642","1872","1872","493290","532685","614098","612594","615732","541415","539336","571733","NA","441583","482177","570072","539079","590113","539340","NA","614097","614098","NA","NA","612590","NAP perception","6","11806","7","yes","1024"
"87.5","yes","87.5","1587.5","1587.5","white","no","xpyriment","Ich habe die obigen Informationen gelesen und verstanden.","legacy","legacy","0","uniform","1","0","0","undefined","undefined","1","j","2","1","NA","0","1","0","0","0","0","0","0","0","0","17","17","17","0","0","0","NA","0","0","2","0","0","0","2","17","17","17","17","17","Thu Nov  2 11:48:19 2017","Forced-choice identification task with a practice and an experimental phase","yes","NAP_GER_AA_4blocks_noglides.osexp","/Users/aviadalbert/Documents/Academisch/UoC/Dissertation/Experiment/OpenSesame/NAP-FC/NAP_GER_AA_4blocks_noglides","yes","no","sans","no","20","no","black","no","Weiter","yes","768","legacy","7","9","0","/Users/aviadalbert/Documents/Academisch/UoC/Dissertation/Experiment/OpenSesame/NAP-FC/NAP_GER_AA_4blocks_noglides/subject-34.csv","xpyriment","Jazzy James","3.1.9","yes","yes","59a800d99ad5a1025d81bb03","59a801616c613b0251691de0","no","no","0","j","j","space","NA","return","j","j","894","1415","17851","NA","39391","6329","894","2","legacy","1024","1","44100","-16","experiment","zemal","2","1","1","0","1","eng, french","34","","even","590113","571733","NA","NA","591530","590109","NA","1872","589642","1872","1872","493290","532685","617507","616003","618402","541415","539336","571733","NA","441583","482177","570072","539079","590113","539340","NA","617506","617506","NA","NA","615999","NAP perception","7","12700","8","yes","1024"
"88.8888888889","yes","88.8888888889","1517.88888889","1517.88888889","white","no","xpyriment","Ich habe die obigen Informationen gelesen und verstanden.","legacy","legacy","0","uniform","1","0","0","undefined","undefined","1","f","2","1","NA","0","1","0","0","0","0","0","0","0","0","18","18","18","0","0","0","NA","0","0","2","0","0","0","2","18","18","18","18","18","Thu Nov  2 11:48:19 2017","Forced-choice identification task with a practice and an experimental phase","yes","NAP_GER_AA_4blocks_noglides.osexp","/Users/aviadalbert/Documents/Academisch/UoC/Dissertation/Experiment/OpenSesame/NAP-FC/NAP_GER_AA_4blocks_noglides","yes","no","sans","no","20","no","black","no","Weiter","yes","768","legacy","8","9","0","/Users/aviadalbert/Documents/Academisch/UoC/Dissertation/Experiment/OpenSesame/NAP-FC/NAP_GER_AA_4blocks_noglides/subject-34.csv","xpyriment","Jazzy James","3.1.9","yes","yes","59a800d99ad5a1025d81bb03","59a801616c613b0251691de0","no","no","0","f","j","space","NA","return","j","f","961","1415","17851","NA","39391","6329","961","2","legacy","1024","1","44100","-16","experiment","fnal","2","1","1","0","1","eng, french","34","","even","590113","571733","NA","NA","591530","590109","NA","1872","589642","1872","1872","493290","532685","620190","618686","621152","541415","539336","571733","NA","441583","482177","570072","539079","590113","539340","NA","620190","620190","NA","NA","618682","NAP perception","8","13661","9","yes","1024"
"80","yes","80","1540.5","1540.5","white","no","xpyriment","Ich habe die obigen Informationen gelesen und verstanden.","legacy","legacy","0","uniform","0","0","0","undefined","undefined","0","f","2","1","NA","0","1","0","0","0","0","0","0","0","0","19","19","19","0","0","0","NA","0","0","2","0","0","0","2","19","19","19","19","19","Thu Nov  2 11:48:19 2017","Forced-choice identification task with a practice and an experimental phase","yes","NAP_GER_AA_4blocks_noglides.osexp","/Users/aviadalbert/Documents/Academisch/UoC/Dissertation/Experiment/OpenSesame/NAP-FC/NAP_GER_AA_4blocks_noglides","yes","no","sans","no","20","no","black","no","Weiter","yes","768","legacy","9","9","0","/Users/aviadalbert/Documents/Academisch/UoC/Dissertation/Experiment/OpenSesame/NAP-FC/NAP_GER_AA_4blocks_noglides/subject-34.csv","xpyriment","Jazzy James","3.1.9","yes","yes","59a800d99ad5a1025d81bb03","59a801616c613b0251691de0","no","no","0","j","j","space","NA","return","j","j","1744","1415","17851","NA","39391","6329","1744","2","legacy","1024","1","44100","-16","experiment","msal","2","1","1","0","1","eng, french","34","","even","590113","571733","NA","NA","591530","590109","NA","1872","589642","1872","1872","493290","532685","622967","621462","624712","541415","539336","571733","NA","441583","482177","570072","539079","590113","539340","NA","622967","622967","NA","NA","621458","NAP perception","8","15405","10","yes","1024"
"81.8181818182","yes","81.8181818182","1502.27272727","1502.27272727","white","no","xpyriment","Ich habe die obigen Informationen gelesen und verstanden.","legacy","legacy","0","uniform","1","0","0","undefined","undefined","1","j","2","1","NA","0","1","0","0","0","0","0","0","0","0","20","20","20","0","0","0","NA","0","0","2","0","0","0","2","20","20","20","20","20","Thu Nov  2 11:48:19 2017","Forced-choice identification task with a practice and an experimental phase","yes","NAP_GER_AA_4blocks_noglides.osexp","/Users/aviadalbert/Documents/Academisch/UoC/Dissertation/Experiment/OpenSesame/NAP-FC/NAP_GER_AA_4blocks_noglides","yes","no","sans","no","20","no","black","no","Weiter","yes","768","legacy","10","9","0","/Users/aviadalbert/Documents/Academisch/UoC/Dissertation/Experiment/OpenSesame/NAP-FC/NAP_GER_AA_4blocks_noglides/subject-34.csv","xpyriment","Jazzy James","3.1.9","yes","yes","59a800d99ad5a1025d81bb03","59a801616c613b0251691de0","no","no","0","j","j","space","NA","return","j","j","1120","1415","17851","NA","39391","6329","1120","2","legacy","1024","1","44100","-16","experiment","enval","2","1","1","0","1","eng, french","34","","even","590113","571733","NA","NA","591530","590109","NA","1872","589642","1872","1872","493290","532685","626504","625000","627625","541415","539336","571733","NA","441583","482177","570072","539079","590113","539340","NA","626503","626503","NA","NA","624996","NAP perception","9","16525","11","yes","1024"
"83.3333333333","yes","83.3333333333","1565.83333333","1565.83333333","white","no","xpyriment","Ich habe die obigen Informationen gelesen und verstanden.","legacy","legacy","0","uniform","1","0","0","undefined","undefined","1","f","2","1","NA","0","1","0","0","0","0","0","0","0","0","21","21","21","0","0","0","NA","0","0","2","0","0","0","2","21","21","21","21","21","Thu Nov  2 11:48:19 2017","Forced-choice identification task with a practice and an experimental phase","yes","NAP_GER_AA_4blocks_noglides.osexp","/Users/aviadalbert/Documents/Academisch/UoC/Dissertation/Experiment/OpenSesame/NAP-FC/NAP_GER_AA_4blocks_noglides","yes","no","sans","no","20","no","black","no","Weiter","yes","768","legacy","11","9","0","/Users/aviadalbert/Documents/Academisch/UoC/Dissertation/Experiment/OpenSesame/NAP-FC/NAP_GER_AA_4blocks_noglides/subject-34.csv","xpyriment","Jazzy James","3.1.9","yes","yes","59a800d99ad5a1025d81bb03","59a801616c613b0251691de0","no","no","0","f","j","space","NA","return","j","f","2265","1415","17851","NA","39391","6329","2265","2","legacy","1024","1","44100","-16","experiment","mlal","2","1","1","0","1","eng, french","34","","even","590113","571733","NA","NA","591530","590109","NA","1872","589642","1872","1872","493290","532685","629397","627893","631663","541415","539336","571733","NA","441583","482177","570072","539079","590113","539340","NA","629396","629396","NA","NA","627888","NAP perception","10","18790","12","yes","1024"
"84.6153846154","yes","84.6153846154","1540.69230769","1540.69230769","white","no","xpyriment","Ich habe die obigen Informationen gelesen und verstanden.","legacy","legacy","0","uniform","1","0","0","undefined","undefined","1","j","2","1","NA","0","1","0","0","0","0","0","0","0","0","22","22","22","0","0","0","NA","0","0","2","0","0","0","2","22","22","22","22","22","Thu Nov  2 11:48:19 2017","Forced-choice identification task with a practice and an experimental phase","yes","NAP_GER_AA_4blocks_noglides.osexp","/Users/aviadalbert/Documents/Academisch/UoC/Dissertation/Experiment/OpenSesame/NAP-FC/NAP_GER_AA_4blocks_noglides","yes","no","sans","no","20","no","black","no","Weiter","yes","768","legacy","12","9","0","/Users/aviadalbert/Documents/Academisch/UoC/Dissertation/Experiment/OpenSesame/NAP-FC/NAP_GER_AA_4blocks_noglides/subject-34.csv","xpyriment","Jazzy James","3.1.9","yes","yes","59a800d99ad5a1025d81bb03","59a801616c613b0251691de0","no","no","0","j","j","space","NA","return","j","j","1239","1415","17851","NA","39391","6329","1239","2","legacy","1024","1","44100","-16","experiment","ezmal","2","1","1","0","1","eng, french","34","","even","590113","571733","NA","NA","591530","590109","NA","1872","589642","1872","1872","493290","532685","633435","631931","634675","541415","539336","571733","NA","441583","482177","570072","539079","590113","539340","NA","633434","633434","NA","NA","631926","NAP perception","11","20029","13","yes","1024"
"85.7142857143","yes","85.7142857143","1560.5","1560.5","white","no","xpyriment","Ich habe die obigen Informationen gelesen und verstanden.","legacy","legacy","0","uniform","1","0","0","undefined","undefined","1","f","2","1","NA","0","1","0","0","0","0","0","0","0","0","23","23","23","0","0","0","NA","0","0","2","0","0","0","2","23","23","23","23","23","Thu Nov  2 11:48:19 2017","Forced-choice identification task with a practice and an experimental phase","yes","NAP_GER_AA_4blocks_noglides.osexp","/Users/aviadalbert/Documents/Academisch/UoC/Dissertation/Experiment/OpenSesame/NAP-FC/NAP_GER_AA_4blocks_noglides","yes","no","sans","no","20","no","black","no","Weiter","yes","768","legacy","13","9","0","/Users/aviadalbert/Documents/Academisch/UoC/Dissertation/Experiment/OpenSesame/NAP-FC/NAP_GER_AA_4blocks_noglides/subject-34.csv","xpyriment","Jazzy James","3.1.9","yes","yes","59a800d99ad5a1025d81bb03","59a801616c613b0251691de0","no","no","0","f","j","space","NA","return","j","f","1818","1415","17851","NA","39391","6329","1818","2","legacy","1024","1","44100","-16","experiment","zval","2","1","1","0","1","eng, french","34","","even","590113","571733","NA","NA","591530","590109","NA","1872","589642","1872","1872","493290","532685","636451","634945","638270","541415","539336","571733","NA","441583","482177","570072","539079","590113","539340","NA","636451","636451","NA","NA","634941","NAP perception","12","21847","14","yes","1024"
"86.6666666667","yes","86.6666666667","1653.13333333","1653.13333333","white","no","xpyriment","Ich habe die obigen Informationen gelesen und verstanden.","legacy","legacy","0","uniform","1","0","0","undefined","undefined","1","f","2","1","NA","0","1","0","0","0","0","0","0","0","0","24","24","24","0","0","0","NA","0","0","2","0","0","0","2","24","24","24","24","24","Thu Nov  2 11:48:19 2017","Forced-choice identification task with a practice and an experimental phase","yes","NAP_GER_AA_4blocks_noglides.osexp","/Users/aviadalbert/Documents/Academisch/UoC/Dissertation/Experiment/OpenSesame/NAP-FC/NAP_GER_AA_4blocks_noglides","yes","no","sans","no","20","no","black","no","Weiter","yes","768","legacy","14","9","0","/Users/aviadalbert/Documents/Academisch/UoC/Dissertation/Experiment/OpenSesame/NAP-FC/NAP_GER_AA_4blocks_noglides/subject-34.csv","xpyriment","Jazzy James","3.1.9","yes","yes","59a800d99ad5a1025d81bb03","59a801616c613b0251691de0","no","no","0","f","j","space","NA","return","j","f","2950","1415","17851","NA","39391","6329","2950","2","legacy","1024","1","44100","-16","experiment","ﾊデal","2","1","1","0","1","eng, french","34","","even","590113","571733","NA","NA","591530","590109","NA","1872","589642","1872","1872","493290","532685","640051","638544","643002","541415","539336","571733","NA","441583","482177","570072","539079","590113","539340","NA","640051","640051","NA","NA","638540","NAP perception","13","24797","15","yes","1024"
"81.25","yes","81.25","1737.3125","1737.3125","white","no","xpyriment","Ich habe die obigen Informationen gelesen und verstanden.","legacy","legacy","0","uniform","0","0","0","undefined","undefined","0","f","2","1","NA","0","1","0","0","0","0","0","0","0","0","25","25","25","0","0","0","NA","0","0","2","0","0","0","2","25","25","25","25","25","Thu Nov  2 11:48:19 2017","Forced-choice identification task with a practice and an experimental phase","yes","NAP_GER_AA_4blocks_noglides.osexp","/Users/aviadalbert/Documents/Academisch/UoC/Dissertation/Experiment/OpenSesame/NAP-FC/NAP_GER_AA_4blocks_noglides","yes","no","sans","no","20","no","black","no","Weiter","yes","768","legacy","15","9","0","/Users/aviadalbert/Documents/Academisch/UoC/Dissertation/Experiment/OpenSesame/NAP-FC/NAP_GER_AA_4blocks_noglides/subject-34.csv","xpyriment","Jazzy James","3.1.9","yes","yes","59a800d99ad5a1025d81bb03","59a801616c613b0251691de0","no","no","0","None","j","space","NA","return","j","None","3000","1415","17851","NA","39391","6329","3000","2","legacy","1024","1","44100","-16","experiment","mlal","2","1","1","0","1","eng, french","34","","even","590113","571733","NA","NA","591530","590109","NA","1872","589642","1872","1872","493290","532685","644789","643285","648793","541415","539336","571733","NA","441583","482177","570072","539079","590113","539340","NA","644788","644788","647793","647789","643281","NAP perception","13","27797","16","yes","1024"
"82.3529411765","yes","82.3529411765","1777.47058824","1777.47058824","white","no","xpyriment","Ich habe die obigen Informationen gelesen und verstanden.","legacy","legacy","0","uniform","1","0","0","undefined","undefined","1","f","2","1","NA","0","1","0","0","0","0","0","0","0","0","26","26","26","0","0","0","NA","0","0","2","0","0","0","2","26","26","26","26","26","Thu Nov  2 11:48:19 2017","Forced-choice identification task with a practice and an experimental phase","yes","NAP_GER_AA_4blocks_noglides.osexp","/Users/aviadalbert/Documents/Academisch/UoC/Dissertation/Experiment/OpenSesame/NAP-FC/NAP_GER_AA_4blocks_noglides","yes","no","sans","no","20","no","black","no","Weiter","yes","768","legacy","16","9","0","/Users/aviadalbert/Documents/Academisch/UoC/Dissertation/Experiment/OpenSesame/NAP-FC/NAP_GER_AA_4blocks_noglides/subject-34.csv","xpyriment","Jazzy James","3.1.9","yes","yes","59a800d99ad5a1025d81bb03","59a801616c613b0251691de0","no","no","0","f","j","space","NA","return","j","f","2420","1415","17851","NA","39391","6329","2420","2","legacy","1024","1","44100","-16","experiment","lfal","2","1","1","0","1","eng, french","34","","even","590113","571733","NA","NA","591530","590109","NA","1872","589642","1872","1872","493290","532685","650575","649068","652996","541415","539336","571733","NA","441583","482177","570072","539079","590113","539340","NA","650574","650574","647793","647789","649063","NAP perception","14","30217","17","yes","1024"
"83.3333333333","yes","83.3333333333","1754.88888889","1754.88888889","white","no","xpyriment","Ich habe die obigen Informationen gelesen und verstanden.","legacy","legacy","0","uniform","1","0","0","undefined","undefined","1","f","2","1","NA","0","1","0","0","0","0","0","0","0","0","27","27","27","0","0","0","NA","0","0","2","0","0","0","2","27","27","27","27","27","Thu Nov  2 11:48:19 2017","Forced-choice identification task with a practice and an experimental phase","yes","NAP_GER_AA_4blocks_noglides.osexp","/Users/aviadalbert/Documents/Academisch/UoC/Dissertation/Experiment/OpenSesame/NAP-FC/NAP_GER_AA_4blocks_noglides","yes","no","sans","no","20","no","black","no","Weiter","yes","768","legacy","17","9","0","/Users/aviadalbert/Documents/Academisch/UoC/Dissertation/Experiment/OpenSesame/NAP-FC/NAP_GER_AA_4blocks_noglides/subject-34.csv","xpyriment","Jazzy James","3.1.9","yes","yes","59a800d99ad5a1025d81bb03","59a801616c613b0251691de0","no","no","0","f","j","space","NA","return","j","f","1371","1415","17851","NA","39391","6329","1371","2","legacy","1024","1","44100","-16","experiment","ﾊパal","2","1","1","0","1","eng, french","34","","even","590113","571733","NA","NA","591530","590109","NA","1872","589642","1872","1872","493290","532685","654774","653267","656147","541415","539336","571733","NA","441583","482177","570072","539079","590113","539340","NA","654774","654774","647793","647789","653263","NAP perception","15","31588","18","yes","1024"
"84.2105263158","yes","84.2105263158","1718.89473684","1718.89473684","white","no","xpyriment","Ich habe die obigen Informationen gelesen und verstanden.","legacy","legacy","0","uniform","1","0","0","undefined","undefined","1","f","2","1","NA","0","1","0","0","0","0","0","0","0","0","28","28","28","0","0","0","NA","0","0","2","0","0","0","2","28","28","28","28","28","Thu Nov  2 11:48:19 2017","Forced-choice identification task with a practice and an experimental phase","yes","NAP_GER_AA_4blocks_noglides.osexp","/Users/aviadalbert/Documents/Academisch/UoC/Dissertation/Experiment/OpenSesame/NAP-FC/NAP_GER_AA_4blocks_noglides","yes","no","sans","no","20","no","black","no","Weiter","yes","768","legacy","18","9","0","/Users/aviadalbert/Documents/Academisch/UoC/Dissertation/Experiment/OpenSesame/NAP-FC/NAP_GER_AA_4blocks_noglides/subject-34.csv","xpyriment","Jazzy James","3.1.9","yes","yes","59a800d99ad5a1025d81bb03","59a801616c613b0251691de0","no","no","0","f","j","space","NA","return","j","f","1071","1415","17851","NA","39391","6329","1071","2","legacy","1024","1","44100","-16","experiment","sfal","2","1","1","0","1","eng, french","34","","even","590113","571733","NA","NA","591530","590109","NA","1872","589642","1872","1872","493290","532685","657925","656421","658998","541415","539336","571733","NA","441583","482177","570072","539079","590113","539340","NA","657925","657925","647793","647789","656417","NAP perception","16","32659","19","yes","1024"
"85","yes","85","1673.4","1673.4","white","no","xpyriment","Ich habe die obigen Informationen gelesen und verstanden.","legacy","legacy","0","uniform","1","0","0","undefined","undefined","1","j","2","1","NA","0","1","0","0","0","0","0","0","0","0","29","29","29","0","0","0","NA","0","0","2","0","0","0","2","29","29","29","29","29","Thu Nov  2 11:48:19 2017","Forced-choice identification task with a practice and an experimental phase","yes","NAP_GER_AA_4blocks_noglides.osexp","/Users/aviadalbert/Documents/Academisch/UoC/Dissertation/Experiment/OpenSesame/NAP-FC/NAP_GER_AA_4blocks_noglides","yes","no","sans","no","20","no","black","no","Weiter","yes","768","legacy","19","9","0","/Users/aviadalbert/Documents/Academisch/UoC/Dissertation/Experiment/OpenSesame/NAP-FC/NAP_GER_AA_4blocks_noglides/subject-34.csv","xpyriment","Jazzy James","3.1.9","yes","yes","59a800d99ad5a1025d81bb03","59a801616c613b0251691de0","no","no","0","j","j","space","NA","return","j","j","809","1415","17851","NA","39391","6329","809","2","legacy","1024","1","44100","-16","experiment","elmal","2","1","1","0","1","eng, french","34","","even","590113","571733","NA","NA","591530","590109","NA","1872","589642","1872","1872","493290","532685","660778","659272","661588","541415","539336","571733","NA","441583","482177","570072","539079","590113","539340","NA","660777","660777","647793","647789","659268","NAP perception","17","33468","20","yes","1024"
"85.7142857143","yes","85.7142857143","1681.9047619","1681.9047619","white","no","xpyriment","Ich habe die obigen Informationen gelesen und verstanden.","legacy","legacy","0","uniform","1","0","0","undefined","undefined","1","f","2","1","NA","0","1","0","0","0","0","0","0","0","0","30","30","30","0","0","0","NA","0","0","2","0","0","0","2","30","30","30","30","30","Thu Nov  2 11:48:19 2017","Forced-choice identification task with a practice and an experimental phase","yes","NAP_GER_AA_4blocks_noglides.osexp","/Users/aviadalbert/Documents/Academisch/UoC/Dissertation/Experiment/OpenSesame/NAP-FC/NAP_GER_AA_4blocks_noglides","yes","no","sans","no","20","no","black","no","Weiter","yes","768","legacy","20","9","0","/Users/aviadalbert/Documents/Academisch/UoC/Dissertation/Experiment/OpenSesame/NAP-FC/NAP_GER_AA_4blocks_noglides/subject-34.csv","xpyriment","Jazzy James","3.1.9","yes","yes","59a800d99ad5a1025d81bb03","59a801616c613b0251691de0","no","no","0","f","j","space","NA","return","j","f","1852","1415","17851","NA","39391","6329","1852","2","legacy","1024","1","44100","-16","experiment","ﾊデal","2","1","1","0","1","eng, french","34","","even","590113","571733","NA","NA","591530","590109","NA","1872","589642","1872","1872","493290","532685","663377","661872","665230","541415","539336","571733","NA","441583","482177","570072","539079","590113","539340","NA","663377","663377","647793","647789","661868","NAP perception","18","35320","21","yes","1024"
"86.3636363636","yes","86.3636363636","1662.63636364","1662.63636364","white","no","xpyriment","Ich habe die obigen Informationen gelesen und verstanden.","legacy","legacy","0","uniform","1","0","0","undefined","undefined","1","j","2","1","NA","0","1","0","0","0","0","0","0","0","0","31","31","31","0","0","0","NA","0","0","2","0","0","0","2","31","31","31","31","31","Thu Nov  2 11:48:19 2017","Forced-choice identification task with a practice and an experimental phase","yes","NAP_GER_AA_4blocks_noglides.osexp","/Users/aviadalbert/Documents/Academisch/UoC/Dissertation/Experiment/OpenSesame/NAP-FC/NAP_GER_AA_4blocks_noglides","yes","no","sans","no","20","no","black","no","Weiter","yes","768","legacy","21","9","0","/Users/aviadalbert/Documents/Academisch/UoC/Dissertation/Experiment/OpenSesame/NAP-FC/NAP_GER_AA_4blocks_noglides/subject-34.csv","xpyriment","Jazzy James","3.1.9","yes","yes","59a800d99ad5a1025d81bb03","59a801616c613b0251691de0","no","no","0","j","j","space","NA","return","j","j","1258","1415","17851","NA","39391","6329","1258","2","legacy","1024","1","44100","-16","experiment","leval","2","1","1","0","1","eng, french","34","","even","590113","571733","NA","NA","591530","590109","NA","1872","589642","1872","1872","493290","532685","667011","665507","668270","541415","539336","571733","NA","441583","482177","570072","539079","590113","539340","NA","667010","667010","647793","647789","665503","NAP perception","19","36578","22","yes","1024"
"86.9565217391","yes","86.9565217391","1659.65217391","1659.65217391","white","no","xpyriment","Ich habe die obigen Informationen gelesen und verstanden.","legacy","legacy","0","uniform","1","0","0","undefined","undefined","1","f","2","1","NA","0","1","0","0","0","0","0","0","0","0","32","32","32","0","0","0","NA","0","0","2","0","0","0","2","32","32","32","32","32","Thu Nov  2 11:48:19 2017","Forced-choice identification task with a practice and an experimental phase","yes","NAP_GER_AA_4blocks_noglides.osexp","/Users/aviadalbert/Documents/Academisch/UoC/Dissertation/Experiment/OpenSesame/NAP-FC/NAP_GER_AA_4blocks_noglides","yes","no","sans","no","20","no","black","no","Weiter","yes","768","legacy","22","9","0","/Users/aviadalbert/Documents/Academisch/UoC/Dissertation/Experiment/OpenSesame/NAP-FC/NAP_GER_AA_4blocks_noglides/subject-34.csv","xpyriment","Jazzy James","3.1.9","yes","yes","59a800d99ad5a1025d81bb03","59a801616c613b0251691de0","no","no","0","f","j","space","NA","return","j","f","1594","1415","17851","NA","39391","6329","1594","2","legacy","1024","1","44100","-16","experiment","vzal","2","1","1","0","1","eng, french","34","","even","590113","571733","NA","NA","591530","590109","NA","1872","589642","1872","1872","493290","532685","670052","668546","671647","541415","539336","571733","NA","441583","482177","570072","539079","590113","539340","NA","670052","670052","647793","647789","668541","NAP perception","20","38172","23","yes","1024"
"87.5","yes","87.5","1638.25","1638.25","white","no","xpyriment","Ich habe die obigen Informationen gelesen und verstanden.","legacy","legacy","0","uniform","1","0","0","undefined","undefined","1","j","2","1","NA","0","1","0","0","0","0","0","0","0","0","33","33","33","0","0","0","NA","0","0","2","0","0","0","2","33","33","33","33","33","Thu Nov  2 11:48:19 2017","Forced-choice identification task with a practice and an experimental phase","yes","NAP_GER_AA_4blocks_noglides.osexp","/Users/aviadalbert/Documents/Academisch/UoC/Dissertation/Experiment/OpenSesame/NAP-FC/NAP_GER_AA_4blocks_noglides","yes","no","sans","no","20","no","black","no","Weiter","yes","768","legacy","23","9","0","/Users/aviadalbert/Documents/Academisch/UoC/Dissertation/Experiment/OpenSesame/NAP-FC/NAP_GER_AA_4blocks_noglides/subject-34.csv","xpyriment","Jazzy James","3.1.9","yes","yes","59a800d99ad5a1025d81bb03","59a801616c613b0251691de0","no","no","0","j","j","space","NA","return","j","j","1146","1415","17851","NA","39391","6329","1146","2","legacy","1024","1","44100","-16","experiment","fenal","2","1","1","0","1","eng, french","34","","even","590113","571733","NA","NA","591530","590109","NA","1872","589642","1872","1872","493290","532685","673443","671937","674590","541415","539336","571733","NA","441583","482177","570072","539079","590113","539340","NA","673443","673443","647793","647789","671933","NAP perception","21","39318","24","yes","1024"
"88","yes","88","1644.64","1644.64","white","no","xpyriment","Ich habe die obigen Informationen gelesen und verstanden.","legacy","legacy","0","uniform","1","0","0","undefined","undefined","1","f","2","1","NA","0","1","0","0","0","0","0","0","0","0","34","34","34","0","0","0","NA","0","0","2","0","0","0","2","34","34","34","34","34","Thu Nov  2 11:48:19 2017","Forced-choice identification task with a practice and an experimental phase","yes","NAP_GER_AA_4blocks_noglides.osexp","/Users/aviadalbert/Documents/Academisch/UoC/Dissertation/Experiment/OpenSesame/NAP-FC/NAP_GER_AA_4blocks_noglides","yes","no","sans","no","20","no","black","no","Weiter","yes","768","legacy","24","9","0","/Users/aviadalbert/Documents/Academisch/UoC/Dissertation/Experiment/OpenSesame/NAP-FC/NAP_GER_AA_4blocks_noglides/subject-34.csv","xpyriment","Jazzy James","3.1.9","yes","yes","59a800d99ad5a1025d81bb03","59a801616c613b0251691de0","no","no","0","f","j","space","NA","return","j","f","1798","1415","17851","NA","39391","6329","1798","2","legacy","1024","1","44100","-16","experiment","mtal","2","1","1","0","1","eng, french","34","","even","590113","571733","NA","NA","591530","590109","NA","1872","589642","1872","1872","493290","532685","676376","674872","678175","541415","539336","571733","NA","441583","482177","570072","539079","590113","539340","NA","676375","676375","647793","647789","674867","NAP perception","22","41116","25","yes","1024"
"88.4615384615","yes","88.4615384615","1622.5","1622.5","white","no","xpyriment","Ich habe die obigen Informationen gelesen und verstanden.","legacy","legacy","0","uniform","1","0","0","undefined","undefined","1","j","2","1","NA","0","1","0","0","0","0","0","0","0","0","35","35","35","0","0","0","NA","0","0","2","0","0","0","2","35","35","35","35","35","Thu Nov  2 11:48:19 2017","Forced-choice identification task with a practice and an experimental phase","yes","NAP_GER_AA_4blocks_noglides.osexp","/Users/aviadalbert/Documents/Academisch/UoC/Dissertation/Experiment/OpenSesame/NAP-FC/NAP_GER_AA_4blocks_noglides","yes","no","sans","no","20","no","black","no","Weiter","yes","768","legacy","25","9","0","/Users/aviadalbert/Documents/Academisch/UoC/Dissertation/Experiment/OpenSesame/NAP-FC/NAP_GER_AA_4blocks_noglides/subject-34.csv","xpyriment","Jazzy James","3.1.9","yes","yes","59a800d99ad5a1025d81bb03","59a801616c613b0251691de0","no","no","0","j","j","space","NA","return","j","j","1069","1415","17851","NA","39391","6329","1069","2","legacy","1024","1","44100","-16","experiment","menal","2","1","1","0","1","eng, french","34","","even","590113","571733","NA","NA","591530","590109","NA","1872","589642","1872","1872","493290","532685","679945","678441","681015","541415","539336","571733","NA","441583","482177","570072","539079","590113","539340","NA","679944","679944","647793","647789","678437","NAP perception","23","42185","26","yes","1024"
"88.8888888889","yes","88.8888888889","1607.33333333","1607.33333333","white","no","xpyriment","Ich habe die obigen Informationen gelesen und verstanden.","legacy","legacy","0","uniform","1","0","0","undefined","undefined","1","f","2","1","NA","0","1","0","0","0","0","0","0","0","0","36","36","36","0","0","0","NA","0","0","2","0","0","0","2","36","36","36","36","36","Thu Nov  2 11:48:19 2017","Forced-choice identification task with a practice and an experimental phase","yes","NAP_GER_AA_4blocks_noglides.osexp","/Users/aviadalbert/Documents/Academisch/UoC/Dissertation/Experiment/OpenSesame/NAP-FC/NAP_GER_AA_4blocks_noglides","yes","no","sans","no","20","no","black","no","Weiter","yes","768","legacy","26","9","0","/Users/aviadalbert/Documents/Academisch/UoC/Dissertation/Experiment/OpenSesame/NAP-FC/NAP_GER_AA_4blocks_noglides/subject-34.csv","xpyriment","Jazzy James","3.1.9","yes","yes","59a800d99ad5a1025d81bb03","59a801616c613b0251691de0","no","no","0","f","j","space","NA","return","j","f","1213","1415","17851","NA","39391","6329","1213","2","legacy","1024","1","44100","-16","experiment","spal","2","1","1","0","1","eng, french","34","","even","590113","571733","NA","NA","591530","590109","NA","1872","589642","1872","1872","493290","532685","682790","681283","684004","541415","539336","571733","NA","441583","482177","570072","539079","590113","539340","NA","682789","682790","647793","647789","681279","NAP perception","24","43398","27","yes","1024"
"89.2857142857","yes","89.2857142857","1635.17857143","1635.17857143","white","no","xpyriment","Ich habe die obigen Informationen gelesen und verstanden.","legacy","legacy","0","uniform","1","0","0","undefined","undefined","1","f","2","1","NA","0","1","0","0","0","0","0","0","0","0","37","37","37","0","0","0","NA","0","0","2","0","0","0","2","37","37","37","37","37","Thu Nov  2 11:48:19 2017","Forced-choice identification task with a practice and an experimental phase","yes","NAP_GER_AA_4blocks_noglides.osexp","/Users/aviadalbert/Documents/Academisch/UoC/Dissertation/Experiment/OpenSesame/NAP-FC/NAP_GER_AA_4blocks_noglides","yes","no","sans","no","20","no","black","no","Weiter","yes","768","legacy","27","9","0","/Users/aviadalbert/Documents/Academisch/UoC/Dissertation/Experiment/OpenSesame/NAP-FC/NAP_GER_AA_4blocks_noglides/subject-34.csv","xpyriment","Jazzy James","3.1.9","yes","yes","59a800d99ad5a1025d81bb03","59a801616c613b0251691de0","no","no","0","f","j","space","NA","return","j","f","2387","1415","17851","NA","39391","6329","2387","2","legacy","1024","1","44100","-16","experiment","lkal","2","1","1","0","1","eng, french","34","","even","590113","571733","NA","NA","591530","590109","NA","1872","589642","1872","1872","493290","532685","685785","684279","688173","541415","539336","571733","NA","441583","482177","570072","539079","590113","539340","NA","685784","685785","647793","647789","684275","NAP perception","25","45785","28","yes","1024"
"89.6551724138","yes","89.6551724138","1608.68965517","1608.68965517","white","no","xpyriment","Ich habe die obigen Informationen gelesen und verstanden.","legacy","legacy","0","uniform","1","0","0","undefined","undefined","1","j","2","1","NA","0","1","0","0","0","0","0","0","0","0","38","38","38","0","0","0","NA","0","0","2","0","0","0","2","38","38","38","38","38","Thu Nov  2 11:48:19 2017","Forced-choice identification task with a practice and an experimental phase","yes","NAP_GER_AA_4blocks_noglides.osexp","/Users/aviadalbert/Documents/Academisch/UoC/Dissertation/Experiment/OpenSesame/NAP-FC/NAP_GER_AA_4blocks_noglides","yes","no","sans","no","20","no","black","no","Weiter","yes","768","legacy","28","9","0","/Users/aviadalbert/Documents/Academisch/UoC/Dissertation/Experiment/OpenSesame/NAP-FC/NAP_GER_AA_4blocks_noglides/subject-34.csv","xpyriment","Jazzy James","3.1.9","yes","yes","59a800d99ad5a1025d81bb03","59a801616c613b0251691de0","no","no","0","j","j","space","NA","return","j","j","867","1415","17851","NA","39391","6329","867","2","legacy","1024","1","44100","-16","experiment","nepal","2","1","1","0","1","eng, french","34","","even","590113","571733","NA","NA","591530","590109","NA","1872","589642","1872","1872","493290","532685","689963","688455","690831","541415","539336","571733","NA","441583","482177","570072","539079","590113","539340","NA","689963","689963","647793","647789","688451","NAP perception","26","46652","29","yes","1024"
"90","yes","90","1592.73333333","1592.73333333","white","no","xpyriment","Ich habe die obigen Informationen gelesen und verstanden.","legacy","legacy","0","uniform","1","0","0","undefined","undefined","1","j","2","1","NA","0","1","0","0","0","0","0","0","0","0","39","39","39","0","0","0","NA","0","0","2","0","0","0","2","39","39","39","39","39","Thu Nov  2 11:48:19 2017","Forced-choice identification task with a practice and an experimental phase","yes","NAP_GER_AA_4blocks_noglides.osexp","/Users/aviadalbert/Documents/Academisch/UoC/Dissertation/Experiment/OpenSesame/NAP-FC/NAP_GER_AA_4blocks_noglides","yes","no","sans","no","20","no","black","no","Weiter","yes","768","legacy","29","9","0","/Users/aviadalbert/Documents/Academisch/UoC/Dissertation/Experiment/OpenSesame/NAP-FC/NAP_GER_AA_4blocks_noglides/subject-34.csv","xpyriment","Jazzy James","3.1.9","yes","yes","59a800d99ad5a1025d81bb03","59a801616c613b0251691de0","no","no","0","j","j","space","NA","return","j","j","1130","1415","17851","NA","39391","6329","1130","2","legacy","1024","1","44100","-16","experiment","emlal","2","1","1","0","1","eng, french","34","","even","590113","571733","NA","NA","591530","590109","NA","1872","589642","1872","1872","493290","532685","692601","691097","693732","541415","539336","571733","NA","441583","482177","570072","539079","590113","539340","NA","692600","692600","647793","647789","691093","NAP perception","27","47782","30","yes","1024"
"90.3225806452","yes","90.3225806452","1588.32258065","1588.32258065","white","no","xpyriment","Ich habe die obigen Informationen gelesen und verstanden.","legacy","legacy","0","uniform","1","0","0","undefined","undefined","1","f","2","1","NA","0","1","0","0","0","0","0","0","0","0","40","40","40","0","0","0","NA","0","0","2","0","0","0","2","40","40","40","40","40","Thu Nov  2 11:48:19 2017","Forced-choice identification task with a practice and an experimental phase","yes","NAP_GER_AA_4blocks_noglides.osexp","/Users/aviadalbert/Documents/Academisch/UoC/Dissertation/Experiment/OpenSesame/NAP-FC/NAP_GER_AA_4blocks_noglides","yes","no","sans","no","20","no","black","no","Weiter","yes","768","legacy","30","9","0","/Users/aviadalbert/Documents/Academisch/UoC/Dissertation/Experiment/OpenSesame/NAP-FC/NAP_GER_AA_4blocks_noglides/subject-34.csv","xpyriment","Jazzy James","3.1.9","yes","yes","59a800d99ad5a1025d81bb03","59a801616c613b0251691de0","no","no","0","f","j","space","NA","return","j","f","1456","1415","17851","NA","39391","6329","1456","2","legacy","1024","1","44100","-16","experiment","vnal","2","1","1","0","1","eng, french","34","","even","590113","571733","NA","NA","591530","590109","NA","1872","589642","1872","1872","493290","532685","695515","694010","696972","541415","539336","571733","NA","441583","482177","570072","539079","590113","539340","NA","695514","695514","647793","647789","694006","NAP perception","28","49238","31","yes","1024"
"90.625","yes","90.625","1579.15625","1579.15625","white","no","xpyriment","Ich habe die obigen Informationen gelesen und verstanden.","legacy","legacy","0","uniform","1","0","0","undefined","undefined","1","f","2","1","NA","0","1","0","0","0","0","0","0","0","0","41","41","41","0","0","0","NA","0","0","2","0","0","0","2","41","41","41","41","41","Thu Nov  2 11:48:19 2017","Forced-choice identification task with a practice and an experimental phase","yes","NAP_GER_AA_4blocks_noglides.osexp","/Users/aviadalbert/Documents/Academisch/UoC/Dissertation/Experiment/OpenSesame/NAP-FC/NAP_GER_AA_4blocks_noglides","yes","no","sans","no","20","no","black","no","Weiter","yes","768","legacy","31","9","0","/Users/aviadalbert/Documents/Academisch/UoC/Dissertation/Experiment/OpenSesame/NAP-FC/NAP_GER_AA_4blocks_noglides/subject-34.csv","xpyriment","Jazzy James","3.1.9","yes","yes","59a800d99ad5a1025d81bb03","59a801616c613b0251691de0","no","no","0","f","j","space","NA","return","j","f","1295","1415","17851","NA","39391","6329","1295","2","legacy","1024","1","44100","-16","experiment","mzal","2","1","1","0","1","eng, french","34","","even","590113","571733","NA","NA","591530","590109","NA","1872","589642","1872","1872","493290","532685","698754","697250","700050","541415","539336","571733","NA","441583","482177","570072","539079","590113","539340","NA","698754","698754","647793","647789","697246","NAP perception","29","50533","32","yes","1024"
"90.9090909091","yes","90.9090909091","1558.15151515","1558.15151515","white","no","xpyriment","Ich habe die obigen Informationen gelesen und verstanden.","legacy","legacy","0","uniform","1","0","0","undefined","undefined","1","f","2","1","NA","0","1","0","0","0","0","0","0","0","0","42","42","42","0","0","0","NA","0","0","2","0","0","0","2","42","42","42","42","42","Thu Nov  2 11:48:19 2017","Forced-choice identification task with a practice and an experimental phase","yes","NAP_GER_AA_4blocks_noglides.osexp","/Users/aviadalbert/Documents/Academisch/UoC/Dissertation/Experiment/OpenSesame/NAP-FC/NAP_GER_AA_4blocks_noglides","yes","no","sans","no","20","no","black","no","Weiter","yes","768","legacy","32","9","0","/Users/aviadalbert/Documents/Academisch/UoC/Dissertation/Experiment/OpenSesame/NAP-FC/NAP_GER_AA_4blocks_noglides/subject-34.csv","xpyriment","Jazzy James","3.1.9","yes","yes","59a800d99ad5a1025d81bb03","59a801616c613b0251691de0","no","no","0","f","j","space","NA","return","j","f","886","1415","17851","NA","39391","6329","886","2","legacy","1024","1","44100","-16","experiment","spal","2","1","1","0","1","eng, french","34","","even","590113","571733","NA","NA","591530","590109","NA","1872","589642","1872","1872","493290","532685","701824","700319","702712","541415","539336","571733","NA","441583","482177","570072","539079","590113","539340","NA","701823","701823","647793","647789","700315","NAP perception","30","51419","33","yes","1024"
"91.1764705882","yes","91.1764705882","1535.64705882","1535.64705882","white","no","xpyriment","Ich habe die obigen Informationen gelesen und verstanden.","legacy","legacy","0","uniform","1","0","0","undefined","undefined","1","j","2","1","NA","0","1","0","0","0","0","0","0","0","0","43","43","43","0","0","0","NA","0","0","2","0","0","0","2","43","43","43","43","43","Thu Nov  2 11:48:19 2017","Forced-choice identification task with a practice and an experimental phase","yes","NAP_GER_AA_4blocks_noglides.osexp","/Users/aviadalbert/Documents/Academisch/UoC/Dissertation/Experiment/OpenSesame/NAP-FC/NAP_GER_AA_4blocks_noglides","yes","no","sans","no","20","no","black","no","Weiter","yes","768","legacy","33","9","0","/Users/aviadalbert/Documents/Academisch/UoC/Dissertation/Experiment/OpenSesame/NAP-FC/NAP_GER_AA_4blocks_noglides/subject-34.csv","xpyriment","Jazzy James","3.1.9","yes","yes","59a800d99ad5a1025d81bb03","59a801616c613b0251691de0","no","no","0","j","j","space","NA","return","j","j","793","1415","17851","NA","39391","6329","793","2","legacy","1024","1","44100","-16","experiment","sefal","2","1","1","0","1","eng, french","34","","even","590113","571733","NA","NA","591530","590109","NA","1872","589642","1872","1872","493290","532685","704492","702988","705287","541415","539336","571733","NA","441583","482177","570072","539079","590113","539340","NA","704491","704491","647793","647789","702984","NAP perception","31","52212","34","yes","1024"
"91.4285714286","yes","91.4285714286","1518.45714286","1518.45714286","white","no","xpyriment","Ich habe die obigen Informationen gelesen und verstanden.","legacy","legacy","0","uniform","1","0","0","undefined","undefined","1","j","2","1","NA","0","1","0","0","0","0","0","0","0","0","44","44","44","0","0","0","NA","0","0","2","0","0","0","2","44","44","44","44","44","Thu Nov  2 11:48:19 2017","Forced-choice identification task with a practice and an experimental phase","yes","NAP_GER_AA_4blocks_noglides.osexp","/Users/aviadalbert/Documents/Academisch/UoC/Dissertation/Experiment/OpenSesame/NAP-FC/NAP_GER_AA_4blocks_noglides","yes","no","sans","no","20","no","black","no","Weiter","yes","768","legacy","34","9","0","/Users/aviadalbert/Documents/Academisch/UoC/Dissertation/Experiment/OpenSesame/NAP-FC/NAP_GER_AA_4blocks_noglides/subject-34.csv","xpyriment","Jazzy James","3.1.9","yes","yes","59a800d99ad5a1025d81bb03","59a801616c613b0251691de0","no","no","0","j","j","space","NA","return","j","j","934","1415","17851","NA","39391","6329","934","2","legacy","1024","1","44100","-16","experiment","enmal","2","1","1","0","1","eng, french","34","","even","590113","571733","NA","NA","591530","590109","NA","1872","589642","1872","1872","493290","532685","707078","705571","708014","541415","539336","571733","NA","441583","482177","570072","539079","590113","539340","NA","707078","707078","647793","647789","705566","NAP perception","32","53146","35","yes","1024"
"91.6666666667","yes","91.6666666667","1502.5","1502.5","white","no","xpyriment","Ich habe die obigen Informationen gelesen und verstanden.","legacy","legacy","0","uniform","1","0","0","undefined","undefined","1","j","2","1","NA","0","1","0","0","0","0","0","0","0","0","45","45","45","0","0","0","NA","0","0","2","0","0","0","2","45","45","45","45","45","Thu Nov  2 11:48:19 2017","Forced-choice identification task with a practice and an experimental phase","yes","NAP_GER_AA_4blocks_noglides.osexp","/Users/aviadalbert/Documents/Academisch/UoC/Dissertation/Experiment/OpenSesame/NAP-FC/NAP_GER_AA_4blocks_noglides","yes","no","sans","no","20","no","black","no","Weiter","yes","768","legacy","35","9","0","/Users/aviadalbert/Documents/Academisch/UoC/Dissertation/Experiment/OpenSesame/NAP-FC/NAP_GER_AA_4blocks_noglides/subject-34.csv","xpyriment","Jazzy James","3.1.9","yes","yes","59a800d99ad5a1025d81bb03","59a801616c613b0251691de0","no","no","0","j","j","space","NA","return","j","j","944","1415","17851","NA","39391","6329","944","2","legacy","1024","1","44100","-16","experiment","velal","2","1","1","0","1","eng, french","34","","even","590113","571733","NA","NA","591530","590109","NA","1872","589642","1872","1872","493290","532685","709795","708287","710740","541415","539336","571733","NA","441583","482177","570072","539079","590113","539340","NA","709794","709794","647793","647789","708283","NAP perception","33","54090","36","yes","1024"
"91.8918918919","yes","91.8918918919","1484.83783784","1484.83783784","white","no","xpyriment","Ich habe die obigen Informationen gelesen und verstanden.","legacy","legacy","0","uniform","1","0","0","undefined","undefined","1","j","2","1","NA","0","1","0","0","0","0","0","0","0","0","46","46","46","0","0","0","NA","0","0","2","0","0","0","2","46","46","46","46","46","Thu Nov  2 11:48:19 2017","Forced-choice identification task with a practice and an experimental phase","yes","NAP_GER_AA_4blocks_noglides.osexp","/Users/aviadalbert/Documents/Academisch/UoC/Dissertation/Experiment/OpenSesame/NAP-FC/NAP_GER_AA_4blocks_noglides","yes","no","sans","no","20","no","black","no","Weiter","yes","768","legacy","36","9","0","/Users/aviadalbert/Documents/Academisch/UoC/Dissertation/Experiment/OpenSesame/NAP-FC/NAP_GER_AA_4blocks_noglides/subject-34.csv","xpyriment","Jazzy James","3.1.9","yes","yes","59a800d99ad5a1025d81bb03","59a801616c613b0251691de0","no","no","0","j","j","space","NA","return","j","j","849","1415","17851","NA","39391","6329","849","2","legacy","1024","1","44100","-16","experiment","ﾊテmal","2","1","1","0","1","eng, french","34","","even","590113","571733","NA","NA","591530","590109","NA","1872","589642","1872","1872","493290","532685","712522","711015","713373","541415","539336","571733","NA","441583","482177","570072","539079","590113","539340","NA","712522","712522","647793","647789","711011","NAP perception","34","54939","37","yes","1024"
"89.4736842105","yes","89.4736842105","1494","1494","white","no","xpyriment","Ich habe die obigen Informationen gelesen und verstanden.","legacy","legacy","0","uniform","0","0","0","undefined","undefined","0","f","2","1","NA","0","1","0","0","0","0","0","0","0","0","47","47","47","0","0","0","NA","0","0","2","0","0","0","2","47","47","47","47","47","Thu Nov  2 11:48:19 2017","Forced-choice identification task with a practice and an experimental phase","yes","NAP_GER_AA_4blocks_noglides.osexp","/Users/aviadalbert/Documents/Academisch/UoC/Dissertation/Experiment/OpenSesame/NAP-FC/NAP_GER_AA_4blocks_noglides","yes","no","sans","no","20","no","black","no","Weiter","yes","768","legacy","37","9","0","/Users/aviadalbert/Documents/Academisch/UoC/Dissertation/Experiment/OpenSesame/NAP-FC/NAP_GER_AA_4blocks_noglides/subject-34.csv","xpyriment","Jazzy James","3.1.9","yes","yes","59a800d99ad5a1025d81bb03","59a801616c613b0251691de0","no","no","0","j","j","space","NA","return","j","j","1833","1415","17851","NA","39391","6329","1833","2","legacy","1024","1","44100","-16","experiment","lpal","2","1","1","0","1","eng, french","34","","even","590113","571733","NA","NA","591530","590109","NA","1872","589642","1872","1872","493290","532685","715146","713641","716981","541415","539336","571733","NA","441583","482177","570072","539079","590113","539340","NA","715146","715146","647793","647789","713637","NAP perception","34","56772","38","yes","1024"
"89.7435897436","yes","89.7435897436","1478.87179487","1478.87179487","white","no","xpyriment","Ich habe die obigen Informationen gelesen und verstanden.","legacy","legacy","0","uniform","1","0","0","undefined","undefined","1","j","2","1","NA","0","1","0","0","0","0","0","0","0","0","48","48","48","0","0","0","NA","0","0","2","0","0","0","2","48","48","48","48","48","Thu Nov  2 11:48:19 2017","Forced-choice identification task with a practice and an experimental phase","yes","NAP_GER_AA_4blocks_noglides.osexp","/Users/aviadalbert/Documents/Academisch/UoC/Dissertation/Experiment/OpenSesame/NAP-FC/NAP_GER_AA_4blocks_noglides","yes","no","sans","no","20","no","black","no","Weiter","yes","768","legacy","38","9","0","/Users/aviadalbert/Documents/Academisch/UoC/Dissertation/Experiment/OpenSesame/NAP-FC/NAP_GER_AA_4blocks_noglides/subject-34.csv","xpyriment","Jazzy James","3.1.9","yes","yes","59a800d99ad5a1025d81bb03","59a801616c613b0251691de0","no","no","0","j","j","space","NA","return","j","j","904","1415","17851","NA","39391","6329","904","2","legacy","1024","1","44100","-16","experiment","esfal","2","1","1","0","1","eng, french","34","","even","590113","571733","NA","NA","591530","590109","NA","1872","589642","1872","1872","493290","532685","718782","717273","719688","541415","539336","571733","NA","441583","482177","570072","539079","590113","539340","NA","718781","718781","647793","647789","717269","NAP perception","35","57676","39","yes","1024"
"90","yes","90","1463.8","1463.8","white","no","xpyriment","Ich habe die obigen Informationen gelesen und verstanden.","legacy","legacy","0","uniform","1","0","0","undefined","undefined","1","j","2","1","NA","0","1","0","0","0","0","0","0","0","0","49","49","49","0","0","0","NA","0","0","2","0","0","0","2","49","49","49","49","49","Thu Nov  2 11:48:19 2017","Forced-choice identification task with a practice and an experimental phase","yes","NAP_GER_AA_4blocks_noglides.osexp","/Users/aviadalbert/Documents/Academisch/UoC/Dissertation/Experiment/OpenSesame/NAP-FC/NAP_GER_AA_4blocks_noglides","yes","no","sans","no","20","no","black","no","Weiter","yes","768","legacy","39","9","0","/Users/aviadalbert/Documents/Academisch/UoC/Dissertation/Experiment/OpenSesame/NAP-FC/NAP_GER_AA_4blocks_noglides/subject-34.csv","xpyriment","Jazzy James","3.1.9","yes","yes","59a800d99ad5a1025d81bb03","59a801616c613b0251691de0","no","no","0","j","j","space","NA","return","j","j","876","1415","17851","NA","39391","6329","876","2","legacy","1024","1","44100","-16","experiment","enpal","2","1","1","0","1","eng, french","34","","even","590113","571733","NA","NA","591530","590109","NA","1872","589642","1872","1872","493290","532685","721470","719967","722347","541415","539336","571733","NA","441583","482177","570072","539079","590113","539340","NA","721470","721470","647793","647789","719963","NAP perception","36","58552","40","yes","1024"
"90.243902439","yes","90.243902439","1450.90243902","1450.90243902","white","no","xpyriment","Ich habe die obigen Informationen gelesen und verstanden.","legacy","legacy","0","uniform","1","0","0","undefined","undefined","1","j","2","1","NA","0","1","0","0","0","0","0","0","0","0","50","50","50","0","0","0","NA","0","0","2","0","0","0","2","50","50","50","50","50","Thu Nov  2 11:48:19 2017","Forced-choice identification task with a practice and an experimental phase","yes","NAP_GER_AA_4blocks_noglides.osexp","/Users/aviadalbert/Documents/Academisch/UoC/Dissertation/Experiment/OpenSesame/NAP-FC/NAP_GER_AA_4blocks_noglides","yes","no","sans","no","20","no","black","no","Weiter","yes","768","legacy","40","9","0","/Users/aviadalbert/Documents/Academisch/UoC/Dissertation/Experiment/OpenSesame/NAP-FC/NAP_GER_AA_4blocks_noglides/subject-34.csv","xpyriment","Jazzy James","3.1.9","yes","yes","59a800d99ad5a1025d81bb03","59a801616c613b0251691de0","no","no","0","j","j","space","NA","return","j","j","935","1415","17851","NA","39391","6329","935","2","legacy","1024","1","44100","-16","experiment","neval","2","1","1","0","1","eng, french","34","","even","590113","571733","NA","NA","591530","590109","NA","1872","589642","1872","1872","493290","532685","724133","722629","725069","541415","539336","571733","NA","441583","482177","570072","539079","590113","539340","NA","724133","724133","647793","647789","722623","NAP perception","37","59487","41","yes","1024"
"90.4761904762","yes","90.4761904762","1434.42857143","1434.42857143","white","no","xpyriment","Ich habe die obigen Informationen gelesen und verstanden.","legacy","legacy","0","uniform","1","0","0","undefined","undefined","1","f","2","1","NA","0","1","0","0","0","0","0","0","0","0","51","51","51","0","0","0","NA","0","0","2","0","0","0","2","51","51","51","51","51","Thu Nov  2 11:48:19 2017","Forced-choice identification task with a practice and an experimental phase","yes","NAP_GER_AA_4blocks_noglides.osexp","/Users/aviadalbert/Documents/Academisch/UoC/Dissertation/Experiment/OpenSesame/NAP-FC/NAP_GER_AA_4blocks_noglides","yes","no","sans","no","20","no","black","no","Weiter","yes","768","legacy","41","9","0","/Users/aviadalbert/Documents/Academisch/UoC/Dissertation/Experiment/OpenSesame/NAP-FC/NAP_GER_AA_4blocks_noglides/subject-34.csv","xpyriment","Jazzy James","3.1.9","yes","yes","59a800d99ad5a1025d81bb03","59a801616c613b0251691de0","no","no","0","f","j","space","NA","return","j","f","759","1415","17851","NA","39391","6329","759","2","legacy","1024","1","44100","-16","experiment","smal","2","1","1","0","1","eng, french","34","","even","590113","571733","NA","NA","591530","590109","NA","1872","589642","1872","1872","493290","532685","726862","725357","727622","541415","539336","571733","NA","441583","482177","570072","539079","590113","539340","NA","726862","726862","647793","647789","725353","NAP perception","38","60246","42","yes","1024"
"90.6976744186","yes","90.6976744186","1418.62790698","1418.62790698","white","no","xpyriment","Ich habe die obigen Informationen gelesen und verstanden.","legacy","legacy","0","uniform","1","0","0","undefined","undefined","1","j","2","1","NA","0","1","0","0","0","0","0","0","0","0","52","52","52","0","0","0","NA","0","0","2","0","0","0","2","52","52","52","52","52","Thu Nov  2 11:48:19 2017","Forced-choice identification task with a practice and an experimental phase","yes","NAP_GER_AA_4blocks_noglides.osexp","/Users/aviadalbert/Documents/Academisch/UoC/Dissertation/Experiment/OpenSesame/NAP-FC/NAP_GER_AA_4blocks_noglides","yes","no","sans","no","20","no","black","no","Weiter","yes","768","legacy","42","9","0","/Users/aviadalbert/Documents/Academisch/UoC/Dissertation/Experiment/OpenSesame/NAP-FC/NAP_GER_AA_4blocks_noglides/subject-34.csv","xpyriment","Jazzy James","3.1.9","yes","yes","59a800d99ad5a1025d81bb03","59a801616c613b0251691de0","no","no","0","j","j","space","NA","return","j","j","755","1415","17851","NA","39391","6329","755","2","legacy","1024","1","44100","-16","experiment","felal","2","1","1","0","1","eng, french","34","","even","590113","571733","NA","NA","591530","590109","NA","1872","589642","1872","1872","493290","532685","729396","727892","730152","541415","539336","571733","NA","441583","482177","570072","539079","590113","539340","NA","729396","729396","647793","647789","727888","NAP perception","39","61001","43","yes","1024"
"90.9090909091","yes","90.9090909091","1418.90909091","1418.90909091","white","no","xpyriment","Ich habe die obigen Informationen gelesen und verstanden.","legacy","legacy","0","uniform","1","0","0","undefined","undefined","1","f","2","1","NA","0","1","0","0","0","0","0","0","0","0","53","53","53","0","0","0","NA","0","0","2","0","0","0","2","53","53","53","53","53","Thu Nov  2 11:48:19 2017","Forced-choice identification task with a practice and an experimental phase","yes","NAP_GER_AA_4blocks_noglides.osexp","/Users/aviadalbert/Documents/Academisch/UoC/Dissertation/Experiment/OpenSesame/NAP-FC/NAP_GER_AA_4blocks_noglides","yes","no","sans","no","20","no","black","no","Weiter","yes","768","legacy","43","9","0","/Users/aviadalbert/Documents/Academisch/UoC/Dissertation/Experiment/OpenSesame/NAP-FC/NAP_GER_AA_4blocks_noglides/subject-34.csv","xpyriment","Jazzy James","3.1.9","yes","yes","59a800d99ad5a1025d81bb03","59a801616c613b0251691de0","no","no","0","f","j","space","NA","return","j","f","1431","1415","17851","NA","39391","6329","1431","2","legacy","1024","1","44100","-16","experiment","npal","2","1","1","0","1","eng, french","34","","even","590113","571733","NA","NA","591530","590109","NA","1872","589642","1872","1872","493290","532685","731927","730422","733359","541415","539336","571733","NA","441583","482177","570072","539079","590113","539340","NA","731926","731926","647793","647789","730418","NAP perception","40","62432","44","yes","1024"
"91.1111111111","yes","91.1111111111","1418.46666667","1418.46666667","white","no","xpyriment","Ich habe die obigen Informationen gelesen und verstanden.","legacy","legacy","0","uniform","1","0","0","undefined","undefined","1","f","2","1","NA","0","1","0","0","0","0","0","0","0","0","54","54","54","0","0","0","NA","0","0","2","0","0","0","2","54","54","54","54","54","Thu Nov  2 11:48:19 2017","Forced-choice identification task with a practice and an experimental phase","yes","NAP_GER_AA_4blocks_noglides.osexp","/Users/aviadalbert/Documents/Academisch/UoC/Dissertation/Experiment/OpenSesame/NAP-FC/NAP_GER_AA_4blocks_noglides","yes","no","sans","no","20","no","black","no","Weiter","yes","768","legacy","44","9","0","/Users/aviadalbert/Documents/Academisch/UoC/Dissertation/Experiment/OpenSesame/NAP-FC/NAP_GER_AA_4blocks_noglides/subject-34.csv","xpyriment","Jazzy James","3.1.9","yes","yes","59a800d99ad5a1025d81bb03","59a801616c613b0251691de0","no","no","0","f","j","space","NA","return","j","f","1399","1415","17851","NA","39391","6329","1399","2","legacy","1024","1","44100","-16","experiment","lpal","2","1","1","0","1","eng, french","34","","even","590113","571733","NA","NA","591530","590109","NA","1872","589642","1872","1872","493290","532685","735139","733635","736540","541415","539336","571733","NA","441583","482177","570072","539079","590113","539340","NA","735139","735139","647793","647789","733630","NAP perception","41","63831","45","yes","1024"
"91.3043478261","yes","91.3043478261","1415.23913043","1415.23913043","white","no","xpyriment","Ich habe die obigen Informationen gelesen und verstanden.","legacy","legacy","0","uniform","1","0","0","undefined","undefined","1","f","2","1","NA","0","1","0","0","0","0","0","0","0","0","55","55","55","0","0","0","NA","0","0","2","0","0","0","2","55","55","55","55","55","Thu Nov  2 11:48:19 2017","Forced-choice identification task with a practice and an experimental phase","yes","NAP_GER_AA_4blocks_noglides.osexp","/Users/aviadalbert/Documents/Academisch/UoC/Dissertation/Experiment/OpenSesame/NAP-FC/NAP_GER_AA_4blocks_noglides","yes","no","sans","no","20","no","black","no","Weiter","yes","768","legacy","45","9","0","/Users/aviadalbert/Documents/Academisch/UoC/Dissertation/Experiment/OpenSesame/NAP-FC/NAP_GER_AA_4blocks_noglides/subject-34.csv","xpyriment","Jazzy James","3.1.9","yes","yes","59a800d99ad5a1025d81bb03","59a801616c613b0251691de0","no","no","0","f","j","space","NA","return","j","f","1270","1415","17851","NA","39391","6329","1270","2","legacy","1024","1","44100","-16","experiment","flal","2","1","1","0","1","eng, french","34","","even","590113","571733","NA","NA","591530","590109","NA","1872","589642","1872","1872","493290","532685","738315","736810","739587","541415","539336","571733","NA","441583","482177","570072","539079","590113","539340","NA","738314","738314","647793","647789","736806","NAP perception","42","65101","46","yes","1024"
"91.4893617021","yes","91.4893617021","1400.85106383","1400.85106383","white","no","xpyriment","Ich habe die obigen Informationen gelesen und verstanden.","legacy","legacy","0","uniform","1","0","0","undefined","undefined","1","j","2","1","NA","0","1","0","0","0","0","0","0","0","0","56","56","56","0","0","0","NA","0","0","2","0","0","0","2","56","56","56","56","56","Thu Nov  2 11:48:19 2017","Forced-choice identification task with a practice and an experimental phase","yes","NAP_GER_AA_4blocks_noglides.osexp","/Users/aviadalbert/Documents/Academisch/UoC/Dissertation/Experiment/OpenSesame/NAP-FC/NAP_GER_AA_4blocks_noglides","yes","no","sans","no","20","no","black","no","Weiter","yes","768","legacy","46","9","0","/Users/aviadalbert/Documents/Academisch/UoC/Dissertation/Experiment/OpenSesame/NAP-FC/NAP_GER_AA_4blocks_noglides/subject-34.csv","xpyriment","Jazzy James","3.1.9","yes","yes","59a800d99ad5a1025d81bb03","59a801616c613b0251691de0","no","no","0","j","j","space","NA","return","j","j","739","1415","17851","NA","39391","6329","739","2","legacy","1024","1","44100","-16","experiment","mesal","2","1","1","0","1","eng, french","34","","even","590113","571733","NA","NA","591530","590109","NA","1872","589642","1872","1872","493290","532685","741363","739859","742104","541415","539336","571733","NA","441583","482177","570072","539079","590113","539340","NA","741362","741362","647793","647789","739855","NAP perception","43","65840","47","yes","1024"
"91.6666666667","yes","91.6666666667","1391.83333333","1391.83333333","white","no","xpyriment","Ich habe die obigen Informationen gelesen und verstanden.","legacy","legacy","0","uniform","1","0","0","undefined","undefined","1","j","2","1","NA","0","1","0","0","0","0","0","0","0","0","57","57","57","0","0","0","NA","0","0","2","0","0","0","2","57","57","57","57","57","Thu Nov  2 11:48:19 2017","Forced-choice identification task with a practice and an experimental phase","yes","NAP_GER_AA_4blocks_noglides.osexp","/Users/aviadalbert/Documents/Academisch/UoC/Dissertation/Experiment/OpenSesame/NAP-FC/NAP_GER_AA_4blocks_noglides","yes","no","sans","no","20","no","black","no","Weiter","yes","768","legacy","47","9","0","/Users/aviadalbert/Documents/Academisch/UoC/Dissertation/Experiment/OpenSesame/NAP-FC/NAP_GER_AA_4blocks_noglides/subject-34.csv","xpyriment","Jazzy James","3.1.9","yes","yes","59a800d99ad5a1025d81bb03","59a801616c613b0251691de0","no","no","0","j","j","space","NA","return","j","j","968","1415","17851","NA","39391","6329","968","2","legacy","1024","1","44100","-16","experiment","lemal","2","1","1","0","1","eng, french","34","","even","590113","571733","NA","NA","591530","590109","NA","1872","589642","1872","1872","493290","532685","743895","742389","744865","541415","539336","571733","NA","441583","482177","570072","539079","590113","539340","NA","743894","743894","647793","647789","742385","NAP perception","44","66808","48","yes","1024"
"91.8367346939","yes","91.8367346939","1378.57142857","1378.57142857","white","no","xpyriment","Ich habe die obigen Informationen gelesen und verstanden.","legacy","legacy","0","uniform","1","0","0","undefined","undefined","1","f","2","1","NA","0","1","0","0","0","0","0","0","0","0","58","58","58","0","0","0","NA","0","0","2","0","0","0","2","58","58","58","58","58","Thu Nov  2 11:48:19 2017","Forced-choice identification task with a practice and an experimental phase","yes","NAP_GER_AA_4blocks_noglides.osexp","/Users/aviadalbert/Documents/Academisch/UoC/Dissertation/Experiment/OpenSesame/NAP-FC/NAP_GER_AA_4blocks_noglides","yes","no","sans","no","20","no","black","no","Weiter","yes","768","legacy","48","9","0","/Users/aviadalbert/Documents/Academisch/UoC/Dissertation/Experiment/OpenSesame/NAP-FC/NAP_GER_AA_4blocks_noglides/subject-34.csv","xpyriment","Jazzy James","3.1.9","yes","yes","59a800d99ad5a1025d81bb03","59a801616c613b0251691de0","no","no","0","f","j","space","NA","return","j","f","742","1415","17851","NA","39391","6329","742","2","legacy","1024","1","44100","-16","experiment","smal","2","1","1","0","1","eng, french","34","","even","590113","571733","NA","NA","591530","590109","NA","1872","589642","1872","1872","493290","532685","746639","745134","747383","541415","539336","571733","NA","441583","482177","570072","539079","590113","539340","NA","746639","746639","647793","647789","745130","NAP perception","45","67550","49","yes","1024"
"92","yes","92","1366.34","1366.34","white","no","xpyriment","Ich habe die obigen Informationen gelesen und verstanden.","legacy","legacy","0","uniform","1","0","0","undefined","undefined","1","j","2","1","NA","0","1","0","0","0","0","0","0","0","0","59","59","59","0","0","0","NA","0","0","2","0","0","0","2","59","59","59","59","59","Thu Nov  2 11:48:19 2017","Forced-choice identification task with a practice and an experimental phase","yes","NAP_GER_AA_4blocks_noglides.osexp","/Users/aviadalbert/Documents/Academisch/UoC/Dissertation/Experiment/OpenSesame/NAP-FC/NAP_GER_AA_4blocks_noglides","yes","no","sans","no","20","no","black","no","Weiter","yes","768","legacy","49","9","0","/Users/aviadalbert/Documents/Academisch/UoC/Dissertation/Experiment/OpenSesame/NAP-FC/NAP_GER_AA_4blocks_noglides/subject-34.csv","xpyriment","Jazzy James","3.1.9","yes","yes","59a800d99ad5a1025d81bb03","59a801616c613b0251691de0","no","no","0","j","j","space","NA","return","j","j","767","1415","17851","NA","39391","6329","767","2","legacy","1024","1","44100","-16","experiment","emtal","2","1","1","0","1","eng, french","34","","even","590113","571733","NA","NA","591530","590109","NA","1872","589642","1872","1872","493290","532685","749169","747665","749938","541415","539336","571733","NA","441583","482177","570072","539079","590113","539340","NA","749168","749168","647793","647789","747660","NAP perception","46","68317","50","yes","1024"
"92.1568627451","yes","92.1568627451","1367.11764706","1367.11764706","white","no","xpyriment","Ich habe die obigen Informationen gelesen und verstanden.","legacy","legacy","0","uniform","1","0","0","undefined","undefined","1","f","2","1","NA","0","1","0","0","0","0","0","0","0","0","60","60","60","0","0","0","NA","0","0","2","0","0","0","2","60","60","60","60","60","Thu Nov  2 11:48:19 2017","Forced-choice identification task with a practice and an experimental phase","yes","NAP_GER_AA_4blocks_noglides.osexp","/Users/aviadalbert/Documents/Academisch/UoC/Dissertation/Experiment/OpenSesame/NAP-FC/NAP_GER_AA_4blocks_noglides","yes","no","sans","no","20","no","black","no","Weiter","yes","768","legacy","50","9","0","/Users/aviadalbert/Documents/Academisch/UoC/Dissertation/Experiment/OpenSesame/NAP-FC/NAP_GER_AA_4blocks_noglides/subject-34.csv","xpyriment","Jazzy James","3.1.9","yes","yes","59a800d99ad5a1025d81bb03","59a801616c613b0251691de0","no","no","0","f","j","space","NA","return","j","f","1406","1415","17851","NA","39391","6329","1406","2","legacy","1024","1","44100","-16","experiment","ftal","2","1","1","0","1","eng, french","34","","even","590113","571733","NA","NA","591530","590109","NA","1872","589642","1872","1872","493290","532685","751716","750210","753124","541415","539336","571733","NA","441583","482177","570072","539079","590113","539340","NA","751715","751716","647793","647789","750206","NAP perception","47","69723","51","yes","1024"
"92.3076923077","yes","92.3076923077","1359.75","1359.75","white","no","xpyriment","Ich habe die obigen Informationen gelesen und verstanden.","legacy","legacy","0","uniform","1","0","0","undefined","undefined","1","j","2","1","NA","0","1","0","0","0","0","0","0","0","0","61","61","61","0","0","0","NA","0","0","2","0","0","0","2","61","61","61","61","61","Thu Nov  2 11:48:19 2017","Forced-choice identification task with a practice and an experimental phase","yes","NAP_GER_AA_4blocks_noglides.osexp","/Users/aviadalbert/Documents/Academisch/UoC/Dissertation/Experiment/OpenSesame/NAP-FC/NAP_GER_AA_4blocks_noglides","yes","no","sans","no","20","no","black","no","Weiter","yes","768","legacy","51","9","0","/Users/aviadalbert/Documents/Academisch/UoC/Dissertation/Experiment/OpenSesame/NAP-FC/NAP_GER_AA_4blocks_noglides/subject-34.csv","xpyriment","Jazzy James","3.1.9","yes","yes","59a800d99ad5a1025d81bb03","59a801616c613b0251691de0","no","no","0","j","j","space","NA","return","j","j","984","1415","17851","NA","39391","6329","984","2","legacy","1024","1","44100","-16","experiment","zeval","2","1","1","0","1","eng, french","34","","even","590113","571733","NA","NA","591530","590109","NA","1872","589642","1872","1872","493290","532685","754893","753389","755878","541415","539336","571733","NA","441583","482177","570072","539079","590113","539340","NA","754893","754893","647793","647789","753385","NAP perception","48","70707","52","yes","1024"
"92.4528301887","yes","92.4528301887","1348.47169811","1348.47169811","white","no","xpyriment","Ich habe die obigen Informationen gelesen und verstanden.","legacy","legacy","0","uniform","1","0","0","undefined","undefined","1","j","2","1","NA","0","1","0","0","0","0","0","0","0","0","62","62","62","0","0","0","NA","0","0","2","0","0","0","2","62","62","62","62","62","Thu Nov  2 11:48:19 2017","Forced-choice identification task with a practice and an experimental phase","yes","NAP_GER_AA_4blocks_noglides.osexp","/Users/aviadalbert/Documents/Academisch/UoC/Dissertation/Experiment/OpenSesame/NAP-FC/NAP_GER_AA_4blocks_noglides","yes","no","sans","no","20","no","black","no","Weiter","yes","768","legacy","52","9","0","/Users/aviadalbert/Documents/Academisch/UoC/Dissertation/Experiment/OpenSesame/NAP-FC/NAP_GER_AA_4blocks_noglides/subject-34.csv","xpyriment","Jazzy James","3.1.9","yes","yes","59a800d99ad5a1025d81bb03","59a801616c613b0251691de0","no","no","0","j","j","space","NA","return","j","j","762","1415","17851","NA","39391","6329","762","2","legacy","1024","1","44100","-16","experiment","ﾊテfal","2","1","1","0","1","eng, french","34","","even","590113","571733","NA","NA","591530","590109","NA","1872","589642","1872","1872","493290","532685","757644","756140","758408","541415","539336","571733","NA","441583","482177","570072","539079","590113","539340","NA","757643","757643","647793","647789","756136","NAP perception","49","71469","53","yes","1024"
"92.5925925926","yes","92.5925925926","1341.11111111","1341.11111111","white","no","xpyriment","Ich habe die obigen Informationen gelesen und verstanden.","legacy","legacy","0","uniform","1","0","0","undefined","undefined","1","j","2","1","NA","0","1","0","0","0","0","0","0","0","0","63","63","63","0","0","0","NA","0","0","2","0","0","0","2","63","63","63","63","63","Thu Nov  2 11:48:19 2017","Forced-choice identification task with a practice and an experimental phase","yes","NAP_GER_AA_4blocks_noglides.osexp","/Users/aviadalbert/Documents/Academisch/UoC/Dissertation/Experiment/OpenSesame/NAP-FC/NAP_GER_AA_4blocks_noglides","yes","no","sans","no","20","no","black","no","Weiter","yes","768","legacy","53","9","0","/Users/aviadalbert/Documents/Academisch/UoC/Dissertation/Experiment/OpenSesame/NAP-FC/NAP_GER_AA_4blocks_noglides/subject-34.csv","xpyriment","Jazzy James","3.1.9","yes","yes","59a800d99ad5a1025d81bb03","59a801616c613b0251691de0","no","no","0","j","j","space","NA","return","j","j","951","1415","17851","NA","39391","6329","951","2","legacy","1024","1","44100","-16","experiment","efnal","2","1","1","0","1","eng, french","34","","even","590113","571733","NA","NA","591530","590109","NA","1872","589642","1872","1872","493290","532685","760183","758680","761135","541415","539336","571733","NA","441583","482177","570072","539079","590113","539340","NA","760183","760183","647793","647789","758676","NAP perception","50","72420","54","yes","1024"
"92.7272727273","yes","92.7272727273","1331.14545455","1331.14545455","white","no","xpyriment","Ich habe die obigen Informationen gelesen und verstanden.","legacy","legacy","0","uniform","1","0","0","undefined","undefined","1","j","2","1","NA","0","1","0","0","0","0","0","0","0","0","64","64","64","0","0","0","NA","0","0","2","0","0","0","2","64","64","64","64","64","Thu Nov  2 11:48:19 2017","Forced-choice identification task with a practice and an experimental phase","yes","NAP_GER_AA_4blocks_noglides.osexp","/Users/aviadalbert/Documents/Academisch/UoC/Dissertation/Experiment/OpenSesame/NAP-FC/NAP_GER_AA_4blocks_noglides","yes","no","sans","no","20","no","black","no","Weiter","yes","768","legacy","54","9","0","/Users/aviadalbert/Documents/Academisch/UoC/Dissertation/Experiment/OpenSesame/NAP-FC/NAP_GER_AA_4blocks_noglides/subject-34.csv","xpyriment","Jazzy James","3.1.9","yes","yes","59a800d99ad5a1025d81bb03","59a801616c613b0251691de0","no","no","0","j","j","space","NA","return","j","j","793","1415","17851","NA","39391","6329","793","2","legacy","1024","1","44100","-16","experiment","elkal","2","1","1","0","1","eng, french","34","","even","590113","571733","NA","NA","591530","590109","NA","1872","589642","1872","1872","493290","532685","762914","761406","763708","541415","539336","571733","NA","441583","482177","570072","539079","590113","539340","NA","762914","762914","647793","647789","761402","NAP perception","51","73213","55","yes","1024"
"92.8571428571","yes","92.8571428571","1328.82142857","1328.82142857","white","no","xpyriment","Ich habe die obigen Informationen gelesen und verstanden.","legacy","legacy","0","uniform","1","0","0","undefined","undefined","1","f","2","1","NA","0","1","0","0","0","0","0","0","0","0","65","65","65","0","0","0","NA","0","0","2","0","0","0","2","65","65","65","65","65","Thu Nov  2 11:48:19 2017","Forced-choice identification task with a practice and an experimental phase","yes","NAP_GER_AA_4blocks_noglides.osexp","/Users/aviadalbert/Documents/Academisch/UoC/Dissertation/Experiment/OpenSesame/NAP-FC/NAP_GER_AA_4blocks_noglides","yes","no","sans","no","20","no","black","no","Weiter","yes","768","legacy","55","9","0","/Users/aviadalbert/Documents/Academisch/UoC/Dissertation/Experiment/OpenSesame/NAP-FC/NAP_GER_AA_4blocks_noglides/subject-34.csv","xpyriment","Jazzy James","3.1.9","yes","yes","59a800d99ad5a1025d81bb03","59a801616c613b0251691de0","no","no","0","f","j","space","NA","return","j","f","1201","1415","17851","NA","39391","6329","1201","2","legacy","1024","1","44100","-16","experiment","lfal","2","1","1","0","1","eng, french","34","","even","590113","571733","NA","NA","591530","590109","NA","1872","589642","1872","1872","493290","532685","765497","763993","766700","541415","539336","571733","NA","441583","482177","570072","539079","590113","539340","NA","765496","765496","647793","647789","763989","NAP perception","52","74414","56","yes","1024"
