"acc","accept_status","accuracy","average_response_time","avg_rt","background","bidi","canvas_backend","checkbox_status","clock_backend","color_backend","compensation","coordinates","correct","correct_block_activation","correct_block_exit","correct_instructions_1","correct_instructions_2","correct_keyboard_response","correct_response","count_block_activation","count_block_exit","count_block_info_QA","count_cont_e_block_message","count_e_block_loop","count_e_block_sequence","count_end_of_experiment","count_experiment","count_experimental_loop","count_form_consent","count_info_forms","count_instructions_1","count_instructions_2","count_keyboard_response","count_listen_message","count_logger","count_p_block_loop","count_p_block_sequence","count_p_feedback","count_pause_feedback","count_personal_details_form_1","count_personal_details_form_2","count_post_loop_blank","count_practice_loop","count_pre_e_block_message","count_pre_p_block_message","count_reset_feedback","count_stimulus_image","count_stimulus_sound","count_timeout_message","count_timeout_sound","count_trial_sequence","datetime","description","disable_garbage_collection","experiment_file","experiment_path","expyriment_opengl","font_bold","font_family","font_italic","font_size","font_underline","foreground","form_clicks","form_response","fullscreen","height","keyboard_backend","live_row","live_row_p_block_loop","live_row_practice_loop","logfile","mouse_backend","opensesame_codename","opensesame_version","osf_always_upload_data","osf_always_upload_experiment","osf_datanode_id","osf_id","practice","pygame_doublebuf","repeat_cycle","response","response_block_activation","response_block_exit","response_block_info_QA","response_instructions_1","response_instructions_2","response_keyboard_response","response_time","response_time_block_activation","response_time_block_exit","response_time_block_info_QA","response_time_instructions_1","response_time_instructions_2","response_time_keyboard_response","round_decimals","sampler_backend","sound_buf_size","sound_channels","sound_freq","sound_sample_size","start","stimulus","subject_age","subject_education","subject_gender","subject_german_native","subject_handedness","subject_language_other","subject_nr","subject_other_native_lang","subject_parity","time_block_activation","time_block_exit","time_block_info_QA","time_cont_e_block_message","time_e_block_loop","time_e_block_sequence","time_end_of_experiment","time_experiment","time_experimental_loop","time_form_consent","time_info_forms","time_instructions_1","time_instructions_2","time_keyboard_response","time_listen_message","time_logger","time_p_block_loop","time_p_block_sequence","time_p_feedback","time_pause_feedback","time_personal_details_form_1","time_personal_details_form_2","time_post_loop_blank","time_practice_loop","time_pre_e_block_message","time_pre_p_block_message","time_reset_feedback","time_stimulus_image","time_stimulus_sound","time_timeout_message","time_timeout_sound","time_trial_sequence","title","total_correct","total_response_time","total_responses","uniform_coordinates","width"
"100","yes","100","914","914","white","no","xpyriment","Ich habe die obigen Informationen gelesen und verstanden.","legacy","legacy","0","uniform","1","0","NA","undefined","undefined","1","f","0","0","NA","NA","NA","NA","NA","0","0","0","0","0","0","0","0","0","0","0","NA","NA","0","0","0","0","NA","0","0","0","0","0","0","0","Thu Oct 26 11:09:08 2017","Forced-choice identification task with a practice and an experimental phase","yes","NAP_GER_AA_4blocks_noglides.osexp","/Users/aviadalbert/Documents/Academisch/UoC/Dissertation/Experiment/OpenSesame/NAP-FC/NAP_GER_AA_4blocks_noglides","yes","no","sans","no","20","no","black","no","Weiter","yes","768","legacy","0","0","0","/Users/aviadalbert/Documents/Academisch/UoC/Dissertation/Experiment/OpenSesame/NAP-FC/NAP_GER_AA_4blocks_noglides/subject-22.csv","xpyriment","Jazzy James","3.1.9","yes","yes","59a800d99ad5a1025d81bb03","59a801616c613b0251691de0","yes","no","0","f","f","NA","NA","space","space","f","914","3546","NA","NA","32419","9502","914","2","legacy","1024","1","44100","-16","experiment","flal","4","2","0","0","0","Eng, Japanese","22","","even","6566844","NA","NA","NA","NA","NA","NA","4722931","NA","4722932","4722932","6524628","6557052","6572096","6570590","6573011","6570391","6566841","NA","NA","6426061","6490754","NA","6566623","NA","6566844","NA","6572096","6572096","NA","NA","6570586","NAP perception","1","914","1","yes","1024"
"100","yes","100","814","814","white","no","xpyriment","Ich habe die obigen Informationen gelesen und verstanden.","legacy","legacy","0","uniform","1","0","NA","undefined","undefined","1","j","0","0","NA","NA","NA","NA","NA","0","0","0","0","0","0","1","1","1","0","0","NA","NA","0","0","0","0","NA","0","0","1","1","1","1","1","Thu Oct 26 11:09:08 2017","Forced-choice identification task with a practice and an experimental phase","yes","NAP_GER_AA_4blocks_noglides.osexp","/Users/aviadalbert/Documents/Academisch/UoC/Dissertation/Experiment/OpenSesame/NAP-FC/NAP_GER_AA_4blocks_noglides","yes","no","sans","no","20","no","black","no","Weiter","yes","768","legacy","1","1","0","/Users/aviadalbert/Documents/Academisch/UoC/Dissertation/Experiment/OpenSesame/NAP-FC/NAP_GER_AA_4blocks_noglides/subject-22.csv","xpyriment","Jazzy James","3.1.9","yes","yes","59a800d99ad5a1025d81bb03","59a801616c613b0251691de0","yes","no","0","j","f","NA","NA","space","space","j","714","3546","NA","NA","32419","9502","714","2","legacy","1024","1","44100","-16","experiment","lepal","4","2","0","0","0","Eng, Japanese","22","","even","6566844","NA","NA","NA","NA","NA","NA","4722931","NA","4722932","4722932","6524628","6557052","6574813","6573310","6575528","6570391","6566841","NA","NA","6426061","6490754","NA","6566623","NA","6566844","NA","6574813","6574813","NA","NA","6573306","NAP perception","2","1628","2","yes","1024"
"100","yes","100","864.666666667","864.666666667","white","no","xpyriment","Ich habe die obigen Informationen gelesen und verstanden.","legacy","legacy","0","uniform","1","0","NA","undefined","undefined","1","j","0","0","NA","NA","NA","NA","NA","0","0","0","0","0","0","2","2","2","0","0","NA","NA","0","0","0","0","NA","0","0","2","2","2","2","2","Thu Oct 26 11:09:08 2017","Forced-choice identification task with a practice and an experimental phase","yes","NAP_GER_AA_4blocks_noglides.osexp","/Users/aviadalbert/Documents/Academisch/UoC/Dissertation/Experiment/OpenSesame/NAP-FC/NAP_GER_AA_4blocks_noglides","yes","no","sans","no","20","no","black","no","Weiter","yes","768","legacy","2","2","0","/Users/aviadalbert/Documents/Academisch/UoC/Dissertation/Experiment/OpenSesame/NAP-FC/NAP_GER_AA_4blocks_noglides/subject-22.csv","xpyriment","Jazzy James","3.1.9","yes","yes","59a800d99ad5a1025d81bb03","59a801616c613b0251691de0","yes","no","0","j","f","NA","NA","space","space","j","966","3546","NA","NA","32419","9502","966","2","legacy","1024","1","44100","-16","experiment","emtal","4","2","0","0","0","Eng, Japanese","22","","even","6566844","NA","NA","NA","NA","NA","NA","4722931","NA","4722932","4722932","6524628","6557052","6577323","6575820","6578290","6570391","6566841","NA","NA","6426061","6490754","NA","6566623","NA","6566844","NA","6577323","6577323","NA","NA","6575816","NAP perception","3","2594","3","yes","1024"
"100","yes","100","892.75","892.75","white","no","xpyriment","Ich habe die obigen Informationen gelesen und verstanden.","legacy","legacy","0","uniform","1","0","NA","undefined","undefined","1","f","0","0","NA","NA","NA","NA","NA","0","0","0","0","0","0","3","3","3","0","0","NA","NA","0","0","0","0","NA","0","0","3","3","3","3","3","Thu Oct 26 11:09:08 2017","Forced-choice identification task with a practice and an experimental phase","yes","NAP_GER_AA_4blocks_noglides.osexp","/Users/aviadalbert/Documents/Academisch/UoC/Dissertation/Experiment/OpenSesame/NAP-FC/NAP_GER_AA_4blocks_noglides","yes","no","sans","no","20","no","black","no","Weiter","yes","768","legacy","3","3","0","/Users/aviadalbert/Documents/Academisch/UoC/Dissertation/Experiment/OpenSesame/NAP-FC/NAP_GER_AA_4blocks_noglides/subject-22.csv","xpyriment","Jazzy James","3.1.9","yes","yes","59a800d99ad5a1025d81bb03","59a801616c613b0251691de0","yes","no","0","f","f","NA","NA","space","space","f","977","3546","NA","NA","32419","9502","977","2","legacy","1024","1","44100","-16","experiment","ʃpal","4","2","0","0","0","Eng, Japanese","22","","even","6566844","NA","NA","NA","NA","NA","NA","4722931","NA","4722932","4722932","6524628","6557052","6580074","6578570","6581052","6570391","6566841","NA","NA","6426061","6490754","NA","6566623","NA","6566844","NA","6580073","6580074","NA","NA","6578565","NAP perception","4","3571","4","yes","1024"
"100","yes","100","842.8","842.8","white","no","xpyriment","Ich habe die obigen Informationen gelesen und verstanden.","legacy","legacy","0","uniform","1","0","NA","undefined","undefined","1","j","0","0","NA","NA","NA","NA","NA","0","0","0","0","0","0","4","4","4","0","0","NA","NA","0","0","0","0","NA","0","0","4","4","4","4","4","Thu Oct 26 11:09:08 2017","Forced-choice identification task with a practice and an experimental phase","yes","NAP_GER_AA_4blocks_noglides.osexp","/Users/aviadalbert/Documents/Academisch/UoC/Dissertation/Experiment/OpenSesame/NAP-FC/NAP_GER_AA_4blocks_noglides","yes","no","sans","no","20","no","black","no","Weiter","yes","768","legacy","4","4","0","/Users/aviadalbert/Documents/Academisch/UoC/Dissertation/Experiment/OpenSesame/NAP-FC/NAP_GER_AA_4blocks_noglides/subject-22.csv","xpyriment","Jazzy James","3.1.9","yes","yes","59a800d99ad5a1025d81bb03","59a801616c613b0251691de0","yes","no","0","j","f","NA","NA","space","space","j","643","3546","NA","NA","32419","9502","643","2","legacy","1024","1","44100","-16","experiment","nefal","4","2","0","0","0","Eng, Japanese","22","","even","6566844","NA","NA","NA","NA","NA","NA","4722931","NA","4722932","4722932","6524628","6557052","6582831","6581324","6583475","6570391","6566841","NA","NA","6426061","6490754","NA","6566623","NA","6566844","NA","6582831","6582831","NA","NA","6581320","NAP perception","5","4214","5","yes","1024"
"100","yes","100","844.166666667","844.166666667","white","no","xpyriment","Ich habe die obigen Informationen gelesen und verstanden.","legacy","legacy","0","uniform","1","0","NA","undefined","undefined","1","f","0","0","NA","NA","NA","NA","NA","0","0","0","0","0","0","5","5","5","0","0","NA","NA","0","0","0","0","NA","0","0","5","5","5","5","5","Thu Oct 26 11:09:08 2017","Forced-choice identification task with a practice and an experimental phase","yes","NAP_GER_AA_4blocks_noglides.osexp","/Users/aviadalbert/Documents/Academisch/UoC/Dissertation/Experiment/OpenSesame/NAP-FC/NAP_GER_AA_4blocks_noglides","yes","no","sans","no","20","no","black","no","Weiter","yes","768","legacy","5","5","0","/Users/aviadalbert/Documents/Academisch/UoC/Dissertation/Experiment/OpenSesame/NAP-FC/NAP_GER_AA_4blocks_noglides/subject-22.csv","xpyriment","Jazzy James","3.1.9","yes","yes","59a800d99ad5a1025d81bb03","59a801616c613b0251691de0","yes","no","0","f","f","NA","NA","space","space","f","851","3546","NA","NA","32419","9502","851","2","legacy","1024","1","44100","-16","experiment","sfal","4","2","0","0","0","Eng, Japanese","22","","even","6566844","NA","NA","NA","NA","NA","NA","4722931","NA","4722932","4722932","6524628","6557052","6585247","6583742","6586099","6570391","6566841","NA","NA","6426061","6490754","NA","6566623","NA","6566844","NA","6585246","6585246","NA","NA","6583738","NAP perception","6","5065","6","yes","1024"
"100","yes","100","1001.28571429","1001.28571429","white","no","xpyriment","Ich habe die obigen Informationen gelesen und verstanden.","legacy","legacy","0","uniform","1","0","NA","undefined","undefined","1","f","0","0","NA","NA","NA","NA","NA","0","0","0","0","0","0","6","6","6","0","0","NA","NA","0","0","0","0","NA","0","0","6","6","6","6","6","Thu Oct 26 11:09:08 2017","Forced-choice identification task with a practice and an experimental phase","yes","NAP_GER_AA_4blocks_noglides.osexp","/Users/aviadalbert/Documents/Academisch/UoC/Dissertation/Experiment/OpenSesame/NAP-FC/NAP_GER_AA_4blocks_noglides","yes","no","sans","no","20","no","black","no","Weiter","yes","768","legacy","6","6","0","/Users/aviadalbert/Documents/Academisch/UoC/Dissertation/Experiment/OpenSesame/NAP-FC/NAP_GER_AA_4blocks_noglides/subject-22.csv","xpyriment","Jazzy James","3.1.9","yes","yes","59a800d99ad5a1025d81bb03","59a801616c613b0251691de0","yes","no","0","f","f","NA","NA","space","space","f","1944","3546","NA","NA","32419","9502","1944","2","legacy","1024","1","44100","-16","experiment","zmal","4","2","0","0","0","Eng, Japanese","22","","even","6566844","NA","NA","NA","NA","NA","NA","4722931","NA","4722932","4722932","6524628","6557052","6587891","6586386","6589836","6570391","6566841","NA","NA","6426061","6490754","NA","6566623","NA","6566844","NA","6587891","6587891","NA","NA","6586382","NAP perception","7","7009","7","yes","1024"
"100","yes","100","990.125","990.125","white","no","xpyriment","Ich habe die obigen Informationen gelesen und verstanden.","legacy","legacy","0","uniform","1","0","NA","undefined","undefined","1","j","0","0","NA","NA","NA","NA","NA","0","0","0","0","0","0","7","7","7","0","0","NA","NA","0","0","0","0","NA","0","0","7","7","7","7","7","Thu Oct 26 11:09:08 2017","Forced-choice identification task with a practice and an experimental phase","yes","NAP_GER_AA_4blocks_noglides.osexp","/Users/aviadalbert/Documents/Academisch/UoC/Dissertation/Experiment/OpenSesame/NAP-FC/NAP_GER_AA_4blocks_noglides","yes","no","sans","no","20","no","black","no","Weiter","yes","768","legacy","7","7","0","/Users/aviadalbert/Documents/Academisch/UoC/Dissertation/Experiment/OpenSesame/NAP-FC/NAP_GER_AA_4blocks_noglides/subject-22.csv","xpyriment","Jazzy James","3.1.9","yes","yes","59a800d99ad5a1025d81bb03","59a801616c613b0251691de0","yes","no","0","j","f","NA","NA","space","space","j","912","3546","NA","NA","32419","9502","912","2","legacy","1024","1","44100","-16","experiment","mesal","4","2","0","0","0","Eng, Japanese","22","","even","6566844","NA","NA","NA","NA","NA","NA","4722931","NA","4722932","4722932","6524628","6557052","6591608","6590104","6592521","6570391","6566841","NA","NA","6426061","6490754","NA","6566623","NA","6566844","NA","6591608","6591608","NA","NA","6590100","NAP perception","8","7921","8","yes","1024"
"100","yes","100","973.888888889","973.888888889","white","no","xpyriment","Ich habe die obigen Informationen gelesen und verstanden.","legacy","legacy","0","uniform","1","0","NA","undefined","undefined","1","j","0","0","NA","NA","NA","NA","NA","0","0","0","0","0","0","8","8","8","0","0","NA","NA","0","0","0","0","NA","0","0","8","8","8","8","8","Thu Oct 26 11:09:08 2017","Forced-choice identification task with a practice and an experimental phase","yes","NAP_GER_AA_4blocks_noglides.osexp","/Users/aviadalbert/Documents/Academisch/UoC/Dissertation/Experiment/OpenSesame/NAP-FC/NAP_GER_AA_4blocks_noglides","yes","no","sans","no","20","no","black","no","Weiter","yes","768","legacy","8","8","0","/Users/aviadalbert/Documents/Academisch/UoC/Dissertation/Experiment/OpenSesame/NAP-FC/NAP_GER_AA_4blocks_noglides/subject-22.csv","xpyriment","Jazzy James","3.1.9","yes","yes","59a800d99ad5a1025d81bb03","59a801616c613b0251691de0","yes","no","0","j","f","NA","NA","space","space","j","844","3546","NA","NA","32419","9502","844","2","legacy","1024","1","44100","-16","experiment","enval","4","2","0","0","0","Eng, Japanese","22","","even","6566844","NA","NA","NA","NA","NA","NA","4722931","NA","4722932","4722932","6524628","6557052","6594302","6592799","6595147","6570391","6566841","NA","NA","6426061","6490754","NA","6566623","NA","6566844","NA","6594302","6594302","NA","NA","6592795","NAP perception","9","8765","9","yes","1024"
"100","yes","100","957.2","957.2","white","no","xpyriment","Ich habe die obigen Informationen gelesen und verstanden.","legacy","legacy","0","uniform","1","0","NA","undefined","undefined","1","f","0","0","NA","NA","NA","NA","NA","0","0","0","0","0","0","9","9","9","0","0","NA","NA","0","0","0","0","NA","0","0","9","9","9","9","9","Thu Oct 26 11:09:08 2017","Forced-choice identification task with a practice and an experimental phase","yes","NAP_GER_AA_4blocks_noglides.osexp","/Users/aviadalbert/Documents/Academisch/UoC/Dissertation/Experiment/OpenSesame/NAP-FC/NAP_GER_AA_4blocks_noglides","yes","no","sans","no","20","no","black","no","Weiter","yes","768","legacy","9","9","0","/Users/aviadalbert/Documents/Academisch/UoC/Dissertation/Experiment/OpenSesame/NAP-FC/NAP_GER_AA_4blocks_noglides/subject-22.csv","xpyriment","Jazzy James","3.1.9","yes","yes","59a800d99ad5a1025d81bb03","59a801616c613b0251691de0","yes","no","0","f","f","NA","NA","space","space","f","807","3546","NA","NA","32419","9502","807","2","legacy","1024","1","44100","-16","experiment","vlal","4","2","0","0","0","Eng, Japanese","22","","even","6566844","NA","NA","NA","NA","NA","NA","4722931","NA","4722932","4722932","6524628","6557052","6596920","6595417","6597728","6570391","6566841","NA","NA","6426061","6490754","NA","6566623","NA","6566844","NA","6596920","6596920","NA","NA","6595413","NAP perception","10","9572","10","yes","1024"
"100","yes","100","791","791","white","no","xpyriment","Ich habe die obigen Informationen gelesen und verstanden.","legacy","legacy","0","uniform","1","0","0","undefined","undefined","1","j","2","1","NA","0","1","0","0","0","0","0","0","0","0","10","10","10","0","0","0","NA","0","0","2","0","0","0","2","10","10","10","10","10","Thu Oct 26 11:09:08 2017","Forced-choice identification task with a practice and an experimental phase","yes","NAP_GER_AA_4blocks_noglides.osexp","/Users/aviadalbert/Documents/Academisch/UoC/Dissertation/Experiment/OpenSesame/NAP-FC/NAP_GER_AA_4blocks_noglides","yes","no","sans","no","20","no","black","no","Weiter","yes","768","legacy","0","9","0","/Users/aviadalbert/Documents/Academisch/UoC/Dissertation/Experiment/OpenSesame/NAP-FC/NAP_GER_AA_4blocks_noglides/subject-22.csv","xpyriment","Jazzy James","3.1.9","yes","yes","59a800d99ad5a1025d81bb03","59a801616c613b0251691de0","no","no","0","j","f","space","NA","space","space","j","791","2913","22928","NA","32419","9502","791","2","legacy","1024","1","44100","-16","experiment","esmal","4","2","0","0","0","Eng, Japanese","22","","even","6622932","6599449","NA","NA","6625846","6622928","NA","4722931","6622437","4722932","4722932","6524628","6557052","6627564","6626059","6628356","6570391","6566841","6599449","NA","6426061","6490754","6597790","6566623","6622932","6566844","NA","6627564","6627564","NA","NA","6626056","NAP perception","1","791","1","yes","1024"
"100","yes","100","801","801","white","no","xpyriment","Ich habe die obigen Informationen gelesen und verstanden.","legacy","legacy","0","uniform","1","0","0","undefined","undefined","1","j","2","1","NA","0","1","0","0","0","0","0","0","0","0","11","11","11","0","0","0","NA","0","0","2","0","0","0","2","11","11","11","11","11","Thu Oct 26 11:09:08 2017","Forced-choice identification task with a practice and an experimental phase","yes","NAP_GER_AA_4blocks_noglides.osexp","/Users/aviadalbert/Documents/Academisch/UoC/Dissertation/Experiment/OpenSesame/NAP-FC/NAP_GER_AA_4blocks_noglides","yes","no","sans","no","20","no","black","no","Weiter","yes","768","legacy","1","9","0","/Users/aviadalbert/Documents/Academisch/UoC/Dissertation/Experiment/OpenSesame/NAP-FC/NAP_GER_AA_4blocks_noglides/subject-22.csv","xpyriment","Jazzy James","3.1.9","yes","yes","59a800d99ad5a1025d81bb03","59a801616c613b0251691de0","no","no","0","j","f","space","NA","space","space","j","811","2913","22928","NA","32419","9502","811","2","legacy","1024","1","44100","-16","experiment","melal","4","2","0","0","0","Eng, Japanese","22","","even","6622932","6599449","NA","NA","6625846","6622928","NA","4722931","6622437","4722932","4722932","6524628","6557052","6630132","6628626","6630944","6570391","6566841","6599449","NA","6426061","6490754","6597790","6566623","6622932","6566844","NA","6630131","6630132","NA","NA","6628622","NAP perception","2","1602","2","yes","1024"
"100","yes","100","785","785","white","no","xpyriment","Ich habe die obigen Informationen gelesen und verstanden.","legacy","legacy","0","uniform","1","0","0","undefined","undefined","1","f","2","1","NA","0","1","0","0","0","0","0","0","0","0","12","12","12","0","0","0","NA","0","0","2","0","0","0","2","12","12","12","12","12","Thu Oct 26 11:09:08 2017","Forced-choice identification task with a practice and an experimental phase","yes","NAP_GER_AA_4blocks_noglides.osexp","/Users/aviadalbert/Documents/Academisch/UoC/Dissertation/Experiment/OpenSesame/NAP-FC/NAP_GER_AA_4blocks_noglides","yes","no","sans","no","20","no","black","no","Weiter","yes","768","legacy","2","9","0","/Users/aviadalbert/Documents/Academisch/UoC/Dissertation/Experiment/OpenSesame/NAP-FC/NAP_GER_AA_4blocks_noglides/subject-22.csv","xpyriment","Jazzy James","3.1.9","yes","yes","59a800d99ad5a1025d81bb03","59a801616c613b0251691de0","no","no","0","f","f","space","NA","space","space","f","753","2913","22928","NA","32419","9502","753","2","legacy","1024","1","44100","-16","experiment","sfal","4","2","0","0","0","Eng, Japanese","22","","even","6622932","6599449","NA","NA","6625846","6622928","NA","4722931","6622437","4722932","4722932","6524628","6557052","6632738","6631234","6633492","6570391","6566841","6599449","NA","6426061","6490754","6597790","6566623","6622932","6566844","NA","6632738","6632738","NA","NA","6631230","NAP perception","3","2355","3","yes","1024"
"75","yes","75","856","856","white","no","xpyriment","Ich habe die obigen Informationen gelesen und verstanden.","legacy","legacy","0","uniform","0","0","0","undefined","undefined","0","f","2","1","NA","0","1","0","0","0","0","0","0","0","0","13","13","13","0","0","0","NA","0","0","2","0","0","0","2","13","13","13","13","13","Thu Oct 26 11:09:08 2017","Forced-choice identification task with a practice and an experimental phase","yes","NAP_GER_AA_4blocks_noglides.osexp","/Users/aviadalbert/Documents/Academisch/UoC/Dissertation/Experiment/OpenSesame/NAP-FC/NAP_GER_AA_4blocks_noglides","yes","no","sans","no","20","no","black","no","Weiter","yes","768","legacy","3","9","0","/Users/aviadalbert/Documents/Academisch/UoC/Dissertation/Experiment/OpenSesame/NAP-FC/NAP_GER_AA_4blocks_noglides/subject-22.csv","xpyriment","Jazzy James","3.1.9","yes","yes","59a800d99ad5a1025d81bb03","59a801616c613b0251691de0","no","no","0","j","f","space","NA","space","space","j","1069","2913","22928","NA","32419","9502","1069","2","legacy","1024","1","44100","-16","experiment","mzal","4","2","0","0","0","Eng, Japanese","22","","even","6622932","6599449","NA","NA","6625846","6622928","NA","4722931","6622437","4722932","4722932","6524628","6557052","6635283","6633780","6636353","6570391","6566841","6599449","NA","6426061","6490754","6597790","6566623","6622932","6566844","NA","6635283","6635283","NA","NA","6633776","NAP perception","3","3424","4","yes","1024"
"80","yes","80","933","933","white","no","xpyriment","Ich habe die obigen Informationen gelesen und verstanden.","legacy","legacy","0","uniform","1","0","0","undefined","undefined","1","j","2","1","NA","0","1","0","0","0","0","0","0","0","0","14","14","14","0","0","0","NA","0","0","2","0","0","0","2","14","14","14","14","14","Thu Oct 26 11:09:08 2017","Forced-choice identification task with a practice and an experimental phase","yes","NAP_GER_AA_4blocks_noglides.osexp","/Users/aviadalbert/Documents/Academisch/UoC/Dissertation/Experiment/OpenSesame/NAP-FC/NAP_GER_AA_4blocks_noglides","yes","no","sans","no","20","no","black","no","Weiter","yes","768","legacy","4","9","0","/Users/aviadalbert/Documents/Academisch/UoC/Dissertation/Experiment/OpenSesame/NAP-FC/NAP_GER_AA_4blocks_noglides/subject-22.csv","xpyriment","Jazzy James","3.1.9","yes","yes","59a800d99ad5a1025d81bb03","59a801616c613b0251691de0","no","no","0","j","f","space","NA","space","space","j","1241","2913","22928","NA","32419","9502","1241","2","legacy","1024","1","44100","-16","experiment","sefal","4","2","0","0","0","Eng, Japanese","22","","even","6622932","6599449","NA","NA","6625846","6622928","NA","4722931","6622437","4722932","4722932","6524628","6557052","6638124","6636619","6639366","6570391","6566841","6599449","NA","6426061","6490754","6597790","6566623","6622932","6566844","NA","6638123","6638123","NA","NA","6636615","NAP perception","4","4665","5","yes","1024"
"83.3333333333","yes","83.3333333333","1118.5","1118.5","white","no","xpyriment","Ich habe die obigen Informationen gelesen und verstanden.","legacy","legacy","0","uniform","1","0","0","undefined","undefined","1","f","2","1","NA","0","1","0","0","0","0","0","0","0","0","15","15","15","0","0","0","NA","0","0","2","0","0","0","2","15","15","15","15","15","Thu Oct 26 11:09:08 2017","Forced-choice identification task with a practice and an experimental phase","yes","NAP_GER_AA_4blocks_noglides.osexp","/Users/aviadalbert/Documents/Academisch/UoC/Dissertation/Experiment/OpenSesame/NAP-FC/NAP_GER_AA_4blocks_noglides","yes","no","sans","no","20","no","black","no","Weiter","yes","768","legacy","5","9","0","/Users/aviadalbert/Documents/Academisch/UoC/Dissertation/Experiment/OpenSesame/NAP-FC/NAP_GER_AA_4blocks_noglides/subject-22.csv","xpyriment","Jazzy James","3.1.9","yes","yes","59a800d99ad5a1025d81bb03","59a801616c613b0251691de0","no","no","0","f","f","space","NA","space","space","f","2046","2913","22928","NA","32419","9502","2046","2","legacy","1024","1","44100","-16","experiment","mnal","4","2","0","0","0","Eng, Japanese","22","","even","6622932","6599449","NA","NA","6625846","6622928","NA","4722931","6622437","4722932","4722932","6524628","6557052","6641150","6639647","6643197","6570391","6566841","6599449","NA","6426061","6490754","6597790","6566623","6622932","6566844","NA","6641150","6641150","NA","NA","6639643","NAP perception","5","6711","6","yes","1024"
"71.4285714286","yes","71.4285714286","1245.85714286","1245.85714286","white","no","xpyriment","Ich habe die obigen Informationen gelesen und verstanden.","legacy","legacy","0","uniform","0","0","0","undefined","undefined","0","f","2","1","NA","0","1","0","0","0","0","0","0","0","0","16","16","16","0","0","0","NA","0","0","2","0","0","0","2","16","16","16","16","16","Thu Oct 26 11:09:08 2017","Forced-choice identification task with a practice and an experimental phase","yes","NAP_GER_AA_4blocks_noglides.osexp","/Users/aviadalbert/Documents/Academisch/UoC/Dissertation/Experiment/OpenSesame/NAP-FC/NAP_GER_AA_4blocks_noglides","yes","no","sans","no","20","no","black","no","Weiter","yes","768","legacy","6","9","0","/Users/aviadalbert/Documents/Academisch/UoC/Dissertation/Experiment/OpenSesame/NAP-FC/NAP_GER_AA_4blocks_noglides/subject-22.csv","xpyriment","Jazzy James","3.1.9","yes","yes","59a800d99ad5a1025d81bb03","59a801616c613b0251691de0","no","no","0","j","f","space","NA","space","space","j","2010","2913","22928","NA","32419","9502","2010","2","legacy","1024","1","44100","-16","experiment","mzal","4","2","0","0","0","Eng, Japanese","22","","even","6622932","6599449","NA","NA","6625846","6622928","NA","4722931","6622437","4722932","4722932","6524628","6557052","6644976","6643469","6646987","6570391","6566841","6599449","NA","6426061","6490754","6597790","6566623","6622932","6566844","NA","6644975","6644975","NA","NA","6643466","NAP perception","5","8721","7","yes","1024"
"62.5","yes","62.5","1273.75","1273.75","white","no","xpyriment","Ich habe die obigen Informationen gelesen und verstanden.","legacy","legacy","0","uniform","0","0","0","undefined","undefined","0","f","2","1","NA","0","1","0","0","0","0","0","0","0","0","17","17","17","0","0","0","NA","0","0","2","0","0","0","2","17","17","17","17","17","Thu Oct 26 11:09:08 2017","Forced-choice identification task with a practice and an experimental phase","yes","NAP_GER_AA_4blocks_noglides.osexp","/Users/aviadalbert/Documents/Academisch/UoC/Dissertation/Experiment/OpenSesame/NAP-FC/NAP_GER_AA_4blocks_noglides","yes","no","sans","no","20","no","black","no","Weiter","yes","768","legacy","7","9","0","/Users/aviadalbert/Documents/Academisch/UoC/Dissertation/Experiment/OpenSesame/NAP-FC/NAP_GER_AA_4blocks_noglides/subject-22.csv","xpyriment","Jazzy James","3.1.9","yes","yes","59a800d99ad5a1025d81bb03","59a801616c613b0251691de0","no","no","0","j","f","space","NA","space","space","j","1469","2913","22928","NA","32419","9502","1469","2","legacy","1024","1","44100","-16","experiment","mlal","4","2","0","0","0","Eng, Japanese","22","","even","6622932","6599449","NA","NA","6625846","6622928","NA","4722931","6622437","4722932","4722932","6524628","6557052","6648771","6647267","6650241","6570391","6566841","6599449","NA","6426061","6490754","6597790","6566623","6622932","6566844","NA","6648771","6648771","NA","NA","6647263","NAP perception","5","10190","8","yes","1024"
"55.5555555556","yes","55.5555555556","1267.22222222","1267.22222222","white","no","xpyriment","Ich habe die obigen Informationen gelesen und verstanden.","legacy","legacy","0","uniform","0","0","0","undefined","undefined","0","f","2","1","NA","0","1","0","0","0","0","0","0","0","0","18","18","18","0","0","0","NA","0","0","2","0","0","0","2","18","18","18","18","18","Thu Oct 26 11:09:08 2017","Forced-choice identification task with a practice and an experimental phase","yes","NAP_GER_AA_4blocks_noglides.osexp","/Users/aviadalbert/Documents/Academisch/UoC/Dissertation/Experiment/OpenSesame/NAP-FC/NAP_GER_AA_4blocks_noglides","yes","no","sans","no","20","no","black","no","Weiter","yes","768","legacy","8","9","0","/Users/aviadalbert/Documents/Academisch/UoC/Dissertation/Experiment/OpenSesame/NAP-FC/NAP_GER_AA_4blocks_noglides/subject-22.csv","xpyriment","Jazzy James","3.1.9","yes","yes","59a800d99ad5a1025d81bb03","59a801616c613b0251691de0","no","no","0","j","f","space","NA","space","space","j","1215","2913","22928","NA","32419","9502","1215","2","legacy","1024","1","44100","-16","experiment","vnal","4","2","0","0","0","Eng, Japanese","22","","even","6622932","6599449","NA","NA","6625846","6622928","NA","4722931","6622437","4722932","4722932","6524628","6557052","6652034","6650527","6653250","6570391","6566841","6599449","NA","6426061","6490754","6597790","6566623","6622932","6566844","NA","6652033","6652033","NA","NA","6650524","NAP perception","5","11405","9","yes","1024"
"50","yes","50","1252","1252","white","no","xpyriment","Ich habe die obigen Informationen gelesen und verstanden.","legacy","legacy","0","uniform","0","0","0","undefined","undefined","0","f","2","1","NA","0","1","0","0","0","0","0","0","0","0","19","19","19","0","0","0","NA","0","0","2","0","0","0","2","19","19","19","19","19","Thu Oct 26 11:09:08 2017","Forced-choice identification task with a practice and an experimental phase","yes","NAP_GER_AA_4blocks_noglides.osexp","/Users/aviadalbert/Documents/Academisch/UoC/Dissertation/Experiment/OpenSesame/NAP-FC/NAP_GER_AA_4blocks_noglides","yes","no","sans","no","20","no","black","no","Weiter","yes","768","legacy","9","9","0","/Users/aviadalbert/Documents/Academisch/UoC/Dissertation/Experiment/OpenSesame/NAP-FC/NAP_GER_AA_4blocks_noglides/subject-22.csv","xpyriment","Jazzy James","3.1.9","yes","yes","59a800d99ad5a1025d81bb03","59a801616c613b0251691de0","no","no","0","j","f","space","NA","space","space","j","1115","2913","22928","NA","32419","9502","1115","2","legacy","1024","1","44100","-16","experiment","vzal","4","2","0","0","0","Eng, Japanese","22","","even","6622932","6599449","NA","NA","6625846","6622928","NA","4722931","6622437","4722932","4722932","6524628","6557052","6655037","6653532","6656153","6570391","6566841","6599449","NA","6426061","6490754","6597790","6566623","6622932","6566844","NA","6655036","6655037","NA","NA","6653529","NAP perception","5","12520","10","yes","1024"
"45.4545454545","yes","45.4545454545","1246.81818182","1246.81818182","white","no","xpyriment","Ich habe die obigen Informationen gelesen und verstanden.","legacy","legacy","0","uniform","0","0","0","undefined","undefined","0","f","2","1","NA","0","1","0","0","0","0","0","0","0","0","20","20","20","0","0","0","NA","0","0","2","0","0","0","2","20","20","20","20","20","Thu Oct 26 11:09:08 2017","Forced-choice identification task with a practice and an experimental phase","yes","NAP_GER_AA_4blocks_noglides.osexp","/Users/aviadalbert/Documents/Academisch/UoC/Dissertation/Experiment/OpenSesame/NAP-FC/NAP_GER_AA_4blocks_noglides","yes","no","sans","no","20","no","black","no","Weiter","yes","768","legacy","10","9","0","/Users/aviadalbert/Documents/Academisch/UoC/Dissertation/Experiment/OpenSesame/NAP-FC/NAP_GER_AA_4blocks_noglides/subject-22.csv","xpyriment","Jazzy James","3.1.9","yes","yes","59a800d99ad5a1025d81bb03","59a801616c613b0251691de0","no","no","0","j","f","space","NA","space","space","j","1195","2913","22928","NA","32419","9502","1195","2","legacy","1024","1","44100","-16","experiment","nmal","4","2","0","0","0","Eng, Japanese","22","","even","6622932","6599449","NA","NA","6625846","6622928","NA","4722931","6622437","4722932","4722932","6524628","6557052","6657926","6656420","6659122","6570391","6566841","6599449","NA","6426061","6490754","6597790","6566623","6622932","6566844","NA","6657925","6657925","NA","NA","6656416","NAP perception","5","13715","11","yes","1024"
"50","yes","50","1313.25","1313.25","white","no","xpyriment","Ich habe die obigen Informationen gelesen und verstanden.","legacy","legacy","0","uniform","1","0","0","undefined","undefined","1","f","2","1","NA","0","1","0","0","0","0","0","0","0","0","21","21","21","0","0","0","NA","0","0","2","0","0","0","2","21","21","21","21","21","Thu Oct 26 11:09:08 2017","Forced-choice identification task with a practice and an experimental phase","yes","NAP_GER_AA_4blocks_noglides.osexp","/Users/aviadalbert/Documents/Academisch/UoC/Dissertation/Experiment/OpenSesame/NAP-FC/NAP_GER_AA_4blocks_noglides","yes","no","sans","no","20","no","black","no","Weiter","yes","768","legacy","11","9","0","/Users/aviadalbert/Documents/Academisch/UoC/Dissertation/Experiment/OpenSesame/NAP-FC/NAP_GER_AA_4blocks_noglides/subject-22.csv","xpyriment","Jazzy James","3.1.9","yes","yes","59a800d99ad5a1025d81bb03","59a801616c613b0251691de0","no","no","0","f","f","space","NA","space","space","f","2044","2913","22928","NA","32419","9502","2044","2","legacy","1024","1","44100","-16","experiment","nval","4","2","0","0","0","Eng, Japanese","22","","even","6622932","6599449","NA","NA","6625846","6622928","NA","4722931","6622437","4722932","4722932","6524628","6557052","6660919","6659416","6662964","6570391","6566841","6599449","NA","6426061","6490754","6597790","6566623","6622932","6566844","NA","6660919","6660919","NA","NA","6659412","NAP perception","6","15759","12","yes","1024"
"46.1538461538","yes","46.1538461538","1377.84615385","1377.84615385","white","no","xpyriment","Ich habe die obigen Informationen gelesen und verstanden.","legacy","legacy","0","uniform","0","0","0","undefined","undefined","0","f","2","1","NA","0","1","0","0","0","0","0","0","0","0","22","22","22","0","0","0","NA","0","0","2","0","0","0","2","22","22","22","22","22","Thu Oct 26 11:09:08 2017","Forced-choice identification task with a practice and an experimental phase","yes","NAP_GER_AA_4blocks_noglides.osexp","/Users/aviadalbert/Documents/Academisch/UoC/Dissertation/Experiment/OpenSesame/NAP-FC/NAP_GER_AA_4blocks_noglides","yes","no","sans","no","20","no","black","no","Weiter","yes","768","legacy","12","9","0","/Users/aviadalbert/Documents/Academisch/UoC/Dissertation/Experiment/OpenSesame/NAP-FC/NAP_GER_AA_4blocks_noglides/subject-22.csv","xpyriment","Jazzy James","3.1.9","yes","yes","59a800d99ad5a1025d81bb03","59a801616c613b0251691de0","no","no","0","j","f","space","NA","space","space","j","2153","2913","22928","NA","32419","9502","2153","2","legacy","1024","1","44100","-16","experiment","npal","4","2","0","0","0","Eng, Japanese","22","","even","6622932","6599449","NA","NA","6625846","6622928","NA","4722931","6622437","4722932","4722932","6524628","6557052","6664739","6663234","6666894","6570391","6566841","6599449","NA","6426061","6490754","6597790","6566623","6622932","6566844","NA","6664739","6664739","NA","NA","6663230","NAP perception","6","17912","13","yes","1024"
"50","yes","50","1384.85714286","1384.85714286","white","no","xpyriment","Ich habe die obigen Informationen gelesen und verstanden.","legacy","legacy","0","uniform","1","0","0","undefined","undefined","1","j","2","1","NA","0","1","0","0","0","0","0","0","0","0","23","23","23","0","0","0","NA","0","0","2","0","0","0","2","23","23","23","23","23","Thu Oct 26 11:09:08 2017","Forced-choice identification task with a practice and an experimental phase","yes","NAP_GER_AA_4blocks_noglides.osexp","/Users/aviadalbert/Documents/Academisch/UoC/Dissertation/Experiment/OpenSesame/NAP-FC/NAP_GER_AA_4blocks_noglides","yes","no","sans","no","20","no","black","no","Weiter","yes","768","legacy","13","9","0","/Users/aviadalbert/Documents/Academisch/UoC/Dissertation/Experiment/OpenSesame/NAP-FC/NAP_GER_AA_4blocks_noglides/subject-22.csv","xpyriment","Jazzy James","3.1.9","yes","yes","59a800d99ad5a1025d81bb03","59a801616c613b0251691de0","no","no","0","j","f","space","NA","space","space","j","1476","2913","22928","NA","32419","9502","1476","2","legacy","1024","1","44100","-16","experiment","eftal","4","2","0","0","0","Eng, Japanese","22","","even","6622932","6599449","NA","NA","6625846","6622928","NA","4722931","6622437","4722932","4722932","6524628","6557052","6668684","6667176","6670161","6570391","6566841","6599449","NA","6426061","6490754","6597790","6566623","6622932","6566844","NA","6668683","6668683","NA","NA","6667172","NAP perception","7","19388","14","yes","1024"
"46.6666666667","yes","46.6666666667","1437.13333333","1437.13333333","white","no","xpyriment","Ich habe die obigen Informationen gelesen und verstanden.","legacy","legacy","0","uniform","0","0","0","undefined","undefined","0","f","2","1","NA","0","1","0","0","0","0","0","0","0","0","24","24","24","0","0","0","NA","0","0","2","0","0","0","2","24","24","24","24","24","Thu Oct 26 11:09:08 2017","Forced-choice identification task with a practice and an experimental phase","yes","NAP_GER_AA_4blocks_noglides.osexp","/Users/aviadalbert/Documents/Academisch/UoC/Dissertation/Experiment/OpenSesame/NAP-FC/NAP_GER_AA_4blocks_noglides","yes","no","sans","no","20","no","black","no","Weiter","yes","768","legacy","14","9","0","/Users/aviadalbert/Documents/Academisch/UoC/Dissertation/Experiment/OpenSesame/NAP-FC/NAP_GER_AA_4blocks_noglides/subject-22.csv","xpyriment","Jazzy James","3.1.9","yes","yes","59a800d99ad5a1025d81bb03","59a801616c613b0251691de0","no","no","0","j","f","space","NA","space","space","j","2169","2913","22928","NA","32419","9502","2169","2","legacy","1024","1","44100","-16","experiment","lpal","4","2","0","0","0","Eng, Japanese","22","","even","6622932","6599449","NA","NA","6625846","6622928","NA","4722931","6622437","4722932","4722932","6524628","6557052","6671939","6670434","6674109","6570391","6566841","6599449","NA","6426061","6490754","6597790","6566623","6622932","6566844","NA","6671939","6671939","NA","NA","6670430","NAP perception","7","21557","15","yes","1024"
"43.75","yes","43.75","1476.875","1476.875","white","no","xpyriment","Ich habe die obigen Informationen gelesen und verstanden.","legacy","legacy","0","uniform","0","0","0","undefined","undefined","0","f","2","1","NA","0","1","0","0","0","0","0","0","0","0","25","25","25","0","0","0","NA","0","0","2","0","0","0","2","25","25","25","25","25","Thu Oct 26 11:09:08 2017","Forced-choice identification task with a practice and an experimental phase","yes","NAP_GER_AA_4blocks_noglides.osexp","/Users/aviadalbert/Documents/Academisch/UoC/Dissertation/Experiment/OpenSesame/NAP-FC/NAP_GER_AA_4blocks_noglides","yes","no","sans","no","20","no","black","no","Weiter","yes","768","legacy","15","9","0","/Users/aviadalbert/Documents/Academisch/UoC/Dissertation/Experiment/OpenSesame/NAP-FC/NAP_GER_AA_4blocks_noglides/subject-22.csv","xpyriment","Jazzy James","3.1.9","yes","yes","59a800d99ad5a1025d81bb03","59a801616c613b0251691de0","no","no","0","j","f","space","NA","space","space","j","2073","2913","22928","NA","32419","9502","2073","2","legacy","1024","1","44100","-16","experiment","nmal","4","2","0","0","0","Eng, Japanese","22","","even","6622932","6599449","NA","NA","6625846","6622928","NA","4722931","6622437","4722932","4722932","6524628","6557052","6675885","6674381","6677959","6570391","6566841","6599449","NA","6426061","6490754","6597790","6566623","6622932","6566844","NA","6675885","6675885","NA","NA","6674377","NAP perception","7","23630","16","yes","1024"
"47.0588235294","yes","47.0588235294","1439.23529412","1439.23529412","white","no","xpyriment","Ich habe die obigen Informationen gelesen und verstanden.","legacy","legacy","0","uniform","1","0","0","undefined","undefined","1","j","2","1","NA","0","1","0","0","0","0","0","0","0","0","26","26","26","0","0","0","NA","0","0","2","0","0","0","2","26","26","26","26","26","Thu Oct 26 11:09:08 2017","Forced-choice identification task with a practice and an experimental phase","yes","NAP_GER_AA_4blocks_noglides.osexp","/Users/aviadalbert/Documents/Academisch/UoC/Dissertation/Experiment/OpenSesame/NAP-FC/NAP_GER_AA_4blocks_noglides","yes","no","sans","no","20","no","black","no","Weiter","yes","768","legacy","16","9","0","/Users/aviadalbert/Documents/Academisch/UoC/Dissertation/Experiment/OpenSesame/NAP-FC/NAP_GER_AA_4blocks_noglides/subject-22.csv","xpyriment","Jazzy James","3.1.9","yes","yes","59a800d99ad5a1025d81bb03","59a801616c613b0251691de0","no","no","0","j","f","space","NA","space","space","j","837","2913","22928","NA","32419","9502","837","2","legacy","1024","1","44100","-16","experiment","nepal","4","2","0","0","0","Eng, Japanese","22","","even","6622932","6599449","NA","NA","6625846","6622928","NA","4722931","6622437","4722932","4722932","6524628","6557052","6679748","6678242","6680587","6570391","6566841","6599449","NA","6426061","6490754","6597790","6566623","6622932","6566844","NA","6679748","6679748","NA","NA","6678238","NAP perception","8","24467","17","yes","1024"
"50","yes","50","1403.66666667","1403.66666667","white","no","xpyriment","Ich habe die obigen Informationen gelesen und verstanden.","legacy","legacy","0","uniform","1","0","0","undefined","undefined","1","f","2","1","NA","0","1","0","0","0","0","0","0","0","0","27","27","27","0","0","0","NA","0","0","2","0","0","0","2","27","27","27","27","27","Thu Oct 26 11:09:08 2017","Forced-choice identification task with a practice and an experimental phase","yes","NAP_GER_AA_4blocks_noglides.osexp","/Users/aviadalbert/Documents/Academisch/UoC/Dissertation/Experiment/OpenSesame/NAP-FC/NAP_GER_AA_4blocks_noglides","yes","no","sans","no","20","no","black","no","Weiter","yes","768","legacy","17","9","0","/Users/aviadalbert/Documents/Academisch/UoC/Dissertation/Experiment/OpenSesame/NAP-FC/NAP_GER_AA_4blocks_noglides/subject-22.csv","xpyriment","Jazzy James","3.1.9","yes","yes","59a800d99ad5a1025d81bb03","59a801616c613b0251691de0","no","no","0","f","f","space","NA","space","space","f","799","2913","22928","NA","32419","9502","799","2","legacy","1024","1","44100","-16","experiment","ʃmal","4","2","0","0","0","Eng, Japanese","22","","even","6622932","6599449","NA","NA","6625846","6622928","NA","4722931","6622437","4722932","4722932","6524628","6557052","6682375","6680872","6683175","6570391","6566841","6599449","NA","6426061","6490754","6597790","6566623","6622932","6566844","NA","6682375","6682375","NA","NA","6680868","NAP perception","9","25266","18","yes","1024"
"52.6315789474","yes","52.6315789474","1375.26315789","1375.26315789","white","no","xpyriment","Ich habe die obigen Informationen gelesen und verstanden.","legacy","legacy","0","uniform","1","0","0","undefined","undefined","1","j","2","1","NA","0","1","0","0","0","0","0","0","0","0","28","28","28","0","0","0","NA","0","0","2","0","0","0","2","28","28","28","28","28","Thu Oct 26 11:09:08 2017","Forced-choice identification task with a practice and an experimental phase","yes","NAP_GER_AA_4blocks_noglides.osexp","/Users/aviadalbert/Documents/Academisch/UoC/Dissertation/Experiment/OpenSesame/NAP-FC/NAP_GER_AA_4blocks_noglides","yes","no","sans","no","20","no","black","no","Weiter","yes","768","legacy","18","9","0","/Users/aviadalbert/Documents/Academisch/UoC/Dissertation/Experiment/OpenSesame/NAP-FC/NAP_GER_AA_4blocks_noglides/subject-22.csv","xpyriment","Jazzy James","3.1.9","yes","yes","59a800d99ad5a1025d81bb03","59a801616c613b0251691de0","no","no","0","j","f","space","NA","space","space","j","864","2913","22928","NA","32419","9502","864","2","legacy","1024","1","44100","-16","experiment","ʃemal","4","2","0","0","0","Eng, Japanese","22","","even","6622932","6599449","NA","NA","6625846","6622928","NA","4722931","6622437","4722932","4722932","6524628","6557052","6684957","6683452","6685822","6570391","6566841","6599449","NA","6426061","6490754","6597790","6566623","6622932","6566844","NA","6684956","6684956","NA","NA","6683448","NAP perception","10","26130","19","yes","1024"
"55","yes","55","1345.2","1345.2","white","no","xpyriment","Ich habe die obigen Informationen gelesen und verstanden.","legacy","legacy","0","uniform","1","0","0","undefined","undefined","1","j","2","1","NA","0","1","0","0","0","0","0","0","0","0","29","29","29","0","0","0","NA","0","0","2","0","0","0","2","29","29","29","29","29","Thu Oct 26 11:09:08 2017","Forced-choice identification task with a practice and an experimental phase","yes","NAP_GER_AA_4blocks_noglides.osexp","/Users/aviadalbert/Documents/Academisch/UoC/Dissertation/Experiment/OpenSesame/NAP-FC/NAP_GER_AA_4blocks_noglides","yes","no","sans","no","20","no","black","no","Weiter","yes","768","legacy","19","9","0","/Users/aviadalbert/Documents/Academisch/UoC/Dissertation/Experiment/OpenSesame/NAP-FC/NAP_GER_AA_4blocks_noglides/subject-22.csv","xpyriment","Jazzy James","3.1.9","yes","yes","59a800d99ad5a1025d81bb03","59a801616c613b0251691de0","no","no","0","j","f","space","NA","space","space","j","774","2913","22928","NA","32419","9502","774","2","legacy","1024","1","44100","-16","experiment","lepal","4","2","0","0","0","Eng, Japanese","22","","even","6622932","6599449","NA","NA","6625846","6622928","NA","4722931","6622437","4722932","4722932","6524628","6557052","6687602","6686096","6688377","6570391","6566841","6599449","NA","6426061","6490754","6597790","6566623","6622932","6566844","NA","6687602","6687602","NA","NA","6686092","NAP perception","11","26904","20","yes","1024"
"57.1428571429","yes","57.1428571429","1321.66666667","1321.66666667","white","no","xpyriment","Ich habe die obigen Informationen gelesen und verstanden.","legacy","legacy","0","uniform","1","0","0","undefined","undefined","1","j","2","1","NA","0","1","0","0","0","0","0","0","0","0","30","30","30","0","0","0","NA","0","0","2","0","0","0","2","30","30","30","30","30","Thu Oct 26 11:09:08 2017","Forced-choice identification task with a practice and an experimental phase","yes","NAP_GER_AA_4blocks_noglides.osexp","/Users/aviadalbert/Documents/Academisch/UoC/Dissertation/Experiment/OpenSesame/NAP-FC/NAP_GER_AA_4blocks_noglides","yes","no","sans","no","20","no","black","no","Weiter","yes","768","legacy","20","9","0","/Users/aviadalbert/Documents/Academisch/UoC/Dissertation/Experiment/OpenSesame/NAP-FC/NAP_GER_AA_4blocks_noglides/subject-22.csv","xpyriment","Jazzy James","3.1.9","yes","yes","59a800d99ad5a1025d81bb03","59a801616c613b0251691de0","no","no","0","j","f","space","NA","space","space","j","851","2913","22928","NA","32419","9502","851","2","legacy","1024","1","44100","-16","experiment","emzal","4","2","0","0","0","Eng, Japanese","22","","even","6622932","6599449","NA","NA","6625846","6622928","NA","4722931","6622437","4722932","4722932","6524628","6557052","6690150","6688647","6691002","6570391","6566841","6599449","NA","6426061","6490754","6597790","6566623","6622932","6566844","NA","6690150","6690150","NA","NA","6688643","NAP perception","12","27755","21","yes","1024"
"59.0909090909","yes","59.0909090909","1299","1299","white","no","xpyriment","Ich habe die obigen Informationen gelesen und verstanden.","legacy","legacy","0","uniform","1","0","0","undefined","undefined","1","j","2","1","NA","0","1","0","0","0","0","0","0","0","0","31","31","31","0","0","0","NA","0","0","2","0","0","0","2","31","31","31","31","31","Thu Oct 26 11:09:08 2017","Forced-choice identification task with a practice and an experimental phase","yes","NAP_GER_AA_4blocks_noglides.osexp","/Users/aviadalbert/Documents/Academisch/UoC/Dissertation/Experiment/OpenSesame/NAP-FC/NAP_GER_AA_4blocks_noglides","yes","no","sans","no","20","no","black","no","Weiter","yes","768","legacy","21","9","0","/Users/aviadalbert/Documents/Academisch/UoC/Dissertation/Experiment/OpenSesame/NAP-FC/NAP_GER_AA_4blocks_noglides/subject-22.csv","xpyriment","Jazzy James","3.1.9","yes","yes","59a800d99ad5a1025d81bb03","59a801616c613b0251691de0","no","no","0","j","f","space","NA","space","space","j","823","2913","22928","NA","32419","9502","823","2","legacy","1024","1","44100","-16","experiment","eʃmal","4","2","0","0","0","Eng, Japanese","22","","even","6622932","6599449","NA","NA","6625846","6622928","NA","4722931","6622437","4722932","4722932","6524628","6557052","6692782","6691276","6693606","6570391","6566841","6599449","NA","6426061","6490754","6597790","6566623","6622932","6566844","NA","6692782","6692782","NA","NA","6691272","NAP perception","13","28578","22","yes","1024"
"60.8695652174","yes","60.8695652174","1275.86956522","1275.86956522","white","no","xpyriment","Ich habe die obigen Informationen gelesen und verstanden.","legacy","legacy","0","uniform","1","0","0","undefined","undefined","1","j","2","1","NA","0","1","0","0","0","0","0","0","0","0","32","32","32","0","0","0","NA","0","0","2","0","0","0","2","32","32","32","32","32","Thu Oct 26 11:09:08 2017","Forced-choice identification task with a practice and an experimental phase","yes","NAP_GER_AA_4blocks_noglides.osexp","/Users/aviadalbert/Documents/Academisch/UoC/Dissertation/Experiment/OpenSesame/NAP-FC/NAP_GER_AA_4blocks_noglides","yes","no","sans","no","20","no","black","no","Weiter","yes","768","legacy","22","9","0","/Users/aviadalbert/Documents/Academisch/UoC/Dissertation/Experiment/OpenSesame/NAP-FC/NAP_GER_AA_4blocks_noglides/subject-22.csv","xpyriment","Jazzy James","3.1.9","yes","yes","59a800d99ad5a1025d81bb03","59a801616c613b0251691de0","no","no","0","j","f","space","NA","space","space","j","767","2913","22928","NA","32419","9502","767","2","legacy","1024","1","44100","-16","experiment","lemal","4","2","0","0","0","Eng, Japanese","22","","even","6622932","6599449","NA","NA","6625846","6622928","NA","4722931","6622437","4722932","4722932","6524628","6557052","6695394","6693891","6696163","6570391","6566841","6599449","NA","6426061","6490754","6597790","6566623","6622932","6566844","NA","6695394","6695394","NA","NA","6693887","NAP perception","14","29345","23","yes","1024"
"62.5","yes","62.5","1282.5","1282.5","white","no","xpyriment","Ich habe die obigen Informationen gelesen und verstanden.","legacy","legacy","0","uniform","1","0","0","undefined","undefined","1","f","2","1","NA","0","1","0","0","0","0","0","0","0","0","33","33","33","0","0","0","NA","0","0","2","0","0","0","2","33","33","33","33","33","Thu Oct 26 11:09:08 2017","Forced-choice identification task with a practice and an experimental phase","yes","NAP_GER_AA_4blocks_noglides.osexp","/Users/aviadalbert/Documents/Academisch/UoC/Dissertation/Experiment/OpenSesame/NAP-FC/NAP_GER_AA_4blocks_noglides","yes","no","sans","no","20","no","black","no","Weiter","yes","768","legacy","23","9","0","/Users/aviadalbert/Documents/Academisch/UoC/Dissertation/Experiment/OpenSesame/NAP-FC/NAP_GER_AA_4blocks_noglides/subject-22.csv","xpyriment","Jazzy James","3.1.9","yes","yes","59a800d99ad5a1025d81bb03","59a801616c613b0251691de0","no","no","0","f","f","space","NA","space","space","f","1435","2913","22928","NA","32419","9502","1435","2","legacy","1024","1","44100","-16","experiment","zval","4","2","0","0","0","Eng, Japanese","22","","even","6622932","6599449","NA","NA","6625846","6622928","NA","4722931","6622437","4722932","4722932","6524628","6557052","6697953","6696444","6699390","6570391","6566841","6599449","NA","6426061","6490754","6597790","6566623","6622932","6566844","NA","6697953","6697953","NA","NA","6696441","NAP perception","15","30780","24","yes","1024"
"60","yes","60","1308.88","1308.88","white","no","xpyriment","Ich habe die obigen Informationen gelesen und verstanden.","legacy","legacy","0","uniform","0","0","0","undefined","undefined","0","f","2","1","NA","0","1","0","0","0","0","0","0","0","0","34","34","34","0","0","0","NA","0","0","2","0","0","0","2","34","34","34","34","34","Thu Oct 26 11:09:08 2017","Forced-choice identification task with a practice and an experimental phase","yes","NAP_GER_AA_4blocks_noglides.osexp","/Users/aviadalbert/Documents/Academisch/UoC/Dissertation/Experiment/OpenSesame/NAP-FC/NAP_GER_AA_4blocks_noglides","yes","no","sans","no","20","no","black","no","Weiter","yes","768","legacy","24","9","0","/Users/aviadalbert/Documents/Academisch/UoC/Dissertation/Experiment/OpenSesame/NAP-FC/NAP_GER_AA_4blocks_noglides/subject-22.csv","xpyriment","Jazzy James","3.1.9","yes","yes","59a800d99ad5a1025d81bb03","59a801616c613b0251691de0","no","no","0","j","f","space","NA","space","space","j","1942","2913","22928","NA","32419","9502","1942","2","legacy","1024","1","44100","-16","experiment","nfal","4","2","0","0","0","Eng, Japanese","22","","even","6622932","6599449","NA","NA","6625846","6622928","NA","4722931","6622437","4722932","4722932","6524628","6557052","6701164","6699661","6703107","6570391","6566841","6599449","NA","6426061","6490754","6597790","6566623","6622932","6566844","NA","6701164","6701164","NA","NA","6699657","NAP perception","15","32722","25","yes","1024"
"61.5384615385","yes","61.5384615385","1295.46153846","1295.46153846","white","no","xpyriment","Ich habe die obigen Informationen gelesen und verstanden.","legacy","legacy","0","uniform","1","0","0","undefined","undefined","1","j","2","1","NA","0","1","0","0","0","0","0","0","0","0","35","35","35","0","0","0","NA","0","0","2","0","0","0","2","35","35","35","35","35","Thu Oct 26 11:09:08 2017","Forced-choice identification task with a practice and an experimental phase","yes","NAP_GER_AA_4blocks_noglides.osexp","/Users/aviadalbert/Documents/Academisch/UoC/Dissertation/Experiment/OpenSesame/NAP-FC/NAP_GER_AA_4blocks_noglides","yes","no","sans","no","20","no","black","no","Weiter","yes","768","legacy","25","9","0","/Users/aviadalbert/Documents/Academisch/UoC/Dissertation/Experiment/OpenSesame/NAP-FC/NAP_GER_AA_4blocks_noglides/subject-22.csv","xpyriment","Jazzy James","3.1.9","yes","yes","59a800d99ad5a1025d81bb03","59a801616c613b0251691de0","no","no","0","j","f","space","NA","space","space","j","960","2913","22928","NA","32419","9502","960","2","legacy","1024","1","44100","-16","experiment","menal","4","2","0","0","0","Eng, Japanese","22","","even","6622932","6599449","NA","NA","6625846","6622928","NA","4722931","6622437","4722932","4722932","6524628","6557052","6704890","6703387","6705851","6570391","6566841","6599449","NA","6426061","6490754","6597790","6566623","6622932","6566844","NA","6704890","6704890","NA","NA","6703383","NAP perception","16","33682","26","yes","1024"
"62.962962963","yes","62.962962963","1313.74074074","1313.74074074","white","no","xpyriment","Ich habe die obigen Informationen gelesen und verstanden.","legacy","legacy","0","uniform","1","0","0","undefined","undefined","1","f","2","1","NA","0","1","0","0","0","0","0","0","0","0","36","36","36","0","0","0","NA","0","0","2","0","0","0","2","36","36","36","36","36","Thu Oct 26 11:09:08 2017","Forced-choice identification task with a practice and an experimental phase","yes","NAP_GER_AA_4blocks_noglides.osexp","/Users/aviadalbert/Documents/Academisch/UoC/Dissertation/Experiment/OpenSesame/NAP-FC/NAP_GER_AA_4blocks_noglides","yes","no","sans","no","20","no","black","no","Weiter","yes","768","legacy","26","9","0","/Users/aviadalbert/Documents/Academisch/UoC/Dissertation/Experiment/OpenSesame/NAP-FC/NAP_GER_AA_4blocks_noglides/subject-22.csv","xpyriment","Jazzy James","3.1.9","yes","yes","59a800d99ad5a1025d81bb03","59a801616c613b0251691de0","no","no","0","f","f","space","NA","space","space","f","1789","2913","22928","NA","32419","9502","1789","2","legacy","1024","1","44100","-16","experiment","nval","4","2","0","0","0","Eng, Japanese","22","","even","6622932","6599449","NA","NA","6625846","6622928","NA","4722931","6622437","4722932","4722932","6524628","6557052","6707652","6706148","6709443","6570391","6566841","6599449","NA","6426061","6490754","6597790","6566623","6622932","6566844","NA","6707652","6707652","NA","NA","6706144","NAP perception","17","35471","27","yes","1024"
"64.2857142857","yes","64.2857142857","1306.71428571","1306.71428571","white","no","xpyriment","Ich habe die obigen Informationen gelesen und verstanden.","legacy","legacy","0","uniform","1","0","0","undefined","undefined","1","j","2","1","NA","0","1","0","0","0","0","0","0","0","0","37","37","37","0","0","0","NA","0","0","2","0","0","0","2","37","37","37","37","37","Thu Oct 26 11:09:08 2017","Forced-choice identification task with a practice and an experimental phase","yes","NAP_GER_AA_4blocks_noglides.osexp","/Users/aviadalbert/Documents/Academisch/UoC/Dissertation/Experiment/OpenSesame/NAP-FC/NAP_GER_AA_4blocks_noglides","yes","no","sans","no","20","no","black","no","Weiter","yes","768","legacy","27","9","0","/Users/aviadalbert/Documents/Academisch/UoC/Dissertation/Experiment/OpenSesame/NAP-FC/NAP_GER_AA_4blocks_noglides/subject-22.csv","xpyriment","Jazzy James","3.1.9","yes","yes","59a800d99ad5a1025d81bb03","59a801616c613b0251691de0","no","no","0","j","f","space","NA","space","space","j","1117","2913","22928","NA","32419","9502","1117","2","legacy","1024","1","44100","-16","experiment","ezmal","4","2","0","0","0","Eng, Japanese","22","","even","6622932","6599449","NA","NA","6625846","6622928","NA","4722931","6622437","4722932","4722932","6524628","6557052","6711229","6709726","6712347","6570391","6566841","6599449","NA","6426061","6490754","6597790","6566623","6622932","6566844","NA","6711229","6711229","NA","NA","6709722","NAP perception","18","36588","28","yes","1024"
"65.5172413793","yes","65.5172413793","1294.27586207","1294.27586207","white","no","xpyriment","Ich habe die obigen Informationen gelesen und verstanden.","legacy","legacy","0","uniform","1","0","0","undefined","undefined","1","f","2","1","NA","0","1","0","0","0","0","0","0","0","0","38","38","38","0","0","0","NA","0","0","2","0","0","0","2","38","38","38","38","38","Thu Oct 26 11:09:08 2017","Forced-choice identification task with a practice and an experimental phase","yes","NAP_GER_AA_4blocks_noglides.osexp","/Users/aviadalbert/Documents/Academisch/UoC/Dissertation/Experiment/OpenSesame/NAP-FC/NAP_GER_AA_4blocks_noglides","yes","no","sans","no","20","no","black","no","Weiter","yes","768","legacy","28","9","0","/Users/aviadalbert/Documents/Academisch/UoC/Dissertation/Experiment/OpenSesame/NAP-FC/NAP_GER_AA_4blocks_noglides/subject-22.csv","xpyriment","Jazzy James","3.1.9","yes","yes","59a800d99ad5a1025d81bb03","59a801616c613b0251691de0","no","no","0","f","f","space","NA","space","space","f","946","2913","22928","NA","32419","9502","946","2","legacy","1024","1","44100","-16","experiment","fnal","4","2","0","0","0","Eng, Japanese","22","","even","6622932","6599449","NA","NA","6625846","6622928","NA","4722931","6622437","4722932","4722932","6524628","6557052","6714119","6712615","6715066","6570391","6566841","6599449","NA","6426061","6490754","6597790","6566623","6622932","6566844","NA","6714119","6714119","NA","NA","6712612","NAP perception","19","37534","29","yes","1024"
"63.3333333333","yes","63.3333333333","1282.1","1282.1","white","no","xpyriment","Ich habe die obigen Informationen gelesen und verstanden.","legacy","legacy","0","uniform","0","0","0","undefined","undefined","0","f","2","1","NA","0","1","0","0","0","0","0","0","0","0","39","39","39","0","0","0","NA","0","0","2","0","0","0","2","39","39","39","39","39","Thu Oct 26 11:09:08 2017","Forced-choice identification task with a practice and an experimental phase","yes","NAP_GER_AA_4blocks_noglides.osexp","/Users/aviadalbert/Documents/Academisch/UoC/Dissertation/Experiment/OpenSesame/NAP-FC/NAP_GER_AA_4blocks_noglides","yes","no","sans","no","20","no","black","no","Weiter","yes","768","legacy","29","9","0","/Users/aviadalbert/Documents/Academisch/UoC/Dissertation/Experiment/OpenSesame/NAP-FC/NAP_GER_AA_4blocks_noglides/subject-22.csv","xpyriment","Jazzy James","3.1.9","yes","yes","59a800d99ad5a1025d81bb03","59a801616c613b0251691de0","no","no","0","j","f","space","NA","space","space","j","929","2913","22928","NA","32419","9502","929","2","legacy","1024","1","44100","-16","experiment","mtal","4","2","0","0","0","Eng, Japanese","22","","even","6622932","6599449","NA","NA","6625846","6622928","NA","4722931","6622437","4722932","4722932","6524628","6557052","6716866","6715361","6717796","6570391","6566841","6599449","NA","6426061","6490754","6597790","6566623","6622932","6566844","NA","6716866","6716866","NA","NA","6715357","NAP perception","19","38463","30","yes","1024"
"64.5161290323","yes","64.5161290323","1269.58064516","1269.58064516","white","no","xpyriment","Ich habe die obigen Informationen gelesen und verstanden.","legacy","legacy","0","uniform","1","0","0","undefined","undefined","1","j","2","1","NA","0","1","0","0","0","0","0","0","0","0","40","40","40","0","0","0","NA","0","0","2","0","0","0","2","40","40","40","40","40","Thu Oct 26 11:09:08 2017","Forced-choice identification task with a practice and an experimental phase","yes","NAP_GER_AA_4blocks_noglides.osexp","/Users/aviadalbert/Documents/Academisch/UoC/Dissertation/Experiment/OpenSesame/NAP-FC/NAP_GER_AA_4blocks_noglides","yes","no","sans","no","20","no","black","no","Weiter","yes","768","legacy","30","9","0","/Users/aviadalbert/Documents/Academisch/UoC/Dissertation/Experiment/OpenSesame/NAP-FC/NAP_GER_AA_4blocks_noglides/subject-22.csv","xpyriment","Jazzy James","3.1.9","yes","yes","59a800d99ad5a1025d81bb03","59a801616c613b0251691de0","no","no","0","j","f","space","NA","space","space","j","894","2913","22928","NA","32419","9502","894","2","legacy","1024","1","44100","-16","experiment","evnal","4","2","0","0","0","Eng, Japanese","22","","even","6622932","6599449","NA","NA","6625846","6622928","NA","4722931","6622437","4722932","4722932","6524628","6557052","6719596","6718090","6720491","6570391","6566841","6599449","NA","6426061","6490754","6597790","6566623","6622932","6566844","NA","6719595","6719595","NA","NA","6718086","NAP perception","20","39357","31","yes","1024"
"65.625","yes","65.625","1273.15625","1273.15625","white","no","xpyriment","Ich habe die obigen Informationen gelesen und verstanden.","legacy","legacy","0","uniform","1","0","0","undefined","undefined","1","j","2","1","NA","0","1","0","0","0","0","0","0","0","0","41","41","41","0","0","0","NA","0","0","2","0","0","0","2","41","41","41","41","41","Thu Oct 26 11:09:08 2017","Forced-choice identification task with a practice and an experimental phase","yes","NAP_GER_AA_4blocks_noglides.osexp","/Users/aviadalbert/Documents/Academisch/UoC/Dissertation/Experiment/OpenSesame/NAP-FC/NAP_GER_AA_4blocks_noglides","yes","no","sans","no","20","no","black","no","Weiter","yes","768","legacy","31","9","0","/Users/aviadalbert/Documents/Academisch/UoC/Dissertation/Experiment/OpenSesame/NAP-FC/NAP_GER_AA_4blocks_noglides/subject-22.csv","xpyriment","Jazzy James","3.1.9","yes","yes","59a800d99ad5a1025d81bb03","59a801616c613b0251691de0","no","no","0","j","f","space","NA","space","space","j","1384","2913","22928","NA","32419","9502","1384","2","legacy","1024","1","44100","-16","experiment","enfal","4","2","0","0","0","Eng, Japanese","22","","even","6622932","6599449","NA","NA","6625846","6622928","NA","4722931","6622437","4722932","4722932","6524628","6557052","6722271","6720767","6723656","6570391","6566841","6599449","NA","6426061","6490754","6597790","6566623","6622932","6566844","NA","6722271","6722271","NA","NA","6720763","NAP perception","21","40741","32","yes","1024"
"66.6666666667","yes","66.6666666667","1261.06060606","1261.06060606","white","no","xpyriment","Ich habe die obigen Informationen gelesen und verstanden.","legacy","legacy","0","uniform","1","0","0","undefined","undefined","1","j","2","1","NA","0","1","0","0","0","0","0","0","0","0","42","42","42","0","0","0","NA","0","0","2","0","0","0","2","42","42","42","42","42","Thu Oct 26 11:09:08 2017","Forced-choice identification task with a practice and an experimental phase","yes","NAP_GER_AA_4blocks_noglides.osexp","/Users/aviadalbert/Documents/Academisch/UoC/Dissertation/Experiment/OpenSesame/NAP-FC/NAP_GER_AA_4blocks_noglides","yes","no","sans","no","20","no","black","no","Weiter","yes","768","legacy","32","9","0","/Users/aviadalbert/Documents/Academisch/UoC/Dissertation/Experiment/OpenSesame/NAP-FC/NAP_GER_AA_4blocks_noglides/subject-22.csv","xpyriment","Jazzy James","3.1.9","yes","yes","59a800d99ad5a1025d81bb03","59a801616c613b0251691de0","no","no","0","j","f","space","NA","space","space","j","874","2913","22928","NA","32419","9502","874","2","legacy","1024","1","44100","-16","experiment","sepal","4","2","0","0","0","Eng, Japanese","22","","even","6622932","6599449","NA","NA","6625846","6622928","NA","4722931","6622437","4722932","4722932","6524628","6557052","6725439","6723936","6726315","6570391","6566841","6599449","NA","6426061","6490754","6597790","6566623","6622932","6566844","NA","6725439","6725439","NA","NA","6723932","NAP perception","22","41615","33","yes","1024"
"67.6470588235","yes","67.6470588235","1244.47058824","1244.47058824","white","no","xpyriment","Ich habe die obigen Informationen gelesen und verstanden.","legacy","legacy","0","uniform","1","0","0","undefined","undefined","1","j","2","1","NA","0","1","0","0","0","0","0","0","0","0","43","43","43","0","0","0","NA","0","0","2","0","0","0","2","43","43","43","43","43","Thu Oct 26 11:09:08 2017","Forced-choice identification task with a practice and an experimental phase","yes","NAP_GER_AA_4blocks_noglides.osexp","/Users/aviadalbert/Documents/Academisch/UoC/Dissertation/Experiment/OpenSesame/NAP-FC/NAP_GER_AA_4blocks_noglides","yes","no","sans","no","20","no","black","no","Weiter","yes","768","legacy","33","9","0","/Users/aviadalbert/Documents/Academisch/UoC/Dissertation/Experiment/OpenSesame/NAP-FC/NAP_GER_AA_4blocks_noglides/subject-22.csv","xpyriment","Jazzy James","3.1.9","yes","yes","59a800d99ad5a1025d81bb03","59a801616c613b0251691de0","no","no","0","j","f","space","NA","space","space","j","697","2913","22928","NA","32419","9502","697","2","legacy","1024","1","44100","-16","experiment","mezal","4","2","0","0","0","Eng, Japanese","22","","even","6622932","6599449","NA","NA","6625846","6622928","NA","4722931","6622437","4722932","4722932","6524628","6557052","6728096","6726592","6728795","6570391","6566841","6599449","NA","6426061","6490754","6597790","6566623","6622932","6566844","NA","6728096","6728096","NA","NA","6726589","NAP perception","23","42312","34","yes","1024"
"68.5714285714","yes","68.5714285714","1230.97142857","1230.97142857","white","no","xpyriment","Ich habe die obigen Informationen gelesen und verstanden.","legacy","legacy","0","uniform","1","0","0","undefined","undefined","1","j","2","1","NA","0","1","0","0","0","0","0","0","0","0","44","44","44","0","0","0","NA","0","0","2","0","0","0","2","44","44","44","44","44","Thu Oct 26 11:09:08 2017","Forced-choice identification task with a practice and an experimental phase","yes","NAP_GER_AA_4blocks_noglides.osexp","/Users/aviadalbert/Documents/Academisch/UoC/Dissertation/Experiment/OpenSesame/NAP-FC/NAP_GER_AA_4blocks_noglides","yes","no","sans","no","20","no","black","no","Weiter","yes","768","legacy","34","9","0","/Users/aviadalbert/Documents/Academisch/UoC/Dissertation/Experiment/OpenSesame/NAP-FC/NAP_GER_AA_4blocks_noglides/subject-22.csv","xpyriment","Jazzy James","3.1.9","yes","yes","59a800d99ad5a1025d81bb03","59a801616c613b0251691de0","no","no","0","j","f","space","NA","space","space","j","772","2913","22928","NA","32419","9502","772","2","legacy","1024","1","44100","-16","experiment","lefal","4","2","0","0","0","Eng, Japanese","22","","even","6622932","6599449","NA","NA","6625846","6622928","NA","4722931","6622437","4722932","4722932","6524628","6557052","6730573","6729069","6731346","6570391","6566841","6599449","NA","6426061","6490754","6597790","6566623","6622932","6566844","NA","6730572","6730573","NA","NA","6729065","NAP perception","24","43084","35","yes","1024"
"69.4444444444","yes","69.4444444444","1229.33333333","1229.33333333","white","no","xpyriment","Ich habe die obigen Informationen gelesen und verstanden.","legacy","legacy","0","uniform","1","0","0","undefined","undefined","1","j","2","1","NA","0","1","0","0","0","0","0","0","0","0","45","45","45","0","0","0","NA","0","0","2","0","0","0","2","45","45","45","45","45","Thu Oct 26 11:09:08 2017","Forced-choice identification task with a practice and an experimental phase","yes","NAP_GER_AA_4blocks_noglides.osexp","/Users/aviadalbert/Documents/Academisch/UoC/Dissertation/Experiment/OpenSesame/NAP-FC/NAP_GER_AA_4blocks_noglides","yes","no","sans","no","20","no","black","no","Weiter","yes","768","legacy","35","9","0","/Users/aviadalbert/Documents/Academisch/UoC/Dissertation/Experiment/OpenSesame/NAP-FC/NAP_GER_AA_4blocks_noglides/subject-22.csv","xpyriment","Jazzy James","3.1.9","yes","yes","59a800d99ad5a1025d81bb03","59a801616c613b0251691de0","no","no","0","j","f","space","NA","space","space","j","1172","2913","22928","NA","32419","9502","1172","2","legacy","1024","1","44100","-16","experiment","evlal","4","2","0","0","0","Eng, Japanese","22","","even","6622932","6599449","NA","NA","6625846","6622928","NA","4722931","6622437","4722932","4722932","6524628","6557052","6733122","6731619","6734295","6570391","6566841","6599449","NA","6426061","6490754","6597790","6566623","6622932","6566844","NA","6733122","6733122","NA","NA","6731615","NAP perception","25","44256","36","yes","1024"
"70.2702702703","yes","70.2702702703","1252.02702703","1252.02702703","white","no","xpyriment","Ich habe die obigen Informationen gelesen und verstanden.","legacy","legacy","0","uniform","1","0","0","undefined","undefined","1","f","2","1","NA","0","1","0","0","0","0","0","0","0","0","46","46","46","0","0","0","NA","0","0","2","0","0","0","2","46","46","46","46","46","Thu Oct 26 11:09:08 2017","Forced-choice identification task with a practice and an experimental phase","yes","NAP_GER_AA_4blocks_noglides.osexp","/Users/aviadalbert/Documents/Academisch/UoC/Dissertation/Experiment/OpenSesame/NAP-FC/NAP_GER_AA_4blocks_noglides","yes","no","sans","no","20","no","black","no","Weiter","yes","768","legacy","36","9","0","/Users/aviadalbert/Documents/Academisch/UoC/Dissertation/Experiment/OpenSesame/NAP-FC/NAP_GER_AA_4blocks_noglides/subject-22.csv","xpyriment","Jazzy James","3.1.9","yes","yes","59a800d99ad5a1025d81bb03","59a801616c613b0251691de0","no","no","0","f","f","space","NA","space","space","f","2069","2913","22928","NA","32419","9502","2069","2","legacy","1024","1","44100","-16","experiment","ʃfal","4","2","0","0","0","Eng, Japanese","22","","even","6622932","6599449","NA","NA","6625846","6622928","NA","4722931","6622437","4722932","4722932","6524628","6557052","6736076","6734573","6738146","6570391","6566841","6599449","NA","6426061","6490754","6597790","6566623","6622932","6566844","NA","6736076","6736076","NA","NA","6734569","NAP perception","26","46325","37","yes","1024"
"71.0526315789","yes","71.0526315789","1242.55263158","1242.55263158","white","no","xpyriment","Ich habe die obigen Informationen gelesen und verstanden.","legacy","legacy","0","uniform","1","0","0","undefined","undefined","1","j","2","1","NA","0","1","0","0","0","0","0","0","0","0","47","47","47","0","0","0","NA","0","0","2","0","0","0","2","47","47","47","47","47","Thu Oct 26 11:09:08 2017","Forced-choice identification task with a practice and an experimental phase","yes","NAP_GER_AA_4blocks_noglides.osexp","/Users/aviadalbert/Documents/Academisch/UoC/Dissertation/Experiment/OpenSesame/NAP-FC/NAP_GER_AA_4blocks_noglides","yes","no","sans","no","20","no","black","no","Weiter","yes","768","legacy","37","9","0","/Users/aviadalbert/Documents/Academisch/UoC/Dissertation/Experiment/OpenSesame/NAP-FC/NAP_GER_AA_4blocks_noglides/subject-22.csv","xpyriment","Jazzy James","3.1.9","yes","yes","59a800d99ad5a1025d81bb03","59a801616c613b0251691de0","no","no","0","j","f","space","NA","space","space","j","892","2913","22928","NA","32419","9502","892","2","legacy","1024","1","44100","-16","experiment","nefal","4","2","0","0","0","Eng, Japanese","22","","even","6622932","6599449","NA","NA","6625846","6622928","NA","4722931","6622437","4722932","4722932","6524628","6557052","6739924","6738417","6740817","6570391","6566841","6599449","NA","6426061","6490754","6597790","6566623","6622932","6566844","NA","6739924","6739924","NA","NA","6738413","NAP perception","27","47217","38","yes","1024"
"71.7948717949","yes","71.7948717949","1241.94871795","1241.94871795","white","no","xpyriment","Ich habe die obigen Informationen gelesen und verstanden.","legacy","legacy","0","uniform","1","0","0","undefined","undefined","1","f","2","1","NA","0","1","0","0","0","0","0","0","0","0","48","48","48","0","0","0","NA","0","0","2","0","0","0","2","48","48","48","48","48","Thu Oct 26 11:09:08 2017","Forced-choice identification task with a practice and an experimental phase","yes","NAP_GER_AA_4blocks_noglides.osexp","/Users/aviadalbert/Documents/Academisch/UoC/Dissertation/Experiment/OpenSesame/NAP-FC/NAP_GER_AA_4blocks_noglides","yes","no","sans","no","20","no","black","no","Weiter","yes","768","legacy","38","9","0","/Users/aviadalbert/Documents/Academisch/UoC/Dissertation/Experiment/OpenSesame/NAP-FC/NAP_GER_AA_4blocks_noglides/subject-22.csv","xpyriment","Jazzy James","3.1.9","yes","yes","59a800d99ad5a1025d81bb03","59a801616c613b0251691de0","no","no","0","f","f","space","NA","space","space","f","1219","2913","22928","NA","32419","9502","1219","2","legacy","1024","1","44100","-16","experiment","lfal","4","2","0","0","0","Eng, Japanese","22","","even","6622932","6599449","NA","NA","6625846","6622928","NA","4722931","6622437","4722932","4722932","6524628","6557052","6742617","6741109","6743838","6570391","6566841","6599449","NA","6426061","6490754","6597790","6566623","6622932","6566844","NA","6742617","6742617","NA","NA","6741105","NAP perception","28","48436","39","yes","1024"
"72.5","yes","72.5","1232.925","1232.925","white","no","xpyriment","Ich habe die obigen Informationen gelesen und verstanden.","legacy","legacy","0","uniform","1","0","0","undefined","undefined","1","j","2","1","NA","0","1","0","0","0","0","0","0","0","0","49","49","49","0","0","0","NA","0","0","2","0","0","0","2","49","49","49","49","49","Thu Oct 26 11:09:08 2017","Forced-choice identification task with a practice and an experimental phase","yes","NAP_GER_AA_4blocks_noglides.osexp","/Users/aviadalbert/Documents/Academisch/UoC/Dissertation/Experiment/OpenSesame/NAP-FC/NAP_GER_AA_4blocks_noglides","yes","no","sans","no","20","no","black","no","Weiter","yes","768","legacy","39","9","0","/Users/aviadalbert/Documents/Academisch/UoC/Dissertation/Experiment/OpenSesame/NAP-FC/NAP_GER_AA_4blocks_noglides/subject-22.csv","xpyriment","Jazzy James","3.1.9","yes","yes","59a800d99ad5a1025d81bb03","59a801616c613b0251691de0","no","no","0","j","f","space","NA","space","space","j","881","2913","22928","NA","32419","9502","881","2","legacy","1024","1","44100","-16","experiment","fesal","4","2","0","0","0","Eng, Japanese","22","","even","6622932","6599449","NA","NA","6625846","6622928","NA","4722931","6622437","4722932","4722932","6524628","6557052","6745625","6744122","6746508","6570391","6566841","6599449","NA","6426061","6490754","6597790","6566623","6622932","6566844","NA","6745625","6745625","NA","NA","6744118","NAP perception","29","49317","40","yes","1024"
"73.1707317073","yes","73.1707317073","1227.80487805","1227.80487805","white","no","xpyriment","Ich habe die obigen Informationen gelesen und verstanden.","legacy","legacy","0","uniform","1","0","0","undefined","undefined","1","j","2","1","NA","0","1","0","0","0","0","0","0","0","0","50","50","50","0","0","0","NA","0","0","2","0","0","0","2","50","50","50","50","50","Thu Oct 26 11:09:08 2017","Forced-choice identification task with a practice and an experimental phase","yes","NAP_GER_AA_4blocks_noglides.osexp","/Users/aviadalbert/Documents/Academisch/UoC/Dissertation/Experiment/OpenSesame/NAP-FC/NAP_GER_AA_4blocks_noglides","yes","no","sans","no","20","no","black","no","Weiter","yes","768","legacy","40","9","0","/Users/aviadalbert/Documents/Academisch/UoC/Dissertation/Experiment/OpenSesame/NAP-FC/NAP_GER_AA_4blocks_noglides/subject-22.csv","xpyriment","Jazzy James","3.1.9","yes","yes","59a800d99ad5a1025d81bb03","59a801616c613b0251691de0","no","no","0","j","f","space","NA","space","space","j","1023","2913","22928","NA","32419","9502","1023","2","legacy","1024","1","44100","-16","experiment","espal","4","2","0","0","0","Eng, Japanese","22","","even","6622932","6599449","NA","NA","6625846","6622928","NA","4722931","6622437","4722932","4722932","6524628","6557052","6748289","6746786","6749314","6570391","6566841","6599449","NA","6426061","6490754","6597790","6566623","6622932","6566844","NA","6748289","6748289","NA","NA","6746782","NAP perception","30","50340","41","yes","1024"
"73.8095238095","yes","73.8095238095","1218.64285714","1218.64285714","white","no","xpyriment","Ich habe die obigen Informationen gelesen und verstanden.","legacy","legacy","0","uniform","1","0","0","undefined","undefined","1","j","2","1","NA","0","1","0","0","0","0","0","0","0","0","51","51","51","0","0","0","NA","0","0","2","0","0","0","2","51","51","51","51","51","Thu Oct 26 11:09:08 2017","Forced-choice identification task with a practice and an experimental phase","yes","NAP_GER_AA_4blocks_noglides.osexp","/Users/aviadalbert/Documents/Academisch/UoC/Dissertation/Experiment/OpenSesame/NAP-FC/NAP_GER_AA_4blocks_noglides","yes","no","sans","no","20","no","black","no","Weiter","yes","768","legacy","41","9","0","/Users/aviadalbert/Documents/Academisch/UoC/Dissertation/Experiment/OpenSesame/NAP-FC/NAP_GER_AA_4blocks_noglides/subject-22.csv","xpyriment","Jazzy James","3.1.9","yes","yes","59a800d99ad5a1025d81bb03","59a801616c613b0251691de0","no","no","0","j","f","space","NA","space","space","j","843","2913","22928","NA","32419","9502","843","2","legacy","1024","1","44100","-16","experiment","zeval","4","2","0","0","0","Eng, Japanese","22","","even","6622932","6599449","NA","NA","6625846","6622928","NA","4722931","6622437","4722932","4722932","6524628","6557052","6751097","6749594","6751942","6570391","6566841","6599449","NA","6426061","6490754","6597790","6566623","6622932","6566844","NA","6751097","6751097","NA","NA","6749590","NAP perception","31","51183","42","yes","1024"
"74.4186046512","yes","74.4186046512","1210.37209302","1210.37209302","white","no","xpyriment","Ich habe die obigen Informationen gelesen und verstanden.","legacy","legacy","0","uniform","1","0","0","undefined","undefined","1","j","2","1","NA","0","1","0","0","0","0","0","0","0","0","52","52","52","0","0","0","NA","0","0","2","0","0","0","2","52","52","52","52","52","Thu Oct 26 11:09:08 2017","Forced-choice identification task with a practice and an experimental phase","yes","NAP_GER_AA_4blocks_noglides.osexp","/Users/aviadalbert/Documents/Academisch/UoC/Dissertation/Experiment/OpenSesame/NAP-FC/NAP_GER_AA_4blocks_noglides","yes","no","sans","no","20","no","black","no","Weiter","yes","768","legacy","42","9","0","/Users/aviadalbert/Documents/Academisch/UoC/Dissertation/Experiment/OpenSesame/NAP-FC/NAP_GER_AA_4blocks_noglides/subject-22.csv","xpyriment","Jazzy James","3.1.9","yes","yes","59a800d99ad5a1025d81bb03","59a801616c613b0251691de0","no","no","0","j","f","space","NA","space","space","j","863","2913","22928","NA","32419","9502","863","2","legacy","1024","1","44100","-16","experiment","esfal","4","2","0","0","0","Eng, Japanese","22","","even","6622932","6599449","NA","NA","6625846","6622928","NA","4722931","6622437","4722932","4722932","6524628","6557052","6753734","6752228","6754599","6570391","6566841","6599449","NA","6426061","6490754","6597790","6566623","6622932","6566844","NA","6753734","6753734","NA","NA","6752224","NAP perception","32","52046","43","yes","1024"
"75","yes","75","1202.65909091","1202.65909091","white","no","xpyriment","Ich habe die obigen Informationen gelesen und verstanden.","legacy","legacy","0","uniform","1","0","0","undefined","undefined","1","j","2","1","NA","0","1","0","0","0","0","0","0","0","0","53","53","53","0","0","0","NA","0","0","2","0","0","0","2","53","53","53","53","53","Thu Oct 26 11:09:08 2017","Forced-choice identification task with a practice and an experimental phase","yes","NAP_GER_AA_4blocks_noglides.osexp","/Users/aviadalbert/Documents/Academisch/UoC/Dissertation/Experiment/OpenSesame/NAP-FC/NAP_GER_AA_4blocks_noglides","yes","no","sans","no","20","no","black","no","Weiter","yes","768","legacy","43","9","0","/Users/aviadalbert/Documents/Academisch/UoC/Dissertation/Experiment/OpenSesame/NAP-FC/NAP_GER_AA_4blocks_noglides/subject-22.csv","xpyriment","Jazzy James","3.1.9","yes","yes","59a800d99ad5a1025d81bb03","59a801616c613b0251691de0","no","no","0","j","f","space","NA","space","space","j","871","2913","22928","NA","32419","9502","871","2","legacy","1024","1","44100","-16","experiment","vezal","4","2","0","0","0","Eng, Japanese","22","","even","6622932","6599449","NA","NA","6625846","6622928","NA","4722931","6622437","4722932","4722932","6524628","6557052","6756383","6754879","6757256","6570391","6566841","6599449","NA","6426061","6490754","6597790","6566623","6622932","6566844","NA","6756383","6756383","NA","NA","6754876","NAP perception","33","52917","44","yes","1024"
"75.5555555556","yes","75.5555555556","1194.91111111","1194.91111111","white","no","xpyriment","Ich habe die obigen Informationen gelesen und verstanden.","legacy","legacy","0","uniform","1","0","0","undefined","undefined","1","j","2","1","NA","0","1","0","0","0","0","0","0","0","0","54","54","54","0","0","0","NA","0","0","2","0","0","0","2","54","54","54","54","54","Thu Oct 26 11:09:08 2017","Forced-choice identification task with a practice and an experimental phase","yes","NAP_GER_AA_4blocks_noglides.osexp","/Users/aviadalbert/Documents/Academisch/UoC/Dissertation/Experiment/OpenSesame/NAP-FC/NAP_GER_AA_4blocks_noglides","yes","no","sans","no","20","no","black","no","Weiter","yes","768","legacy","44","9","0","/Users/aviadalbert/Documents/Academisch/UoC/Dissertation/Experiment/OpenSesame/NAP-FC/NAP_GER_AA_4blocks_noglides/subject-22.csv","xpyriment","Jazzy James","3.1.9","yes","yes","59a800d99ad5a1025d81bb03","59a801616c613b0251691de0","no","no","0","j","f","space","NA","space","space","j","854","2913","22928","NA","32419","9502","854","2","legacy","1024","1","44100","-16","experiment","enpal","4","2","0","0","0","Eng, Japanese","22","","even","6622932","6599449","NA","NA","6625846","6622928","NA","4722931","6622437","4722932","4722932","6524628","6557052","6759040","6757536","6759896","6570391","6566841","6599449","NA","6426061","6490754","6597790","6566623","6622932","6566844","NA","6759040","6759040","NA","NA","6757532","NAP perception","34","53771","45","yes","1024"
"76.0869565217","yes","76.0869565217","1188.54347826","1188.54347826","white","no","xpyriment","Ich habe die obigen Informationen gelesen und verstanden.","legacy","legacy","0","uniform","1","0","0","undefined","undefined","1","f","2","1","NA","0","1","0","0","0","0","0","0","0","0","55","55","55","0","0","0","NA","0","0","2","0","0","0","2","55","55","55","55","55","Thu Oct 26 11:09:08 2017","Forced-choice identification task with a practice and an experimental phase","yes","NAP_GER_AA_4blocks_noglides.osexp","/Users/aviadalbert/Documents/Academisch/UoC/Dissertation/Experiment/OpenSesame/NAP-FC/NAP_GER_AA_4blocks_noglides","yes","no","sans","no","20","no","black","no","Weiter","yes","768","legacy","45","9","0","/Users/aviadalbert/Documents/Academisch/UoC/Dissertation/Experiment/OpenSesame/NAP-FC/NAP_GER_AA_4blocks_noglides/subject-22.csv","xpyriment","Jazzy James","3.1.9","yes","yes","59a800d99ad5a1025d81bb03","59a801616c613b0251691de0","no","no","0","f","f","space","NA","space","space","f","902","2913","22928","NA","32419","9502","902","2","legacy","1024","1","44100","-16","experiment","ftal","4","2","0","0","0","Eng, Japanese","22","","even","6622932","6599449","NA","NA","6625846","6622928","NA","4722931","6622437","4722932","4722932","6524628","6557052","6761682","6760176","6762586","6570391","6566841","6599449","NA","6426061","6490754","6597790","6566623","6622932","6566844","NA","6761682","6761682","NA","NA","6760172","NAP perception","35","54673","46","yes","1024"
"76.5957446809","yes","76.5957446809","1187.08510638","1187.08510638","white","no","xpyriment","Ich habe die obigen Informationen gelesen und verstanden.","legacy","legacy","0","uniform","1","0","0","undefined","undefined","1","f","2","1","NA","0","1","0","0","0","0","0","0","0","0","56","56","56","0","0","0","NA","0","0","2","0","0","0","2","56","56","56","56","56","Thu Oct 26 11:09:08 2017","Forced-choice identification task with a practice and an experimental phase","yes","NAP_GER_AA_4blocks_noglides.osexp","/Users/aviadalbert/Documents/Academisch/UoC/Dissertation/Experiment/OpenSesame/NAP-FC/NAP_GER_AA_4blocks_noglides","yes","no","sans","no","20","no","black","no","Weiter","yes","768","legacy","46","9","0","/Users/aviadalbert/Documents/Academisch/UoC/Dissertation/Experiment/OpenSesame/NAP-FC/NAP_GER_AA_4blocks_noglides/subject-22.csv","xpyriment","Jazzy James","3.1.9","yes","yes","59a800d99ad5a1025d81bb03","59a801616c613b0251691de0","no","no","0","f","f","space","NA","space","space","f","1120","2913","22928","NA","32419","9502","1120","2","legacy","1024","1","44100","-16","experiment","zmal","4","2","0","0","0","Eng, Japanese","22","","even","6622932","6599449","NA","NA","6625846","6622928","NA","4722931","6622437","4722932","4722932","6524628","6557052","6764363","6762859","6765485","6570391","6566841","6599449","NA","6426061","6490754","6597790","6566623","6622932","6566844","NA","6764363","6764363","NA","NA","6762855","NAP perception","36","55793","47","yes","1024"
"77.0833333333","yes","77.0833333333","1177.72916667","1177.72916667","white","no","xpyriment","Ich habe die obigen Informationen gelesen und verstanden.","legacy","legacy","0","uniform","1","0","0","undefined","undefined","1","j","2","1","NA","0","1","0","0","0","0","0","0","0","0","57","57","57","0","0","0","NA","0","0","2","0","0","0","2","57","57","57","57","57","Thu Oct 26 11:09:08 2017","Forced-choice identification task with a practice and an experimental phase","yes","NAP_GER_AA_4blocks_noglides.osexp","/Users/aviadalbert/Documents/Academisch/UoC/Dissertation/Experiment/OpenSesame/NAP-FC/NAP_GER_AA_4blocks_noglides","yes","no","sans","no","20","no","black","no","Weiter","yes","768","legacy","47","9","0","/Users/aviadalbert/Documents/Academisch/UoC/Dissertation/Experiment/OpenSesame/NAP-FC/NAP_GER_AA_4blocks_noglides/subject-22.csv","xpyriment","Jazzy James","3.1.9","yes","yes","59a800d99ad5a1025d81bb03","59a801616c613b0251691de0","no","no","0","j","f","space","NA","space","space","j","738","2913","22928","NA","32419","9502","738","2","legacy","1024","1","44100","-16","experiment","elmal","4","2","0","0","0","Eng, Japanese","22","","even","6622932","6599449","NA","NA","6625846","6622928","NA","4722931","6622437","4722932","4722932","6524628","6557052","6767279","6765776","6768019","6570391","6566841","6599449","NA","6426061","6490754","6597790","6566623","6622932","6566844","NA","6767279","6767279","NA","NA","6765772","NAP perception","37","56531","48","yes","1024"
"77.5510204082","yes","77.5510204082","1173.91836735","1173.91836735","white","no","xpyriment","Ich habe die obigen Informationen gelesen und verstanden.","legacy","legacy","0","uniform","1","0","0","undefined","undefined","1","f","2","1","NA","0","1","0","0","0","0","0","0","0","0","58","58","58","0","0","0","NA","0","0","2","0","0","0","2","58","58","58","58","58","Thu Oct 26 11:09:08 2017","Forced-choice identification task with a practice and an experimental phase","yes","NAP_GER_AA_4blocks_noglides.osexp","/Users/aviadalbert/Documents/Academisch/UoC/Dissertation/Experiment/OpenSesame/NAP-FC/NAP_GER_AA_4blocks_noglides","yes","no","sans","no","20","no","black","no","Weiter","yes","768","legacy","48","9","0","/Users/aviadalbert/Documents/Academisch/UoC/Dissertation/Experiment/OpenSesame/NAP-FC/NAP_GER_AA_4blocks_noglides/subject-22.csv","xpyriment","Jazzy James","3.1.9","yes","yes","59a800d99ad5a1025d81bb03","59a801616c613b0251691de0","no","no","0","f","f","space","NA","space","space","f","991","2913","22928","NA","32419","9502","991","2","legacy","1024","1","44100","-16","experiment","flal","4","2","0","0","0","Eng, Japanese","22","","even","6622932","6599449","NA","NA","6625846","6622928","NA","4722931","6622437","4722932","4722932","6524628","6557052","6769804","6768296","6770796","6570391","6566841","6599449","NA","6426061","6490754","6597790","6566623","6622932","6566844","NA","6769803","6769803","NA","NA","6768292","NAP perception","38","57522","49","yes","1024"
"78","yes","78","1165.68","1165.68","white","no","xpyriment","Ich habe die obigen Informationen gelesen und verstanden.","legacy","legacy","0","uniform","1","0","0","undefined","undefined","1","j","2","1","NA","0","1","0","0","0","0","0","0","0","0","59","59","59","0","0","0","NA","0","0","2","0","0","0","2","59","59","59","59","59","Thu Oct 26 11:09:08 2017","Forced-choice identification task with a practice and an experimental phase","yes","NAP_GER_AA_4blocks_noglides.osexp","/Users/aviadalbert/Documents/Academisch/UoC/Dissertation/Experiment/OpenSesame/NAP-FC/NAP_GER_AA_4blocks_noglides","yes","no","sans","no","20","no","black","no","Weiter","yes","768","legacy","49","9","0","/Users/aviadalbert/Documents/Academisch/UoC/Dissertation/Experiment/OpenSesame/NAP-FC/NAP_GER_AA_4blocks_noglides/subject-22.csv","xpyriment","Jazzy James","3.1.9","yes","yes","59a800d99ad5a1025d81bb03","59a801616c613b0251691de0","no","no","0","j","f","space","NA","space","space","j","762","2913","22928","NA","32419","9502","762","2","legacy","1024","1","44100","-16","experiment","elkal","4","2","0","0","0","Eng, Japanese","22","","even","6622932","6599449","NA","NA","6625846","6622928","NA","4722931","6622437","4722932","4722932","6524628","6557052","6772585","6771080","6773349","6570391","6566841","6599449","NA","6426061","6490754","6597790","6566623","6622932","6566844","NA","6772585","6772585","NA","NA","6771076","NAP perception","39","58284","50","yes","1024"
"78.431372549","yes","78.431372549","1156.82352941","1156.82352941","white","no","xpyriment","Ich habe die obigen Informationen gelesen und verstanden.","legacy","legacy","0","uniform","1","0","0","undefined","undefined","1","f","2","1","NA","0","1","0","0","0","0","0","0","0","0","60","60","60","0","0","0","NA","0","0","2","0","0","0","2","60","60","60","60","60","Thu Oct 26 11:09:08 2017","Forced-choice identification task with a practice and an experimental phase","yes","NAP_GER_AA_4blocks_noglides.osexp","/Users/aviadalbert/Documents/Academisch/UoC/Dissertation/Experiment/OpenSesame/NAP-FC/NAP_GER_AA_4blocks_noglides","yes","no","sans","no","20","no","black","no","Weiter","yes","768","legacy","50","9","0","/Users/aviadalbert/Documents/Academisch/UoC/Dissertation/Experiment/OpenSesame/NAP-FC/NAP_GER_AA_4blocks_noglides/subject-22.csv","xpyriment","Jazzy James","3.1.9","yes","yes","59a800d99ad5a1025d81bb03","59a801616c613b0251691de0","no","no","0","f","f","space","NA","space","space","f","714","2913","22928","NA","32419","9502","714","2","legacy","1024","1","44100","-16","experiment","smal","4","2","0","0","0","Eng, Japanese","22","","even","6622932","6599449","NA","NA","6625846","6622928","NA","4722931","6622437","4722932","4722932","6524628","6557052","6775133","6773630","6775848","6570391","6566841","6599449","NA","6426061","6490754","6597790","6566623","6622932","6566844","NA","6775133","6775133","NA","NA","6773626","NAP perception","40","58998","51","yes","1024"
"76.9230769231","yes","76.9230769231","1171.57692308","1171.57692308","white","no","xpyriment","Ich habe die obigen Informationen gelesen und verstanden.","legacy","legacy","0","uniform","0","0","0","undefined","undefined","0","f","2","1","NA","0","1","0","0","0","0","0","0","0","0","61","61","61","0","0","0","NA","0","0","2","0","0","0","2","61","61","61","61","61","Thu Oct 26 11:09:08 2017","Forced-choice identification task with a practice and an experimental phase","yes","NAP_GER_AA_4blocks_noglides.osexp","/Users/aviadalbert/Documents/Academisch/UoC/Dissertation/Experiment/OpenSesame/NAP-FC/NAP_GER_AA_4blocks_noglides","yes","no","sans","no","20","no","black","no","Weiter","yes","768","legacy","51","9","0","/Users/aviadalbert/Documents/Academisch/UoC/Dissertation/Experiment/OpenSesame/NAP-FC/NAP_GER_AA_4blocks_noglides/subject-22.csv","xpyriment","Jazzy James","3.1.9","yes","yes","59a800d99ad5a1025d81bb03","59a801616c613b0251691de0","no","no","0","j","f","space","NA","space","space","j","1924","2913","22928","NA","32419","9502","1924","2","legacy","1024","1","44100","-16","experiment","lkal","4","2","0","0","0","Eng, Japanese","22","","even","6622932","6599449","NA","NA","6625846","6622928","NA","4722931","6622437","4722932","4722932","6524628","6557052","6777619","6776114","6779545","6570391","6566841","6599449","NA","6426061","6490754","6597790","6566623","6622932","6566844","NA","6777618","6777619","NA","NA","6776109","NAP perception","40","60922","52","yes","1024"
"77.358490566","yes","77.358490566","1165.73584906","1165.73584906","white","no","xpyriment","Ich habe die obigen Informationen gelesen und verstanden.","legacy","legacy","0","uniform","1","0","0","undefined","undefined","1","j","2","1","NA","0","1","0","0","0","0","0","0","0","0","62","62","62","0","0","0","NA","0","0","2","0","0","0","2","62","62","62","62","62","Thu Oct 26 11:09:08 2017","Forced-choice identification task with a practice and an experimental phase","yes","NAP_GER_AA_4blocks_noglides.osexp","/Users/aviadalbert/Documents/Academisch/UoC/Dissertation/Experiment/OpenSesame/NAP-FC/NAP_GER_AA_4blocks_noglides","yes","no","sans","no","20","no","black","no","Weiter","yes","768","legacy","52","9","0","/Users/aviadalbert/Documents/Academisch/UoC/Dissertation/Experiment/OpenSesame/NAP-FC/NAP_GER_AA_4blocks_noglides/subject-22.csv","xpyriment","Jazzy James","3.1.9","yes","yes","59a800d99ad5a1025d81bb03","59a801616c613b0251691de0","no","no","0","j","f","space","NA","space","space","j","862","2913","22928","NA","32419","9502","862","2","legacy","1024","1","44100","-16","experiment","mesal","4","2","0","0","0","Eng, Japanese","22","","even","6622932","6599449","NA","NA","6625846","6622928","NA","4722931","6622437","4722932","4722932","6524628","6557052","6781326","6779822","6782191","6570391","6566841","6599449","NA","6426061","6490754","6597790","6566623","6622932","6566844","NA","6781326","6781326","NA","NA","6779818","NAP perception","41","61784","53","yes","1024"
"77.7777777778","yes","77.7777777778","1159.27777778","1159.27777778","white","no","xpyriment","Ich habe die obigen Informationen gelesen und verstanden.","legacy","legacy","0","uniform","1","0","0","undefined","undefined","1","j","2","1","NA","0","1","0","0","0","0","0","0","0","0","63","63","63","0","0","0","NA","0","0","2","0","0","0","2","63","63","63","63","63","Thu Oct 26 11:09:08 2017","Forced-choice identification task with a practice and an experimental phase","yes","NAP_GER_AA_4blocks_noglides.osexp","/Users/aviadalbert/Documents/Academisch/UoC/Dissertation/Experiment/OpenSesame/NAP-FC/NAP_GER_AA_4blocks_noglides","yes","no","sans","no","20","no","black","no","Weiter","yes","768","legacy","53","9","0","/Users/aviadalbert/Documents/Academisch/UoC/Dissertation/Experiment/OpenSesame/NAP-FC/NAP_GER_AA_4blocks_noglides/subject-22.csv","xpyriment","Jazzy James","3.1.9","yes","yes","59a800d99ad5a1025d81bb03","59a801616c613b0251691de0","no","no","0","j","f","space","NA","space","space","j","817","2913","22928","NA","32419","9502","817","2","legacy","1024","1","44100","-16","experiment","ezval","4","2","0","0","0","Eng, Japanese","22","","even","6622932","6599449","NA","NA","6625846","6622928","NA","4722931","6622437","4722932","4722932","6524628","6557052","6783978","6782473","6784797","6570391","6566841","6599449","NA","6426061","6490754","6597790","6566623","6622932","6566844","NA","6783978","6783978","NA","NA","6782469","NAP perception","42","62601","54","yes","1024"
"76.3636363636","yes","76.3636363636","1176.30909091","1176.30909091","white","no","xpyriment","Ich habe die obigen Informationen gelesen und verstanden.","legacy","legacy","0","uniform","0","0","0","undefined","undefined","0","f","2","1","NA","0","1","0","0","0","0","0","0","0","0","64","64","64","0","0","0","NA","0","0","2","0","0","0","2","64","64","64","64","64","Thu Oct 26 11:09:08 2017","Forced-choice identification task with a practice and an experimental phase","yes","NAP_GER_AA_4blocks_noglides.osexp","/Users/aviadalbert/Documents/Academisch/UoC/Dissertation/Experiment/OpenSesame/NAP-FC/NAP_GER_AA_4blocks_noglides","yes","no","sans","no","20","no","black","no","Weiter","yes","768","legacy","54","9","0","/Users/aviadalbert/Documents/Academisch/UoC/Dissertation/Experiment/OpenSesame/NAP-FC/NAP_GER_AA_4blocks_noglides/subject-22.csv","xpyriment","Jazzy James","3.1.9","yes","yes","59a800d99ad5a1025d81bb03","59a801616c613b0251691de0","no","no","0","j","f","space","NA","space","space","j","2096","2913","22928","NA","32419","9502","2096","2","legacy","1024","1","44100","-16","experiment","msal","4","2","0","0","0","Eng, Japanese","22","","even","6622932","6599449","NA","NA","6625846","6622928","NA","4722931","6622437","4722932","4722932","6524628","6557052","6786574","6785070","6788672","6570391","6566841","6599449","NA","6426061","6490754","6597790","6566623","6622932","6566844","NA","6786574","6786574","NA","NA","6785067","NAP perception","42","64697","55","yes","1024"
