"acc","accept_status","accuracy","average_response_time","avg_rt","background","bidi","canvas_backend","checkbox_status","clock_backend","color_backend","compensation","coordinates","correct","correct_block_activation","correct_block_exit","correct_instructions_1","correct_instructions_2","correct_keyboard_response","correct_response","count_block_activation","count_block_exit","count_block_info_QA","count_cont_e_block_message","count_e_block_loop","count_e_block_sequence","count_end_of_experiment","count_experiment","count_experimental_loop","count_form_consent","count_info_forms","count_instructions_1","count_instructions_2","count_keyboard_response","count_listen_message","count_logger","count_p_block_loop","count_p_block_sequence","count_p_feedback","count_pause_feedback","count_personal_details_form_1","count_personal_details_form_2","count_post_loop_blank","count_practice_loop","count_pre_e_block_message","count_pre_p_block_message","count_reset_feedback","count_stimulus_image","count_stimulus_sound","count_timeout_message","count_timeout_sound","count_trial_sequence","datetime","description","disable_garbage_collection","experiment_file","experiment_path","expyriment_opengl","font_bold","font_family","font_italic","font_size","font_underline","foreground","form_clicks","form_response","fullscreen","height","keyboard_backend","live_row","live_row_p_block_loop","live_row_practice_loop","logfile","mouse_backend","opensesame_codename","opensesame_version","osf_always_upload_data","osf_always_upload_experiment","osf_datanode_id","osf_id","practice","pygame_doublebuf","repeat_cycle","response","response_block_activation","response_block_exit","response_block_info_QA","response_instructions_1","response_instructions_2","response_keyboard_response","response_time","response_time_block_activation","response_time_block_exit","response_time_block_info_QA","response_time_instructions_1","response_time_instructions_2","response_time_keyboard_response","round_decimals","sampler_backend","sound_buf_size","sound_channels","sound_freq","sound_sample_size","start","stimulus","subject_age","subject_education","subject_gender","subject_german_native","subject_handedness","subject_language_other","subject_nr","subject_other_native_lang","subject_parity","time_block_activation","time_block_exit","time_block_info_QA","time_cont_e_block_message","time_e_block_loop","time_e_block_sequence","time_end_of_experiment","time_experiment","time_experimental_loop","time_form_consent","time_info_forms","time_instructions_1","time_instructions_2","time_keyboard_response","time_listen_message","time_logger","time_p_block_loop","time_p_block_sequence","time_p_feedback","time_pause_feedback","time_personal_details_form_1","time_personal_details_form_2","time_post_loop_blank","time_practice_loop","time_pre_e_block_message","time_pre_p_block_message","time_reset_feedback","time_stimulus_image","time_stimulus_sound","time_timeout_message","time_timeout_sound","time_trial_sequence","title","total_correct","total_response_time","total_responses","uniform_coordinates","width"
"100","yes","100","1913","1913","white","no","xpyriment","Ich habe die obigen Informationen gelesen und verstanden.","legacy","legacy","0","uniform","1","0","NA","undefined","undefined","1","f","0","0","NA","NA","NA","NA","NA","0","0","0","0","0","0","0","0","0","0","0","NA","NA","0","0","0","0","NA","0","0","0","0","0","0","0","Wed Oct  4 13:56:50 2017","Forced-choice identification task with a practice and an experimental phase","yes","NAP_GER_AA_4blocks_noglides.osexp","/Users/aviadalbert/Documents/Academisch/UoC/Dissertation/Experiment/OpenSesame/NAP-FC/NAP_GER_AA_4blocks_noglides","yes","no","sans","no","20","no","black","no","Weiter","yes","768","legacy","0","0","0","/Users/aviadalbert/Documents/Academisch/UoC/Dissertation/Experiment/OpenSesame/NAP-FC/NAP_GER_AA_4blocks_noglides/subject-2.csv","xpyriment","Jazzy James","3.1.9","yes","yes","59a800d99ad5a1025d81bb03","59a801616c613b0251691de0","yes","no","0","f","f","NA","NA","space","space","f","1913","22971","NA","NA","16863","16551","1913","2","legacy","1024","1","44100","-16","experiment","flal","1","0","0","0","1","english","2","","even","2459748","NA","NA","NA","NA","NA","NA","1079161","NA","1079161","1079161","2426053","2442920","2484429","2482924","2486348","2482721","2459744","NA","NA","2377373","2412383","NA","2459531","NA","2459747","NA","2484429","2484429","NA","NA","2482921","NAP perception","1","1913","1","yes","1024"
"100","yes","100","1529.5","1529.5","white","no","xpyriment","Ich habe die obigen Informationen gelesen und verstanden.","legacy","legacy","0","uniform","1","0","NA","undefined","undefined","1","j","0","0","NA","NA","NA","NA","NA","0","0","0","0","0","0","1","1","1","0","0","NA","NA","0","0","0","0","NA","0","0","1","1","1","1","1","Wed Oct  4 13:56:50 2017","Forced-choice identification task with a practice and an experimental phase","yes","NAP_GER_AA_4blocks_noglides.osexp","/Users/aviadalbert/Documents/Academisch/UoC/Dissertation/Experiment/OpenSesame/NAP-FC/NAP_GER_AA_4blocks_noglides","yes","no","sans","no","20","no","black","no","Weiter","yes","768","legacy","1","1","0","/Users/aviadalbert/Documents/Academisch/UoC/Dissertation/Experiment/OpenSesame/NAP-FC/NAP_GER_AA_4blocks_noglides/subject-2.csv","xpyriment","Jazzy James","3.1.9","yes","yes","59a800d99ad5a1025d81bb03","59a801616c613b0251691de0","yes","no","0","j","f","NA","NA","space","space","j","1146","22971","NA","NA","16863","16551","1146","2","legacy","1024","1","44100","-16","experiment","lepal","1","0","0","0","1","english","2","","even","2459748","NA","NA","NA","NA","NA","NA","1079161","NA","1079161","1079161","2426053","2442920","2488296","2486789","2489443","2482721","2459744","NA","NA","2377373","2412383","NA","2459531","NA","2459747","NA","2488296","2488296","NA","NA","2486786","NAP perception","2","3059","2","yes","1024"
"100","yes","100","1387.66666667","1387.66666667","white","no","xpyriment","Ich habe die obigen Informationen gelesen und verstanden.","legacy","legacy","0","uniform","1","0","NA","undefined","undefined","1","j","0","0","NA","NA","NA","NA","NA","0","0","0","0","0","0","2","2","2","0","0","NA","NA","0","0","0","0","NA","0","0","2","2","2","2","2","Wed Oct  4 13:56:50 2017","Forced-choice identification task with a practice and an experimental phase","yes","NAP_GER_AA_4blocks_noglides.osexp","/Users/aviadalbert/Documents/Academisch/UoC/Dissertation/Experiment/OpenSesame/NAP-FC/NAP_GER_AA_4blocks_noglides","yes","no","sans","no","20","no","black","no","Weiter","yes","768","legacy","2","2","0","/Users/aviadalbert/Documents/Academisch/UoC/Dissertation/Experiment/OpenSesame/NAP-FC/NAP_GER_AA_4blocks_noglides/subject-2.csv","xpyriment","Jazzy James","3.1.9","yes","yes","59a800d99ad5a1025d81bb03","59a801616c613b0251691de0","yes","no","0","j","f","NA","NA","space","space","j","1104","22971","NA","NA","16863","16551","1104","2","legacy","1024","1","44100","-16","experiment","emtal","1","0","0","0","1","english","2","","even","2459748","NA","NA","NA","NA","NA","NA","1079161","NA","1079161","1079161","2426053","2442920","2491240","2489736","2492345","2482721","2459744","NA","NA","2377373","2412383","NA","2459531","NA","2459747","NA","2491240","2491240","NA","NA","2489732","NAP perception","3","4163","3","yes","1024"
"100","yes","100","1373.75","1373.75","white","no","xpyriment","Ich habe die obigen Informationen gelesen und verstanden.","legacy","legacy","0","uniform","1","0","NA","undefined","undefined","1","f","0","0","NA","NA","NA","NA","NA","0","0","0","0","0","0","3","3","3","0","0","NA","NA","0","0","0","0","NA","0","0","3","3","3","3","3","Wed Oct  4 13:56:50 2017","Forced-choice identification task with a practice and an experimental phase","yes","NAP_GER_AA_4blocks_noglides.osexp","/Users/aviadalbert/Documents/Academisch/UoC/Dissertation/Experiment/OpenSesame/NAP-FC/NAP_GER_AA_4blocks_noglides","yes","no","sans","no","20","no","black","no","Weiter","yes","768","legacy","3","3","0","/Users/aviadalbert/Documents/Academisch/UoC/Dissertation/Experiment/OpenSesame/NAP-FC/NAP_GER_AA_4blocks_noglides/subject-2.csv","xpyriment","Jazzy James","3.1.9","yes","yes","59a800d99ad5a1025d81bb03","59a801616c613b0251691de0","yes","no","0","f","f","NA","NA","space","space","f","1332","22971","NA","NA","16863","16551","1332","2","legacy","1024","1","44100","-16","experiment","ﾊパal","1","0","0","0","1","english","2","","even","2459748","NA","NA","NA","NA","NA","NA","1079161","NA","1079161","1079161","2426053","2442920","2494132","2492629","2495466","2482721","2459744","NA","NA","2377373","2412383","NA","2459531","NA","2459747","NA","2494132","2494132","NA","NA","2492626","NAP perception","4","5495","4","yes","1024"
"100","yes","100","1347","1347","white","no","xpyriment","Ich habe die obigen Informationen gelesen und verstanden.","legacy","legacy","0","uniform","1","0","NA","undefined","undefined","1","j","0","0","NA","NA","NA","NA","NA","0","0","0","0","0","0","4","4","4","0","0","NA","NA","0","0","0","0","NA","0","0","4","4","4","4","4","Wed Oct  4 13:56:50 2017","Forced-choice identification task with a practice and an experimental phase","yes","NAP_GER_AA_4blocks_noglides.osexp","/Users/aviadalbert/Documents/Academisch/UoC/Dissertation/Experiment/OpenSesame/NAP-FC/NAP_GER_AA_4blocks_noglides","yes","no","sans","no","20","no","black","no","Weiter","yes","768","legacy","4","4","0","/Users/aviadalbert/Documents/Academisch/UoC/Dissertation/Experiment/OpenSesame/NAP-FC/NAP_GER_AA_4blocks_noglides/subject-2.csv","xpyriment","Jazzy James","3.1.9","yes","yes","59a800d99ad5a1025d81bb03","59a801616c613b0251691de0","yes","no","0","j","f","NA","NA","space","space","j","1240","22971","NA","NA","16863","16551","1240","2","legacy","1024","1","44100","-16","experiment","nefal","1","0","0","0","1","english","2","","even","2459748","NA","NA","NA","NA","NA","NA","1079161","NA","1079161","1079161","2426053","2442920","2497322","2495816","2498563","2482721","2459744","NA","NA","2377373","2412383","NA","2459531","NA","2459747","NA","2497322","2497322","NA","NA","2495813","NAP perception","5","6735","5","yes","1024"
"100","yes","100","1256.5","1256.5","white","no","xpyriment","Ich habe die obigen Informationen gelesen und verstanden.","legacy","legacy","0","uniform","1","0","NA","undefined","undefined","1","f","0","0","NA","NA","NA","NA","NA","0","0","0","0","0","0","5","5","5","0","0","NA","NA","0","0","0","0","NA","0","0","5","5","5","5","5","Wed Oct  4 13:56:50 2017","Forced-choice identification task with a practice and an experimental phase","yes","NAP_GER_AA_4blocks_noglides.osexp","/Users/aviadalbert/Documents/Academisch/UoC/Dissertation/Experiment/OpenSesame/NAP-FC/NAP_GER_AA_4blocks_noglides","yes","no","sans","no","20","no","black","no","Weiter","yes","768","legacy","5","5","0","/Users/aviadalbert/Documents/Academisch/UoC/Dissertation/Experiment/OpenSesame/NAP-FC/NAP_GER_AA_4blocks_noglides/subject-2.csv","xpyriment","Jazzy James","3.1.9","yes","yes","59a800d99ad5a1025d81bb03","59a801616c613b0251691de0","yes","no","0","f","f","NA","NA","space","space","f","804","22971","NA","NA","16863","16551","804","2","legacy","1024","1","44100","-16","experiment","sfal","1","0","0","0","1","english","2","","even","2459748","NA","NA","NA","NA","NA","NA","1079161","NA","1079161","1079161","2426053","2442920","2500343","2498839","2501148","2482721","2459744","NA","NA","2377373","2412383","NA","2459531","NA","2459747","NA","2500343","2500343","NA","NA","2498835","NAP perception","6","7539","6","yes","1024"
"85.7142857143","yes","85.7142857143","1257.28571429","1257.28571429","white","no","xpyriment","Ich habe die obigen Informationen gelesen und verstanden.","legacy","legacy","0","uniform","0","0","NA","undefined","undefined","0","f","0","0","NA","NA","NA","NA","NA","0","0","0","0","0","0","6","6","6","0","0","NA","NA","0","0","0","0","NA","0","0","6","6","6","6","6","Wed Oct  4 13:56:50 2017","Forced-choice identification task with a practice and an experimental phase","yes","NAP_GER_AA_4blocks_noglides.osexp","/Users/aviadalbert/Documents/Academisch/UoC/Dissertation/Experiment/OpenSesame/NAP-FC/NAP_GER_AA_4blocks_noglides","yes","no","sans","no","20","no","black","no","Weiter","yes","768","legacy","6","6","0","/Users/aviadalbert/Documents/Academisch/UoC/Dissertation/Experiment/OpenSesame/NAP-FC/NAP_GER_AA_4blocks_noglides/subject-2.csv","xpyriment","Jazzy James","3.1.9","yes","yes","59a800d99ad5a1025d81bb03","59a801616c613b0251691de0","yes","no","0","j","f","NA","NA","space","space","j","1262","22971","NA","NA","16863","16551","1262","2","legacy","1024","1","44100","-16","experiment","zmal","1","0","0","0","1","english","2","","even","2459748","NA","NA","NA","NA","NA","NA","1079161","NA","1079161","1079161","2426053","2442920","2502920","2501415","2504183","2482721","2459744","NA","NA","2377373","2412383","NA","2459531","NA","2459747","NA","2502920","2502920","NA","NA","2501411","NAP perception","6","8801","7","yes","1024"
"75","yes","75","1244.375","1244.375","white","no","xpyriment","Ich habe die obigen Informationen gelesen und verstanden.","legacy","legacy","0","uniform","0","0","NA","undefined","undefined","0","j","0","0","NA","NA","NA","NA","NA","0","0","0","0","0","0","7","7","7","0","0","NA","NA","0","0","0","0","NA","0","0","7","7","7","7","7","Wed Oct  4 13:56:50 2017","Forced-choice identification task with a practice and an experimental phase","yes","NAP_GER_AA_4blocks_noglides.osexp","/Users/aviadalbert/Documents/Academisch/UoC/Dissertation/Experiment/OpenSesame/NAP-FC/NAP_GER_AA_4blocks_noglides","yes","no","sans","no","20","no","black","no","Weiter","yes","768","legacy","7","7","0","/Users/aviadalbert/Documents/Academisch/UoC/Dissertation/Experiment/OpenSesame/NAP-FC/NAP_GER_AA_4blocks_noglides/subject-2.csv","xpyriment","Jazzy James","3.1.9","yes","yes","59a800d99ad5a1025d81bb03","59a801616c613b0251691de0","yes","no","0","f","f","NA","NA","space","space","f","1154","22971","NA","NA","16863","16551","1154","2","legacy","1024","1","44100","-16","experiment","mesal","1","0","0","0","1","english","2","","even","2459748","NA","NA","NA","NA","NA","NA","1079161","NA","1079161","1079161","2426053","2442920","2505960","2504456","2507115","2482721","2459744","NA","NA","2377373","2412383","NA","2459531","NA","2459747","NA","2505960","2505960","NA","NA","2504452","NAP perception","6","9955","8","yes","1024"
"66.6666666667","yes","66.6666666667","1385.77777778","1385.77777778","white","no","xpyriment","Ich habe die obigen Informationen gelesen und verstanden.","legacy","legacy","0","uniform","0","0","NA","undefined","undefined","0","j","0","0","NA","NA","NA","NA","NA","0","0","0","0","0","0","8","8","8","0","0","NA","NA","0","0","0","0","NA","0","0","8","8","8","8","8","Wed Oct  4 13:56:50 2017","Forced-choice identification task with a practice and an experimental phase","yes","NAP_GER_AA_4blocks_noglides.osexp","/Users/aviadalbert/Documents/Academisch/UoC/Dissertation/Experiment/OpenSesame/NAP-FC/NAP_GER_AA_4blocks_noglides","yes","no","sans","no","20","no","black","no","Weiter","yes","768","legacy","8","8","0","/Users/aviadalbert/Documents/Academisch/UoC/Dissertation/Experiment/OpenSesame/NAP-FC/NAP_GER_AA_4blocks_noglides/subject-2.csv","xpyriment","Jazzy James","3.1.9","yes","yes","59a800d99ad5a1025d81bb03","59a801616c613b0251691de0","yes","no","0","f","f","NA","NA","space","space","f","2517","22971","NA","NA","16863","16551","2517","2","legacy","1024","1","44100","-16","experiment","enval","1","0","0","0","1","english","2","","even","2459748","NA","NA","NA","NA","NA","NA","1079161","NA","1079161","1079161","2426053","2442920","2508897","2507393","2511415","2482721","2459744","NA","NA","2377373","2412383","NA","2459531","NA","2459747","NA","2508897","2508897","NA","NA","2507389","NAP perception","6","12472","9","yes","1024"
"70","yes","70","1378.6","1378.6","white","no","xpyriment","Ich habe die obigen Informationen gelesen und verstanden.","legacy","legacy","0","uniform","1","0","NA","undefined","undefined","1","f","0","0","NA","NA","NA","NA","NA","0","0","0","0","0","0","9","9","9","0","0","NA","NA","0","0","0","0","NA","0","0","9","9","9","9","9","Wed Oct  4 13:56:50 2017","Forced-choice identification task with a practice and an experimental phase","yes","NAP_GER_AA_4blocks_noglides.osexp","/Users/aviadalbert/Documents/Academisch/UoC/Dissertation/Experiment/OpenSesame/NAP-FC/NAP_GER_AA_4blocks_noglides","yes","no","sans","no","20","no","black","no","Weiter","yes","768","legacy","9","9","0","/Users/aviadalbert/Documents/Academisch/UoC/Dissertation/Experiment/OpenSesame/NAP-FC/NAP_GER_AA_4blocks_noglides/subject-2.csv","xpyriment","Jazzy James","3.1.9","yes","yes","59a800d99ad5a1025d81bb03","59a801616c613b0251691de0","yes","no","0","f","f","NA","NA","space","space","f","1314","22971","NA","NA","16863","16551","1314","2","legacy","1024","1","44100","-16","experiment","vlal","1","0","0","0","1","english","2","","even","2459748","NA","NA","NA","NA","NA","NA","1079161","NA","1079161","1079161","2426053","2442920","2513184","2511681","2514500","2482721","2459744","NA","NA","2377373","2412383","NA","2459531","NA","2459747","NA","2513184","2513184","NA","NA","2511678","NAP perception","7","13786","10","yes","1024"
"100","yes","100","1107","1107","white","no","xpyriment","Ich habe die obigen Informationen gelesen und verstanden.","legacy","legacy","0","uniform","1","0","0","undefined","undefined","1","f","2","1","NA","0","1","0","0","0","0","0","0","0","0","10","10","10","0","0","0","NA","0","0","2","0","0","0","2","10","10","10","10","10","Wed Oct  4 13:56:50 2017","Forced-choice identification task with a practice and an experimental phase","yes","NAP_GER_AA_4blocks_noglides.osexp","/Users/aviadalbert/Documents/Academisch/UoC/Dissertation/Experiment/OpenSesame/NAP-FC/NAP_GER_AA_4blocks_noglides","yes","no","sans","no","20","no","black","no","Weiter","yes","768","legacy","0","9","0","/Users/aviadalbert/Documents/Academisch/UoC/Dissertation/Experiment/OpenSesame/NAP-FC/NAP_GER_AA_4blocks_noglides/subject-2.csv","xpyriment","Jazzy James","3.1.9","yes","yes","59a800d99ad5a1025d81bb03","59a801616c613b0251691de0","no","no","0","f","f","space","NA","space","space","f","1107","13885","16323","NA","16863","16551","1107","2","legacy","1024","1","44100","-16","experiment","vzal","1","0","0","0","1","english","2","","even","2533070","2516222","NA","NA","2546957","2533066","NA","1079161","2532601","1079161","1079161","2426053","2442920","2548668","2547164","2549776","2482721","2459744","2516222","NA","2377373","2412383","2514564","2459531","2533069","2459747","NA","2548668","2548668","NA","NA","2547161","NAP perception","1","1107","1","yes","1024"
"100","yes","100","1059","1059","white","no","xpyriment","Ich habe die obigen Informationen gelesen und verstanden.","legacy","legacy","0","uniform","1","0","0","undefined","undefined","1","f","2","1","NA","0","1","0","0","0","0","0","0","0","0","11","11","11","0","0","0","NA","0","0","2","0","0","0","2","11","11","11","11","11","Wed Oct  4 13:56:50 2017","Forced-choice identification task with a practice and an experimental phase","yes","NAP_GER_AA_4blocks_noglides.osexp","/Users/aviadalbert/Documents/Academisch/UoC/Dissertation/Experiment/OpenSesame/NAP-FC/NAP_GER_AA_4blocks_noglides","yes","no","sans","no","20","no","black","no","Weiter","yes","768","legacy","1","9","0","/Users/aviadalbert/Documents/Academisch/UoC/Dissertation/Experiment/OpenSesame/NAP-FC/NAP_GER_AA_4blocks_noglides/subject-2.csv","xpyriment","Jazzy James","3.1.9","yes","yes","59a800d99ad5a1025d81bb03","59a801616c613b0251691de0","no","no","0","f","f","space","NA","space","space","f","1011","13885","16323","NA","16863","16551","1011","2","legacy","1024","1","44100","-16","experiment","zmal","1","0","0","0","1","english","2","","even","2533070","2516222","NA","NA","2546957","2533066","NA","1079161","2532601","1079161","1079161","2426053","2442920","2551570","2550066","2552582","2482721","2459744","2516222","NA","2377373","2412383","2514564","2459531","2533069","2459747","NA","2551570","2551570","NA","NA","2550062","NAP perception","2","2118","2","yes","1024"
"100","yes","100","1166.66666667","1166.66666667","white","no","xpyriment","Ich habe die obigen Informationen gelesen und verstanden.","legacy","legacy","0","uniform","1","0","0","undefined","undefined","1","f","2","1","NA","0","1","0","0","0","0","0","0","0","0","12","12","12","0","0","0","NA","0","0","2","0","0","0","2","12","12","12","12","12","Wed Oct  4 13:56:50 2017","Forced-choice identification task with a practice and an experimental phase","yes","NAP_GER_AA_4blocks_noglides.osexp","/Users/aviadalbert/Documents/Academisch/UoC/Dissertation/Experiment/OpenSesame/NAP-FC/NAP_GER_AA_4blocks_noglides","yes","no","sans","no","20","no","black","no","Weiter","yes","768","legacy","2","9","0","/Users/aviadalbert/Documents/Academisch/UoC/Dissertation/Experiment/OpenSesame/NAP-FC/NAP_GER_AA_4blocks_noglides/subject-2.csv","xpyriment","Jazzy James","3.1.9","yes","yes","59a800d99ad5a1025d81bb03","59a801616c613b0251691de0","no","no","0","f","f","space","NA","space","space","f","1382","13885","16323","NA","16863","16551","1382","2","legacy","1024","1","44100","-16","experiment","smal","1","0","0","0","1","english","2","","even","2533070","2516222","NA","NA","2546957","2533066","NA","1079161","2532601","1079161","1079161","2426053","2442920","2554367","2552863","2555750","2482721","2459744","2516222","NA","2377373","2412383","2514564","2459531","2533069","2459747","NA","2554367","2554367","NA","NA","2552859","NAP perception","3","3500","3","yes","1024"
"75","yes","75","1069.75","1069.75","white","no","xpyriment","Ich habe die obigen Informationen gelesen und verstanden.","legacy","legacy","0","uniform","0","0","0","undefined","undefined","0","f","2","1","NA","0","1","0","0","0","0","0","0","0","0","13","13","13","0","0","0","NA","0","0","2","0","0","0","2","13","13","13","13","13","Wed Oct  4 13:56:50 2017","Forced-choice identification task with a practice and an experimental phase","yes","NAP_GER_AA_4blocks_noglides.osexp","/Users/aviadalbert/Documents/Academisch/UoC/Dissertation/Experiment/OpenSesame/NAP-FC/NAP_GER_AA_4blocks_noglides","yes","no","sans","no","20","no","black","no","Weiter","yes","768","legacy","3","9","0","/Users/aviadalbert/Documents/Academisch/UoC/Dissertation/Experiment/OpenSesame/NAP-FC/NAP_GER_AA_4blocks_noglides/subject-2.csv","xpyriment","Jazzy James","3.1.9","yes","yes","59a800d99ad5a1025d81bb03","59a801616c613b0251691de0","no","no","0","j","f","space","NA","space","space","j","779","13885","16323","NA","16863","16551","779","2","legacy","1024","1","44100","-16","experiment","npal","1","0","0","0","1","english","2","","even","2533070","2516222","NA","NA","2546957","2533066","NA","1079161","2532601","1079161","1079161","2426053","2442920","2557539","2556034","2558319","2482721","2459744","2516222","NA","2377373","2412383","2514564","2459531","2533069","2459747","NA","2557539","2557539","NA","NA","2556030","NAP perception","3","4279","4","yes","1024"
"60","yes","60","1112","1112","white","no","xpyriment","Ich habe die obigen Informationen gelesen und verstanden.","legacy","legacy","0","uniform","0","0","0","undefined","undefined","0","f","2","1","NA","0","1","0","0","0","0","0","0","0","0","14","14","14","0","0","0","NA","0","0","2","0","0","0","2","14","14","14","14","14","Wed Oct  4 13:56:50 2017","Forced-choice identification task with a practice and an experimental phase","yes","NAP_GER_AA_4blocks_noglides.osexp","/Users/aviadalbert/Documents/Academisch/UoC/Dissertation/Experiment/OpenSesame/NAP-FC/NAP_GER_AA_4blocks_noglides","yes","no","sans","no","20","no","black","no","Weiter","yes","768","legacy","4","9","0","/Users/aviadalbert/Documents/Academisch/UoC/Dissertation/Experiment/OpenSesame/NAP-FC/NAP_GER_AA_4blocks_noglides/subject-2.csv","xpyriment","Jazzy James","3.1.9","yes","yes","59a800d99ad5a1025d81bb03","59a801616c613b0251691de0","no","no","0","j","f","space","NA","space","space","j","1281","13885","16323","NA","16863","16551","1281","2","legacy","1024","1","44100","-16","experiment","mtal","1","0","0","0","1","english","2","","even","2533070","2516222","NA","NA","2546957","2533066","NA","1079161","2532601","1079161","1079161","2426053","2442920","2560115","2558612","2561398","2482721","2459744","2516222","NA","2377373","2412383","2514564","2459531","2533069","2459747","NA","2560115","2560115","NA","NA","2558607","NAP perception","3","5560","5","yes","1024"
"50","yes","50","1426.66666667","1426.66666667","white","no","xpyriment","Ich habe die obigen Informationen gelesen und verstanden.","legacy","legacy","0","uniform","0","0","0","undefined","undefined","0","f","2","1","NA","0","1","0","0","0","0","0","0","0","0","15","15","15","0","0","0","NA","0","0","2","0","0","0","2","15","15","15","15","15","Wed Oct  4 13:56:50 2017","Forced-choice identification task with a practice and an experimental phase","yes","NAP_GER_AA_4blocks_noglides.osexp","/Users/aviadalbert/Documents/Academisch/UoC/Dissertation/Experiment/OpenSesame/NAP-FC/NAP_GER_AA_4blocks_noglides","yes","no","sans","no","20","no","black","no","Weiter","yes","768","legacy","5","9","0","/Users/aviadalbert/Documents/Academisch/UoC/Dissertation/Experiment/OpenSesame/NAP-FC/NAP_GER_AA_4blocks_noglides/subject-2.csv","xpyriment","Jazzy James","3.1.9","yes","yes","59a800d99ad5a1025d81bb03","59a801616c613b0251691de0","no","no","0","None","f","space","NA","space","space","None","3000","13885","16323","NA","16863","16551","3000","2","legacy","1024","1","44100","-16","experiment","spal","1","0","0","0","1","english","2","","even","2533070","2516222","NA","NA","2546957","2533066","NA","1079161","2532601","1079161","1079161","2426053","2442920","2563190","2561685","2567193","2482721","2459744","2516222","NA","2377373","2412383","2514564","2459531","2533069","2459747","NA","2563189","2563189","2566193","2566190","2561681","NAP perception","3","8560","6","yes","1024"
"42.8571428571","yes","42.8571428571","1378.14285714","1378.14285714","white","no","xpyriment","Ich habe die obigen Informationen gelesen und verstanden.","legacy","legacy","0","uniform","0","0","0","undefined","undefined","0","j","2","1","NA","0","1","0","0","0","0","0","0","0","0","16","16","16","0","0","0","NA","0","0","2","0","0","0","2","16","16","16","16","16","Wed Oct  4 13:56:50 2017","Forced-choice identification task with a practice and an experimental phase","yes","NAP_GER_AA_4blocks_noglides.osexp","/Users/aviadalbert/Documents/Academisch/UoC/Dissertation/Experiment/OpenSesame/NAP-FC/NAP_GER_AA_4blocks_noglides","yes","no","sans","no","20","no","black","no","Weiter","yes","768","legacy","6","9","0","/Users/aviadalbert/Documents/Academisch/UoC/Dissertation/Experiment/OpenSesame/NAP-FC/NAP_GER_AA_4blocks_noglides/subject-2.csv","xpyriment","Jazzy James","3.1.9","yes","yes","59a800d99ad5a1025d81bb03","59a801616c613b0251691de0","no","no","0","f","f","space","NA","space","space","f","1087","13885","16323","NA","16863","16551","1087","2","legacy","1024","1","44100","-16","experiment","enpal","1","0","0","0","1","english","2","","even","2533070","2516222","NA","NA","2546957","2533066","NA","1079161","2532601","1079161","1079161","2426053","2442920","2568961","2567457","2570050","2482721","2459744","2516222","NA","2377373","2412383","2514564","2459531","2533069","2459747","NA","2568961","2568961","2566193","2566190","2567453","NAP perception","3","9647","7","yes","1024"
"50","yes","50","1349.75","1349.75","white","no","xpyriment","Ich habe die obigen Informationen gelesen und verstanden.","legacy","legacy","0","uniform","1","0","0","undefined","undefined","1","f","2","1","NA","0","1","0","0","0","0","0","0","0","0","17","17","17","0","0","0","NA","0","0","2","0","0","0","2","17","17","17","17","17","Wed Oct  4 13:56:50 2017","Forced-choice identification task with a practice and an experimental phase","yes","NAP_GER_AA_4blocks_noglides.osexp","/Users/aviadalbert/Documents/Academisch/UoC/Dissertation/Experiment/OpenSesame/NAP-FC/NAP_GER_AA_4blocks_noglides","yes","no","sans","no","20","no","black","no","Weiter","yes","768","legacy","7","9","0","/Users/aviadalbert/Documents/Academisch/UoC/Dissertation/Experiment/OpenSesame/NAP-FC/NAP_GER_AA_4blocks_noglides/subject-2.csv","xpyriment","Jazzy James","3.1.9","yes","yes","59a800d99ad5a1025d81bb03","59a801616c613b0251691de0","no","no","0","f","f","space","NA","space","space","f","1151","13885","16323","NA","16863","16551","1151","2","legacy","1024","1","44100","-16","experiment","ﾊパal","1","0","0","0","1","english","2","","even","2533070","2516222","NA","NA","2546957","2533066","NA","1079161","2532601","1079161","1079161","2426053","2442920","2571829","2570325","2572981","2482721","2459744","2516222","NA","2377373","2412383","2514564","2459531","2533069","2459747","NA","2571829","2571829","2566193","2566190","2570322","NAP perception","4","10798","8","yes","1024"
"55.5555555556","yes","55.5555555556","1327.44444444","1327.44444444","white","no","xpyriment","Ich habe die obigen Informationen gelesen und verstanden.","legacy","legacy","0","uniform","1","0","0","undefined","undefined","1","j","2","1","NA","0","1","0","0","0","0","0","0","0","0","18","18","18","0","0","0","NA","0","0","2","0","0","0","2","18","18","18","18","18","Wed Oct  4 13:56:50 2017","Forced-choice identification task with a practice and an experimental phase","yes","NAP_GER_AA_4blocks_noglides.osexp","/Users/aviadalbert/Documents/Academisch/UoC/Dissertation/Experiment/OpenSesame/NAP-FC/NAP_GER_AA_4blocks_noglides","yes","no","sans","no","20","no","black","no","Weiter","yes","768","legacy","8","9","0","/Users/aviadalbert/Documents/Academisch/UoC/Dissertation/Experiment/OpenSesame/NAP-FC/NAP_GER_AA_4blocks_noglides/subject-2.csv","xpyriment","Jazzy James","3.1.9","yes","yes","59a800d99ad5a1025d81bb03","59a801616c613b0251691de0","no","no","0","j","f","space","NA","space","space","j","1149","13885","16323","NA","16863","16551","1149","2","legacy","1024","1","44100","-16","experiment","elkal","1","0","0","0","1","english","2","","even","2533070","2516222","NA","NA","2546957","2533066","NA","1079161","2532601","1079161","1079161","2426053","2442920","2574757","2573250","2575907","2482721","2459744","2516222","NA","2377373","2412383","2514564","2459531","2533069","2459747","NA","2574757","2574757","2566193","2566190","2573246","NAP perception","5","11947","9","yes","1024"
"50","yes","50","1314.3","1314.3","white","no","xpyriment","Ich habe die obigen Informationen gelesen und verstanden.","legacy","legacy","0","uniform","0","0","0","undefined","undefined","0","f","2","1","NA","0","1","0","0","0","0","0","0","0","0","19","19","19","0","0","0","NA","0","0","2","0","0","0","2","19","19","19","19","19","Wed Oct  4 13:56:50 2017","Forced-choice identification task with a practice and an experimental phase","yes","NAP_GER_AA_4blocks_noglides.osexp","/Users/aviadalbert/Documents/Academisch/UoC/Dissertation/Experiment/OpenSesame/NAP-FC/NAP_GER_AA_4blocks_noglides","yes","no","sans","no","20","no","black","no","Weiter","yes","768","legacy","9","9","0","/Users/aviadalbert/Documents/Academisch/UoC/Dissertation/Experiment/OpenSesame/NAP-FC/NAP_GER_AA_4blocks_noglides/subject-2.csv","xpyriment","Jazzy James","3.1.9","yes","yes","59a800d99ad5a1025d81bb03","59a801616c613b0251691de0","no","no","0","j","f","space","NA","space","space","j","1196","13885","16323","NA","16863","16551","1196","2","legacy","1024","1","44100","-16","experiment","vnal","1","0","0","0","1","english","2","","even","2533070","2516222","NA","NA","2546957","2533066","NA","1079161","2532601","1079161","1079161","2426053","2442920","2577677","2576171","2578875","2482721","2459744","2516222","NA","2377373","2412383","2514564","2459531","2533069","2459747","NA","2577676","2577677","2566193","2566190","2576167","NAP perception","5","13143","10","yes","1024"
"54.5454545455","yes","54.5454545455","1331.18181818","1331.18181818","white","no","xpyriment","Ich habe die obigen Informationen gelesen und verstanden.","legacy","legacy","0","uniform","1","0","0","undefined","undefined","1","j","2","1","NA","0","1","0","0","0","0","0","0","0","0","20","20","20","0","0","0","NA","0","0","2","0","0","0","2","20","20","20","20","20","Wed Oct  4 13:56:50 2017","Forced-choice identification task with a practice and an experimental phase","yes","NAP_GER_AA_4blocks_noglides.osexp","/Users/aviadalbert/Documents/Academisch/UoC/Dissertation/Experiment/OpenSesame/NAP-FC/NAP_GER_AA_4blocks_noglides","yes","no","sans","no","20","no","black","no","Weiter","yes","768","legacy","10","9","0","/Users/aviadalbert/Documents/Academisch/UoC/Dissertation/Experiment/OpenSesame/NAP-FC/NAP_GER_AA_4blocks_noglides/subject-2.csv","xpyriment","Jazzy James","3.1.9","yes","yes","59a800d99ad5a1025d81bb03","59a801616c613b0251691de0","no","no","0","j","f","space","NA","space","space","j","1500","13885","16323","NA","16863","16551","1500","2","legacy","1024","1","44100","-16","experiment","lemal","1","0","0","0","1","english","2","","even","2533070","2516222","NA","NA","2546957","2533066","NA","1079161","2532601","1079161","1079161","2426053","2442920","2580644","2579139","2582146","2482721","2459744","2516222","NA","2377373","2412383","2514564","2459531","2533069","2459747","NA","2580644","2580644","2566193","2566190","2579135","NAP perception","6","14643","11","yes","1024"
"58.3333333333","yes","58.3333333333","1413.91666667","1413.91666667","white","no","xpyriment","Ich habe die obigen Informationen gelesen und verstanden.","legacy","legacy","0","uniform","1","0","0","undefined","undefined","1","j","2","1","NA","0","1","0","0","0","0","0","0","0","0","21","21","21","0","0","0","NA","0","0","2","0","0","0","2","21","21","21","21","21","Wed Oct  4 13:56:50 2017","Forced-choice identification task with a practice and an experimental phase","yes","NAP_GER_AA_4blocks_noglides.osexp","/Users/aviadalbert/Documents/Academisch/UoC/Dissertation/Experiment/OpenSesame/NAP-FC/NAP_GER_AA_4blocks_noglides","yes","no","sans","no","20","no","black","no","Weiter","yes","768","legacy","11","9","0","/Users/aviadalbert/Documents/Academisch/UoC/Dissertation/Experiment/OpenSesame/NAP-FC/NAP_GER_AA_4blocks_noglides/subject-2.csv","xpyriment","Jazzy James","3.1.9","yes","yes","59a800d99ad5a1025d81bb03","59a801616c613b0251691de0","no","no","0","j","f","space","NA","space","space","j","2324","13885","16323","NA","16863","16551","2324","2","legacy","1024","1","44100","-16","experiment","evnal","1","0","0","0","1","english","2","","even","2533070","2516222","NA","NA","2546957","2533066","NA","1079161","2532601","1079161","1079161","2426053","2442920","2583924","2582419","2586250","2482721","2459744","2516222","NA","2377373","2412383","2514564","2459531","2533069","2459747","NA","2583923","2583924","2566193","2566190","2582415","NAP perception","7","16967","12","yes","1024"
"53.8461538462","yes","53.8461538462","1439","1439","white","no","xpyriment","Ich habe die obigen Informationen gelesen und verstanden.","legacy","legacy","0","uniform","0","0","0","undefined","undefined","0","j","2","1","NA","0","1","0","0","0","0","0","0","0","0","22","22","22","0","0","0","NA","0","0","2","0","0","0","2","22","22","22","22","22","Wed Oct  4 13:56:50 2017","Forced-choice identification task with a practice and an experimental phase","yes","NAP_GER_AA_4blocks_noglides.osexp","/Users/aviadalbert/Documents/Academisch/UoC/Dissertation/Experiment/OpenSesame/NAP-FC/NAP_GER_AA_4blocks_noglides","yes","no","sans","no","20","no","black","no","Weiter","yes","768","legacy","12","9","0","/Users/aviadalbert/Documents/Academisch/UoC/Dissertation/Experiment/OpenSesame/NAP-FC/NAP_GER_AA_4blocks_noglides/subject-2.csv","xpyriment","Jazzy James","3.1.9","yes","yes","59a800d99ad5a1025d81bb03","59a801616c613b0251691de0","no","no","0","f","f","space","NA","space","space","f","1740","13885","16323","NA","16863","16551","1740","2","legacy","1024","1","44100","-16","experiment","evzal","1","0","0","0","1","english","2","","even","2533070","2516222","NA","NA","2546957","2533066","NA","1079161","2532601","1079161","1079161","2426053","2442920","2588040","2586536","2589781","2482721","2459744","2516222","NA","2377373","2412383","2514564","2459531","2533069","2459747","NA","2588040","2588040","2566193","2566190","2586533","NAP perception","7","18707","13","yes","1024"
"57.1428571429","yes","57.1428571429","1421.42857143","1421.42857143","white","no","xpyriment","Ich habe die obigen Informationen gelesen und verstanden.","legacy","legacy","0","uniform","1","0","0","undefined","undefined","1","f","2","1","NA","0","1","0","0","0","0","0","0","0","0","23","23","23","0","0","0","NA","0","0","2","0","0","0","2","23","23","23","23","23","Wed Oct  4 13:56:50 2017","Forced-choice identification task with a practice and an experimental phase","yes","NAP_GER_AA_4blocks_noglides.osexp","/Users/aviadalbert/Documents/Academisch/UoC/Dissertation/Experiment/OpenSesame/NAP-FC/NAP_GER_AA_4blocks_noglides","yes","no","sans","no","20","no","black","no","Weiter","yes","768","legacy","13","9","0","/Users/aviadalbert/Documents/Academisch/UoC/Dissertation/Experiment/OpenSesame/NAP-FC/NAP_GER_AA_4blocks_noglides/subject-2.csv","xpyriment","Jazzy James","3.1.9","yes","yes","59a800d99ad5a1025d81bb03","59a801616c613b0251691de0","no","no","0","f","f","space","NA","space","space","f","1193","13885","16323","NA","16863","16551","1193","2","legacy","1024","1","44100","-16","experiment","spal","1","0","0","0","1","english","2","","even","2533070","2516222","NA","NA","2546957","2533066","NA","1079161","2532601","1079161","1079161","2426053","2442920","2591562","2590055","2592757","2482721","2459744","2516222","NA","2377373","2412383","2514564","2459531","2533069","2459747","NA","2591562","2591562","2566193","2566190","2590050","NAP perception","8","19900","14","yes","1024"
"53.3333333333","yes","53.3333333333","1469.66666667","1469.66666667","white","no","xpyriment","Ich habe die obigen Informationen gelesen und verstanden.","legacy","legacy","0","uniform","0","0","0","undefined","undefined","0","f","2","1","NA","0","1","0","0","0","0","0","0","0","0","24","24","24","0","0","0","NA","0","0","2","0","0","0","2","24","24","24","24","24","Wed Oct  4 13:56:50 2017","Forced-choice identification task with a practice and an experimental phase","yes","NAP_GER_AA_4blocks_noglides.osexp","/Users/aviadalbert/Documents/Academisch/UoC/Dissertation/Experiment/OpenSesame/NAP-FC/NAP_GER_AA_4blocks_noglides","yes","no","sans","no","20","no","black","no","Weiter","yes","768","legacy","14","9","0","/Users/aviadalbert/Documents/Academisch/UoC/Dissertation/Experiment/OpenSesame/NAP-FC/NAP_GER_AA_4blocks_noglides/subject-2.csv","xpyriment","Jazzy James","3.1.9","yes","yes","59a800d99ad5a1025d81bb03","59a801616c613b0251691de0","no","no","0","j","f","space","NA","space","space","j","2145","13885","16323","NA","16863","16551","2145","2","legacy","1024","1","44100","-16","experiment","lfal","1","0","0","0","1","english","2","","even","2533070","2516222","NA","NA","2546957","2533066","NA","1079161","2532601","1079161","1079161","2426053","2442920","2594531","2593026","2596678","2482721","2459744","2516222","NA","2377373","2412383","2514564","2459531","2533069","2459747","NA","2594530","2594530","2566193","2566190","2593022","NAP perception","8","22045","15","yes","1024"
"50","yes","50","1510.1875","1510.1875","white","no","xpyriment","Ich habe die obigen Informationen gelesen und verstanden.","legacy","legacy","0","uniform","0","0","0","undefined","undefined","0","j","2","1","NA","0","1","0","0","0","0","0","0","0","0","25","25","25","0","0","0","NA","0","0","2","0","0","0","2","25","25","25","25","25","Wed Oct  4 13:56:50 2017","Forced-choice identification task with a practice and an experimental phase","yes","NAP_GER_AA_4blocks_noglides.osexp","/Users/aviadalbert/Documents/Academisch/UoC/Dissertation/Experiment/OpenSesame/NAP-FC/NAP_GER_AA_4blocks_noglides","yes","no","sans","no","20","no","black","no","Weiter","yes","768","legacy","15","9","0","/Users/aviadalbert/Documents/Academisch/UoC/Dissertation/Experiment/OpenSesame/NAP-FC/NAP_GER_AA_4blocks_noglides/subject-2.csv","xpyriment","Jazzy James","3.1.9","yes","yes","59a800d99ad5a1025d81bb03","59a801616c613b0251691de0","no","no","0","f","f","space","NA","space","space","f","2118","13885","16323","NA","16863","16551","2118","2","legacy","1024","1","44100","-16","experiment","leval","1","0","0","0","1","english","2","","even","2533070","2516222","NA","NA","2546957","2533066","NA","1079161","2532601","1079161","1079161","2426053","2442920","2598450","2596946","2600569","2482721","2459744","2516222","NA","2377373","2412383","2514564","2459531","2533069","2459747","NA","2598450","2598450","2566193","2566190","2596942","NAP perception","8","24163","16","yes","1024"
"47.0588235294","yes","47.0588235294","1475.52941176","1475.52941176","white","no","xpyriment","Ich habe die obigen Informationen gelesen und verstanden.","legacy","legacy","0","uniform","0","0","0","undefined","undefined","0","f","2","1","NA","0","1","0","0","0","0","0","0","0","0","26","26","26","0","0","0","NA","0","0","2","0","0","0","2","26","26","26","26","26","Wed Oct  4 13:56:50 2017","Forced-choice identification task with a practice and an experimental phase","yes","NAP_GER_AA_4blocks_noglides.osexp","/Users/aviadalbert/Documents/Academisch/UoC/Dissertation/Experiment/OpenSesame/NAP-FC/NAP_GER_AA_4blocks_noglides","yes","no","sans","no","20","no","black","no","Weiter","yes","768","legacy","16","9","0","/Users/aviadalbert/Documents/Academisch/UoC/Dissertation/Experiment/OpenSesame/NAP-FC/NAP_GER_AA_4blocks_noglides/subject-2.csv","xpyriment","Jazzy James","3.1.9","yes","yes","59a800d99ad5a1025d81bb03","59a801616c613b0251691de0","no","no","0","j","f","space","NA","space","space","j","921","13885","16323","NA","16863","16551","921","2","legacy","1024","1","44100","-16","experiment","lpal","1","0","0","0","1","english","2","","even","2533070","2516222","NA","NA","2546957","2533066","NA","1079161","2532601","1079161","1079161","2426053","2442920","2602347","2600840","2603269","2482721","2459744","2516222","NA","2377373","2412383","2514564","2459531","2533069","2459747","NA","2602346","2602346","2566193","2566190","2600836","NAP perception","8","25084","17","yes","1024"
"50","yes","50","1470.38888889","1470.38888889","white","no","xpyriment","Ich habe die obigen Informationen gelesen und verstanden.","legacy","legacy","0","uniform","1","0","0","undefined","undefined","1","j","2","1","NA","0","1","0","0","0","0","0","0","0","0","27","27","27","0","0","0","NA","0","0","2","0","0","0","2","27","27","27","27","27","Wed Oct  4 13:56:50 2017","Forced-choice identification task with a practice and an experimental phase","yes","NAP_GER_AA_4blocks_noglides.osexp","/Users/aviadalbert/Documents/Academisch/UoC/Dissertation/Experiment/OpenSesame/NAP-FC/NAP_GER_AA_4blocks_noglides","yes","no","sans","no","20","no","black","no","Weiter","yes","768","legacy","17","9","0","/Users/aviadalbert/Documents/Academisch/UoC/Dissertation/Experiment/OpenSesame/NAP-FC/NAP_GER_AA_4blocks_noglides/subject-2.csv","xpyriment","Jazzy James","3.1.9","yes","yes","59a800d99ad5a1025d81bb03","59a801616c613b0251691de0","no","no","0","j","f","space","NA","space","space","j","1383","13885","16323","NA","16863","16551","1383","2","legacy","1024","1","44100","-16","experiment","ﾊテmal","1","0","0","0","1","english","2","","even","2533070","2516222","NA","NA","2546957","2533066","NA","1079161","2532601","1079161","1079161","2426053","2442920","2605041","2603535","2606426","2482721","2459744","2516222","NA","2377373","2412383","2514564","2459531","2533069","2459747","NA","2605041","2605041","2566193","2566190","2603531","NAP perception","9","26467","18","yes","1024"
"47.3684210526","yes","47.3684210526","1500.31578947","1500.31578947","white","no","xpyriment","Ich habe die obigen Informationen gelesen und verstanden.","legacy","legacy","0","uniform","0","0","0","undefined","undefined","0","f","2","1","NA","0","1","0","0","0","0","0","0","0","0","28","28","28","0","0","0","NA","0","0","2","0","0","0","2","28","28","28","28","28","Wed Oct  4 13:56:50 2017","Forced-choice identification task with a practice and an experimental phase","yes","NAP_GER_AA_4blocks_noglides.osexp","/Users/aviadalbert/Documents/Academisch/UoC/Dissertation/Experiment/OpenSesame/NAP-FC/NAP_GER_AA_4blocks_noglides","yes","no","sans","no","20","no","black","no","Weiter","yes","768","legacy","18","9","0","/Users/aviadalbert/Documents/Academisch/UoC/Dissertation/Experiment/OpenSesame/NAP-FC/NAP_GER_AA_4blocks_noglides/subject-2.csv","xpyriment","Jazzy James","3.1.9","yes","yes","59a800d99ad5a1025d81bb03","59a801616c613b0251691de0","no","no","0","j","f","space","NA","space","space","j","2039","13885","16323","NA","16863","16551","2039","2","legacy","1024","1","44100","-16","experiment","ﾊパal","1","0","0","0","1","english","2","","even","2533070","2516222","NA","NA","2546957","2533066","NA","1079161","2532601","1079161","1079161","2426053","2442920","2608208","2606704","2610248","2482721","2459744","2516222","NA","2377373","2412383","2514564","2459531","2533069","2459747","NA","2608208","2608208","2566193","2566190","2606700","NAP perception","9","28506","19","yes","1024"
"45","yes","45","1468.65","1468.65","white","no","xpyriment","Ich habe die obigen Informationen gelesen und verstanden.","legacy","legacy","0","uniform","0","0","0","undefined","undefined","0","j","2","1","NA","0","1","0","0","0","0","0","0","0","0","29","29","29","0","0","0","NA","0","0","2","0","0","0","2","29","29","29","29","29","Wed Oct  4 13:56:50 2017","Forced-choice identification task with a practice and an experimental phase","yes","NAP_GER_AA_4blocks_noglides.osexp","/Users/aviadalbert/Documents/Academisch/UoC/Dissertation/Experiment/OpenSesame/NAP-FC/NAP_GER_AA_4blocks_noglides","yes","no","sans","no","20","no","black","no","Weiter","yes","768","legacy","19","9","0","/Users/aviadalbert/Documents/Academisch/UoC/Dissertation/Experiment/OpenSesame/NAP-FC/NAP_GER_AA_4blocks_noglides/subject-2.csv","xpyriment","Jazzy James","3.1.9","yes","yes","59a800d99ad5a1025d81bb03","59a801616c613b0251691de0","no","no","0","f","f","space","NA","space","space","f","867","13885","16323","NA","16863","16551","867","2","legacy","1024","1","44100","-16","experiment","emzal","1","0","0","0","1","english","2","","even","2533070","2516222","NA","NA","2546957","2533066","NA","1079161","2532601","1079161","1079161","2426053","2442920","2612031","2610525","2612899","2482721","2459744","2516222","NA","2377373","2412383","2514564","2459531","2533069","2459747","NA","2612030","2612030","2566193","2566190","2610521","NAP perception","9","29373","20","yes","1024"
"42.8571428571","yes","42.8571428571","1456.33333333","1456.33333333","white","no","xpyriment","Ich habe die obigen Informationen gelesen und verstanden.","legacy","legacy","0","uniform","0","0","0","undefined","undefined","0","f","2","1","NA","0","1","0","0","0","0","0","0","0","0","30","30","30","0","0","0","NA","0","0","2","0","0","0","2","30","30","30","30","30","Wed Oct  4 13:56:50 2017","Forced-choice identification task with a practice and an experimental phase","yes","NAP_GER_AA_4blocks_noglides.osexp","/Users/aviadalbert/Documents/Academisch/UoC/Dissertation/Experiment/OpenSesame/NAP-FC/NAP_GER_AA_4blocks_noglides","yes","no","sans","no","20","no","black","no","Weiter","yes","768","legacy","20","9","0","/Users/aviadalbert/Documents/Academisch/UoC/Dissertation/Experiment/OpenSesame/NAP-FC/NAP_GER_AA_4blocks_noglides/subject-2.csv","xpyriment","Jazzy James","3.1.9","yes","yes","59a800d99ad5a1025d81bb03","59a801616c613b0251691de0","no","no","0","j","f","space","NA","space","space","j","1210","13885","16323","NA","16863","16551","1210","2","legacy","1024","1","44100","-16","experiment","msal","1","0","0","0","1","english","2","","even","2533070","2516222","NA","NA","2546957","2533066","NA","1079161","2532601","1079161","1079161","2426053","2442920","2614684","2613181","2615895","2482721","2459744","2516222","NA","2377373","2412383","2514564","2459531","2533069","2459747","NA","2614684","2614684","2566193","2566190","2613177","NAP perception","9","30583","21","yes","1024"
"45.4545454545","yes","45.4545454545","1464.13636364","1464.13636364","white","no","xpyriment","Ich habe die obigen Informationen gelesen und verstanden.","legacy","legacy","0","uniform","1","0","0","undefined","undefined","1","f","2","1","NA","0","1","0","0","0","0","0","0","0","0","31","31","31","0","0","0","NA","0","0","2","0","0","0","2","31","31","31","31","31","Wed Oct  4 13:56:50 2017","Forced-choice identification task with a practice and an experimental phase","yes","NAP_GER_AA_4blocks_noglides.osexp","/Users/aviadalbert/Documents/Academisch/UoC/Dissertation/Experiment/OpenSesame/NAP-FC/NAP_GER_AA_4blocks_noglides","yes","no","sans","no","20","no","black","no","Weiter","yes","768","legacy","21","9","0","/Users/aviadalbert/Documents/Academisch/UoC/Dissertation/Experiment/OpenSesame/NAP-FC/NAP_GER_AA_4blocks_noglides/subject-2.csv","xpyriment","Jazzy James","3.1.9","yes","yes","59a800d99ad5a1025d81bb03","59a801616c613b0251691de0","no","no","0","f","f","space","NA","space","space","f","1628","13885","16323","NA","16863","16551","1628","2","legacy","1024","1","44100","-16","experiment","ftal","1","0","0","0","1","english","2","","even","2533070","2516222","NA","NA","2546957","2533066","NA","1079161","2532601","1079161","1079161","2426053","2442920","2617674","2616168","2619304","2482721","2459744","2516222","NA","2377373","2412383","2514564","2459531","2533069","2459747","NA","2617674","2617674","2566193","2566190","2616164","NAP perception","10","32211","22","yes","1024"
"47.8260869565","yes","47.8260869565","1457.2173913","1457.2173913","white","no","xpyriment","Ich habe die obigen Informationen gelesen und verstanden.","legacy","legacy","0","uniform","1","0","0","undefined","undefined","1","j","2","1","NA","0","1","0","0","0","0","0","0","0","0","32","32","32","0","0","0","NA","0","0","2","0","0","0","2","32","32","32","32","32","Wed Oct  4 13:56:50 2017","Forced-choice identification task with a practice and an experimental phase","yes","NAP_GER_AA_4blocks_noglides.osexp","/Users/aviadalbert/Documents/Academisch/UoC/Dissertation/Experiment/OpenSesame/NAP-FC/NAP_GER_AA_4blocks_noglides","yes","no","sans","no","20","no","black","no","Weiter","yes","768","legacy","22","9","0","/Users/aviadalbert/Documents/Academisch/UoC/Dissertation/Experiment/OpenSesame/NAP-FC/NAP_GER_AA_4blocks_noglides/subject-2.csv","xpyriment","Jazzy James","3.1.9","yes","yes","59a800d99ad5a1025d81bb03","59a801616c613b0251691de0","no","no","0","j","f","space","NA","space","space","j","1305","13885","16323","NA","16863","16551","1305","2","legacy","1024","1","44100","-16","experiment","nemal","1","0","0","0","1","english","2","","even","2533070","2516222","NA","NA","2546957","2533066","NA","1079161","2532601","1079161","1079161","2426053","2442920","2621093","2619589","2622399","2482721","2459744","2516222","NA","2377373","2412383","2514564","2459531","2533069","2459747","NA","2621093","2621093","2566193","2566190","2619585","NAP perception","11","33516","23","yes","1024"
"45.8333333333","yes","45.8333333333","1487.91666667","1487.91666667","white","no","xpyriment","Ich habe die obigen Informationen gelesen und verstanden.","legacy","legacy","0","uniform","0","0","0","undefined","undefined","0","f","2","1","NA","0","1","0","0","0","0","0","0","0","0","33","33","33","0","0","0","NA","0","0","2","0","0","0","2","33","33","33","33","33","Wed Oct  4 13:56:50 2017","Forced-choice identification task with a practice and an experimental phase","yes","NAP_GER_AA_4blocks_noglides.osexp","/Users/aviadalbert/Documents/Academisch/UoC/Dissertation/Experiment/OpenSesame/NAP-FC/NAP_GER_AA_4blocks_noglides","yes","no","sans","no","20","no","black","no","Weiter","yes","768","legacy","23","9","0","/Users/aviadalbert/Documents/Academisch/UoC/Dissertation/Experiment/OpenSesame/NAP-FC/NAP_GER_AA_4blocks_noglides/subject-2.csv","xpyriment","Jazzy James","3.1.9","yes","yes","59a800d99ad5a1025d81bb03","59a801616c613b0251691de0","no","no","0","j","f","space","NA","space","space","j","2194","13885","16323","NA","16863","16551","2194","2","legacy","1024","1","44100","-16","experiment","msal","1","0","0","0","1","english","2","","even","2533070","2516222","NA","NA","2546957","2533066","NA","1079161","2532601","1079161","1079161","2426053","2442920","2624199","2622693","2626395","2482721","2459744","2516222","NA","2377373","2412383","2514564","2459531","2533069","2459747","NA","2624198","2624198","2566193","2566190","2622689","NAP perception","11","35710","24","yes","1024"
"48","yes","48","1494.84","1494.84","white","no","xpyriment","Ich habe die obigen Informationen gelesen und verstanden.","legacy","legacy","0","uniform","1","0","0","undefined","undefined","1","f","2","1","NA","0","1","0","0","0","0","0","0","0","0","34","34","34","0","0","0","NA","0","0","2","0","0","0","2","34","34","34","34","34","Wed Oct  4 13:56:50 2017","Forced-choice identification task with a practice and an experimental phase","yes","NAP_GER_AA_4blocks_noglides.osexp","/Users/aviadalbert/Documents/Academisch/UoC/Dissertation/Experiment/OpenSesame/NAP-FC/NAP_GER_AA_4blocks_noglides","yes","no","sans","no","20","no","black","no","Weiter","yes","768","legacy","24","9","0","/Users/aviadalbert/Documents/Academisch/UoC/Dissertation/Experiment/OpenSesame/NAP-FC/NAP_GER_AA_4blocks_noglides/subject-2.csv","xpyriment","Jazzy James","3.1.9","yes","yes","59a800d99ad5a1025d81bb03","59a801616c613b0251691de0","no","no","0","f","f","space","NA","space","space","f","1661","13885","16323","NA","16863","16551","1661","2","legacy","1024","1","44100","-16","experiment","smal","1","0","0","0","1","english","2","","even","2533070","2516222","NA","NA","2546957","2533066","NA","1079161","2532601","1079161","1079161","2426053","2442920","2628177","2626674","2629839","2482721","2459744","2516222","NA","2377373","2412383","2514564","2459531","2533069","2459747","NA","2628177","2628177","2566193","2566190","2626670","NAP perception","12","37371","25","yes","1024"
"46.1538461538","yes","46.1538461538","1487.92307692","1487.92307692","white","no","xpyriment","Ich habe die obigen Informationen gelesen und verstanden.","legacy","legacy","0","uniform","0","0","0","undefined","undefined","0","f","2","1","NA","0","1","0","0","0","0","0","0","0","0","35","35","35","0","0","0","NA","0","0","2","0","0","0","2","35","35","35","35","35","Wed Oct  4 13:56:50 2017","Forced-choice identification task with a practice and an experimental phase","yes","NAP_GER_AA_4blocks_noglides.osexp","/Users/aviadalbert/Documents/Academisch/UoC/Dissertation/Experiment/OpenSesame/NAP-FC/NAP_GER_AA_4blocks_noglides","yes","no","sans","no","20","no","black","no","Weiter","yes","768","legacy","25","9","0","/Users/aviadalbert/Documents/Academisch/UoC/Dissertation/Experiment/OpenSesame/NAP-FC/NAP_GER_AA_4blocks_noglides/subject-2.csv","xpyriment","Jazzy James","3.1.9","yes","yes","59a800d99ad5a1025d81bb03","59a801616c613b0251691de0","no","no","0","j","f","space","NA","space","space","j","1315","13885","16323","NA","16863","16551","1315","2","legacy","1024","1","44100","-16","experiment","nmal","1","0","0","0","1","english","2","","even","2533070","2516222","NA","NA","2546957","2533066","NA","1079161","2532601","1079161","1079161","2426053","2442920","2631617","2630109","2632933","2482721","2459744","2516222","NA","2377373","2412383","2514564","2459531","2533069","2459747","NA","2631617","2631617","2566193","2566190","2630105","NAP perception","12","38686","26","yes","1024"
"48.1481481481","yes","48.1481481481","1498.66666667","1498.66666667","white","no","xpyriment","Ich habe die obigen Informationen gelesen und verstanden.","legacy","legacy","0","uniform","1","0","0","undefined","undefined","1","f","2","1","NA","0","1","0","0","0","0","0","0","0","0","36","36","36","0","0","0","NA","0","0","2","0","0","0","2","36","36","36","36","36","Wed Oct  4 13:56:50 2017","Forced-choice identification task with a practice and an experimental phase","yes","NAP_GER_AA_4blocks_noglides.osexp","/Users/aviadalbert/Documents/Academisch/UoC/Dissertation/Experiment/OpenSesame/NAP-FC/NAP_GER_AA_4blocks_noglides","yes","no","sans","no","20","no","black","no","Weiter","yes","768","legacy","26","9","0","/Users/aviadalbert/Documents/Academisch/UoC/Dissertation/Experiment/OpenSesame/NAP-FC/NAP_GER_AA_4blocks_noglides/subject-2.csv","xpyriment","Jazzy James","3.1.9","yes","yes","59a800d99ad5a1025d81bb03","59a801616c613b0251691de0","no","no","0","f","f","space","NA","space","space","f","1778","13885","16323","NA","16863","16551","1778","2","legacy","1024","1","44100","-16","experiment","ﾊデal","1","0","0","0","1","english","2","","even","2533070","2516222","NA","NA","2546957","2533066","NA","1079161","2532601","1079161","1079161","2426053","2442920","2634718","2633215","2636497","2482721","2459744","2516222","NA","2377373","2412383","2514564","2459531","2533069","2459747","NA","2634718","2634718","2566193","2566190","2633211","NAP perception","13","40464","27","yes","1024"
"50","yes","50","1492.78571429","1492.78571429","white","no","xpyriment","Ich habe die obigen Informationen gelesen und verstanden.","legacy","legacy","0","uniform","1","0","0","undefined","undefined","1","j","2","1","NA","0","1","0","0","0","0","0","0","0","0","37","37","37","0","0","0","NA","0","0","2","0","0","0","2","37","37","37","37","37","Wed Oct  4 13:56:50 2017","Forced-choice identification task with a practice and an experimental phase","yes","NAP_GER_AA_4blocks_noglides.osexp","/Users/aviadalbert/Documents/Academisch/UoC/Dissertation/Experiment/OpenSesame/NAP-FC/NAP_GER_AA_4blocks_noglides","yes","no","sans","no","20","no","black","no","Weiter","yes","768","legacy","27","9","0","/Users/aviadalbert/Documents/Academisch/UoC/Dissertation/Experiment/OpenSesame/NAP-FC/NAP_GER_AA_4blocks_noglides/subject-2.csv","xpyriment","Jazzy James","3.1.9","yes","yes","59a800d99ad5a1025d81bb03","59a801616c613b0251691de0","no","no","0","j","f","space","NA","space","space","j","1334","13885","16323","NA","16863","16551","1334","2","legacy","1024","1","44100","-16","experiment","zeval","1","0","0","0","1","english","2","","even","2533070","2516222","NA","NA","2546957","2533066","NA","1079161","2532601","1079161","1079161","2426053","2442920","2638266","2636763","2639602","2482721","2459744","2516222","NA","2377373","2412383","2514564","2459531","2533069","2459747","NA","2638266","2638266","2566193","2566190","2636759","NAP perception","14","41798","28","yes","1024"
"51.724137931","yes","51.724137931","1536.48275862","1536.48275862","white","no","xpyriment","Ich habe die obigen Informationen gelesen und verstanden.","legacy","legacy","0","uniform","1","0","0","undefined","undefined","1","j","2","1","NA","0","1","0","0","0","0","0","0","0","0","38","38","38","0","0","0","NA","0","0","2","0","0","0","2","38","38","38","38","38","Wed Oct  4 13:56:50 2017","Forced-choice identification task with a practice and an experimental phase","yes","NAP_GER_AA_4blocks_noglides.osexp","/Users/aviadalbert/Documents/Academisch/UoC/Dissertation/Experiment/OpenSesame/NAP-FC/NAP_GER_AA_4blocks_noglides","yes","no","sans","no","20","no","black","no","Weiter","yes","768","legacy","28","9","0","/Users/aviadalbert/Documents/Academisch/UoC/Dissertation/Experiment/OpenSesame/NAP-FC/NAP_GER_AA_4blocks_noglides/subject-2.csv","xpyriment","Jazzy James","3.1.9","yes","yes","59a800d99ad5a1025d81bb03","59a801616c613b0251691de0","no","no","0","j","f","space","NA","space","space","j","2760","13885","16323","NA","16863","16551","2760","2","legacy","1024","1","44100","-16","experiment","mesal","1","0","0","0","1","english","2","","even","2533070","2516222","NA","NA","2546957","2533066","NA","1079161","2532601","1079161","1079161","2426053","2442920","2641385","2639881","2644147","2482721","2459744","2516222","NA","2377373","2412383","2514564","2459531","2533069","2459747","NA","2641385","2641385","2566193","2566190","2639877","NAP perception","15","44558","29","yes","1024"
"50","yes","50","1552.8","1552.8","white","no","xpyriment","Ich habe die obigen Informationen gelesen und verstanden.","legacy","legacy","0","uniform","0","0","0","undefined","undefined","0","f","2","1","NA","0","1","0","0","0","0","0","0","0","0","39","39","39","0","0","0","NA","0","0","2","0","0","0","2","39","39","39","39","39","Wed Oct  4 13:56:50 2017","Forced-choice identification task with a practice and an experimental phase","yes","NAP_GER_AA_4blocks_noglides.osexp","/Users/aviadalbert/Documents/Academisch/UoC/Dissertation/Experiment/OpenSesame/NAP-FC/NAP_GER_AA_4blocks_noglides","yes","no","sans","no","20","no","black","no","Weiter","yes","768","legacy","29","9","0","/Users/aviadalbert/Documents/Academisch/UoC/Dissertation/Experiment/OpenSesame/NAP-FC/NAP_GER_AA_4blocks_noglides/subject-2.csv","xpyriment","Jazzy James","3.1.9","yes","yes","59a800d99ad5a1025d81bb03","59a801616c613b0251691de0","no","no","0","j","f","space","NA","space","space","j","2026","13885","16323","NA","16863","16551","2026","2","legacy","1024","1","44100","-16","experiment","lpal","1","0","0","0","1","english","2","","even","2533070","2516222","NA","NA","2546957","2533066","NA","1079161","2532601","1079161","1079161","2426053","2442920","2645934","2644428","2647962","2482721","2459744","2516222","NA","2377373","2412383","2514564","2459531","2533069","2459747","NA","2645934","2645934","2566193","2566190","2644424","NAP perception","15","46584","30","yes","1024"
"51.6129032258","yes","51.6129032258","1537.38709677","1537.38709677","white","no","xpyriment","Ich habe die obigen Informationen gelesen und verstanden.","legacy","legacy","0","uniform","1","0","0","undefined","undefined","1","f","2","1","NA","0","1","0","0","0","0","0","0","0","0","40","40","40","0","0","0","NA","0","0","2","0","0","0","2","40","40","40","40","40","Wed Oct  4 13:56:50 2017","Forced-choice identification task with a practice and an experimental phase","yes","NAP_GER_AA_4blocks_noglides.osexp","/Users/aviadalbert/Documents/Academisch/UoC/Dissertation/Experiment/OpenSesame/NAP-FC/NAP_GER_AA_4blocks_noglides","yes","no","sans","no","20","no","black","no","Weiter","yes","768","legacy","30","9","0","/Users/aviadalbert/Documents/Academisch/UoC/Dissertation/Experiment/OpenSesame/NAP-FC/NAP_GER_AA_4blocks_noglides/subject-2.csv","xpyriment","Jazzy James","3.1.9","yes","yes","59a800d99ad5a1025d81bb03","59a801616c613b0251691de0","no","no","0","f","f","space","NA","space","space","f","1075","13885","16323","NA","16863","16551","1075","2","legacy","1024","1","44100","-16","experiment","sfal","1","0","0","0","1","english","2","","even","2533070","2516222","NA","NA","2546957","2533066","NA","1079161","2532601","1079161","1079161","2426053","2442920","2649760","2648257","2650836","2482721","2459744","2516222","NA","2377373","2412383","2514564","2459531","2533069","2459747","NA","2649760","2649760","2566193","2566190","2648252","NAP perception","16","47659","31","yes","1024"
"53.125","yes","53.125","1538.6875","1538.6875","white","no","xpyriment","Ich habe die obigen Informationen gelesen und verstanden.","legacy","legacy","0","uniform","1","0","0","undefined","undefined","1","j","2","1","NA","0","1","0","0","0","0","0","0","0","0","41","41","41","0","0","0","NA","0","0","2","0","0","0","2","41","41","41","41","41","Wed Oct  4 13:56:50 2017","Forced-choice identification task with a practice and an experimental phase","yes","NAP_GER_AA_4blocks_noglides.osexp","/Users/aviadalbert/Documents/Academisch/UoC/Dissertation/Experiment/OpenSesame/NAP-FC/NAP_GER_AA_4blocks_noglides","yes","no","sans","no","20","no","black","no","Weiter","yes","768","legacy","31","9","0","/Users/aviadalbert/Documents/Academisch/UoC/Dissertation/Experiment/OpenSesame/NAP-FC/NAP_GER_AA_4blocks_noglides/subject-2.csv","xpyriment","Jazzy James","3.1.9","yes","yes","59a800d99ad5a1025d81bb03","59a801616c613b0251691de0","no","no","0","j","f","space","NA","space","space","j","1579","13885","16323","NA","16863","16551","1579","2","legacy","1024","1","44100","-16","experiment","efnal","1","0","0","0","1","english","2","","even","2533070","2516222","NA","NA","2546957","2533066","NA","1079161","2532601","1079161","1079161","2426053","2442920","2652616","2651110","2654197","2482721","2459744","2516222","NA","2377373","2412383","2514564","2459531","2533069","2459747","NA","2652615","2652616","2566193","2566190","2651106","NAP perception","17","49238","32","yes","1024"
"51.5151515152","yes","51.5151515152","1549.90909091","1549.90909091","white","no","xpyriment","Ich habe die obigen Informationen gelesen und verstanden.","legacy","legacy","0","uniform","0","0","0","undefined","undefined","0","f","2","1","NA","0","1","0","0","0","0","0","0","0","0","42","42","42","0","0","0","NA","0","0","2","0","0","0","2","42","42","42","42","42","Wed Oct  4 13:56:50 2017","Forced-choice identification task with a practice and an experimental phase","yes","NAP_GER_AA_4blocks_noglides.osexp","/Users/aviadalbert/Documents/Academisch/UoC/Dissertation/Experiment/OpenSesame/NAP-FC/NAP_GER_AA_4blocks_noglides","yes","no","sans","no","20","no","black","no","Weiter","yes","768","legacy","32","9","0","/Users/aviadalbert/Documents/Academisch/UoC/Dissertation/Experiment/OpenSesame/NAP-FC/NAP_GER_AA_4blocks_noglides/subject-2.csv","xpyriment","Jazzy James","3.1.9","yes","yes","59a800d99ad5a1025d81bb03","59a801616c613b0251691de0","no","no","0","j","f","space","NA","space","space","j","1909","13885","16323","NA","16863","16551","1909","2","legacy","1024","1","44100","-16","experiment","ftal","1","0","0","0","1","english","2","","even","2533070","2516222","NA","NA","2546957","2533066","NA","1079161","2532601","1079161","1079161","2426053","2442920","2655974","2654469","2657885","2482721","2459744","2516222","NA","2377373","2412383","2514564","2459531","2533069","2459747","NA","2655973","2655973","2566193","2566190","2654465","NAP perception","17","51147","33","yes","1024"
"50","yes","50","1542.52941176","1542.52941176","white","no","xpyriment","Ich habe die obigen Informationen gelesen und verstanden.","legacy","legacy","0","uniform","0","0","0","undefined","undefined","0","f","2","1","NA","0","1","0","0","0","0","0","0","0","0","43","43","43","0","0","0","NA","0","0","2","0","0","0","2","43","43","43","43","43","Wed Oct  4 13:56:50 2017","Forced-choice identification task with a practice and an experimental phase","yes","NAP_GER_AA_4blocks_noglides.osexp","/Users/aviadalbert/Documents/Academisch/UoC/Dissertation/Experiment/OpenSesame/NAP-FC/NAP_GER_AA_4blocks_noglides","yes","no","sans","no","20","no","black","no","Weiter","yes","768","legacy","33","9","0","/Users/aviadalbert/Documents/Academisch/UoC/Dissertation/Experiment/OpenSesame/NAP-FC/NAP_GER_AA_4blocks_noglides/subject-2.csv","xpyriment","Jazzy James","3.1.9","yes","yes","59a800d99ad5a1025d81bb03","59a801616c613b0251691de0","no","no","0","j","f","space","NA","space","space","j","1299","13885","16323","NA","16863","16551","1299","2","legacy","1024","1","44100","-16","experiment","nval","1","0","0","0","1","english","2","","even","2533070","2516222","NA","NA","2546957","2533066","NA","1079161","2532601","1079161","1079161","2426053","2442920","2659657","2658153","2660957","2482721","2459744","2516222","NA","2377373","2412383","2514564","2459531","2533069","2459747","NA","2659657","2659657","2566193","2566190","2658149","NAP perception","17","52446","34","yes","1024"
"51.4285714286","yes","51.4285714286","1546.91428571","1546.91428571","white","no","xpyriment","Ich habe die obigen Informationen gelesen und verstanden.","legacy","legacy","0","uniform","1","0","0","undefined","undefined","1","j","2","1","NA","0","1","0","0","0","0","0","0","0","0","44","44","44","0","0","0","NA","0","0","2","0","0","0","2","44","44","44","44","44","Wed Oct  4 13:56:50 2017","Forced-choice identification task with a practice and an experimental phase","yes","NAP_GER_AA_4blocks_noglides.osexp","/Users/aviadalbert/Documents/Academisch/UoC/Dissertation/Experiment/OpenSesame/NAP-FC/NAP_GER_AA_4blocks_noglides","yes","no","sans","no","20","no","black","no","Weiter","yes","768","legacy","34","9","0","/Users/aviadalbert/Documents/Academisch/UoC/Dissertation/Experiment/OpenSesame/NAP-FC/NAP_GER_AA_4blocks_noglides/subject-2.csv","xpyriment","Jazzy James","3.1.9","yes","yes","59a800d99ad5a1025d81bb03","59a801616c613b0251691de0","no","no","0","j","f","space","NA","space","space","j","1696","13885","16323","NA","16863","16551","1696","2","legacy","1024","1","44100","-16","experiment","evlal","1","0","0","0","1","english","2","","even","2533070","2516222","NA","NA","2546957","2533066","NA","1079161","2532601","1079161","1079161","2426053","2442920","2662746","2661241","2664443","2482721","2459744","2516222","NA","2377373","2412383","2514564","2459531","2533069","2459747","NA","2662746","2662746","2566193","2566190","2661237","NAP perception","18","54142","35","yes","1024"
"52.7777777778","yes","52.7777777778","1547.75","1547.75","white","no","xpyriment","Ich habe die obigen Informationen gelesen und verstanden.","legacy","legacy","0","uniform","1","0","0","undefined","undefined","1","f","2","1","NA","0","1","0","0","0","0","0","0","0","0","45","45","45","0","0","0","NA","0","0","2","0","0","0","2","45","45","45","45","45","Wed Oct  4 13:56:50 2017","Forced-choice identification task with a practice and an experimental phase","yes","NAP_GER_AA_4blocks_noglides.osexp","/Users/aviadalbert/Documents/Academisch/UoC/Dissertation/Experiment/OpenSesame/NAP-FC/NAP_GER_AA_4blocks_noglides","yes","no","sans","no","20","no","black","no","Weiter","yes","768","legacy","35","9","0","/Users/aviadalbert/Documents/Academisch/UoC/Dissertation/Experiment/OpenSesame/NAP-FC/NAP_GER_AA_4blocks_noglides/subject-2.csv","xpyriment","Jazzy James","3.1.9","yes","yes","59a800d99ad5a1025d81bb03","59a801616c613b0251691de0","no","no","0","f","f","space","NA","space","space","f","1577","13885","16323","NA","16863","16551","1577","2","legacy","1024","1","44100","-16","experiment","fnal","1","0","0","0","1","english","2","","even","2533070","2516222","NA","NA","2546957","2533066","NA","1079161","2532601","1079161","1079161","2426053","2442920","2666219","2664716","2667797","2482721","2459744","2516222","NA","2377373","2412383","2514564","2459531","2533069","2459747","NA","2666219","2666219","2566193","2566190","2664712","NAP perception","19","55719","36","yes","1024"
"54.0540540541","yes","54.0540540541","1534.08108108","1534.08108108","white","no","xpyriment","Ich habe die obigen Informationen gelesen und verstanden.","legacy","legacy","0","uniform","1","0","0","undefined","undefined","1","j","2","1","NA","0","1","0","0","0","0","0","0","0","0","46","46","46","0","0","0","NA","0","0","2","0","0","0","2","46","46","46","46","46","Wed Oct  4 13:56:50 2017","Forced-choice identification task with a practice and an experimental phase","yes","NAP_GER_AA_4blocks_noglides.osexp","/Users/aviadalbert/Documents/Academisch/UoC/Dissertation/Experiment/OpenSesame/NAP-FC/NAP_GER_AA_4blocks_noglides","yes","no","sans","no","20","no","black","no","Weiter","yes","768","legacy","36","9","0","/Users/aviadalbert/Documents/Academisch/UoC/Dissertation/Experiment/OpenSesame/NAP-FC/NAP_GER_AA_4blocks_noglides/subject-2.csv","xpyriment","Jazzy James","3.1.9","yes","yes","59a800d99ad5a1025d81bb03","59a801616c613b0251691de0","no","no","0","j","f","space","NA","space","space","j","1042","13885","16323","NA","16863","16551","1042","2","legacy","1024","1","44100","-16","experiment","enval","1","0","0","0","1","english","2","","even","2533070","2516222","NA","NA","2546957","2533066","NA","1079161","2532601","1079161","1079161","2426053","2442920","2669564","2668060","2670607","2482721","2459744","2516222","NA","2377373","2412383","2514564","2459531","2533069","2459747","NA","2669564","2669564","2566193","2566190","2668056","NAP perception","20","56761","37","yes","1024"
"55.2631578947","yes","55.2631578947","1529.94736842","1529.94736842","white","no","xpyriment","Ich habe die obigen Informationen gelesen und verstanden.","legacy","legacy","0","uniform","1","0","0","undefined","undefined","1","j","2","1","NA","0","1","0","0","0","0","0","0","0","0","47","47","47","0","0","0","NA","0","0","2","0","0","0","2","47","47","47","47","47","Wed Oct  4 13:56:50 2017","Forced-choice identification task with a practice and an experimental phase","yes","NAP_GER_AA_4blocks_noglides.osexp","/Users/aviadalbert/Documents/Academisch/UoC/Dissertation/Experiment/OpenSesame/NAP-FC/NAP_GER_AA_4blocks_noglides","yes","no","sans","no","20","no","black","no","Weiter","yes","768","legacy","37","9","0","/Users/aviadalbert/Documents/Academisch/UoC/Dissertation/Experiment/OpenSesame/NAP-FC/NAP_GER_AA_4blocks_noglides/subject-2.csv","xpyriment","Jazzy James","3.1.9","yes","yes","59a800d99ad5a1025d81bb03","59a801616c613b0251691de0","no","no","0","j","f","space","NA","space","space","j","1377","13885","16323","NA","16863","16551","1377","2","legacy","1024","1","44100","-16","experiment","ezmal","1","0","0","0","1","english","2","","even","2533070","2516222","NA","NA","2546957","2533066","NA","1079161","2532601","1079161","1079161","2426053","2442920","2672387","2670883","2673766","2482721","2459744","2516222","NA","2377373","2412383","2514564","2459531","2533069","2459747","NA","2672387","2672387","2566193","2566190","2670879","NAP perception","21","58138","38","yes","1024"
"53.8461538462","yes","53.8461538462","1547.1025641","1547.1025641","white","no","xpyriment","Ich habe die obigen Informationen gelesen und verstanden.","legacy","legacy","0","uniform","0","0","0","undefined","undefined","0","f","2","1","NA","0","1","0","0","0","0","0","0","0","0","48","48","48","0","0","0","NA","0","0","2","0","0","0","2","48","48","48","48","48","Wed Oct  4 13:56:50 2017","Forced-choice identification task with a practice and an experimental phase","yes","NAP_GER_AA_4blocks_noglides.osexp","/Users/aviadalbert/Documents/Academisch/UoC/Dissertation/Experiment/OpenSesame/NAP-FC/NAP_GER_AA_4blocks_noglides","yes","no","sans","no","20","no","black","no","Weiter","yes","768","legacy","38","9","0","/Users/aviadalbert/Documents/Academisch/UoC/Dissertation/Experiment/OpenSesame/NAP-FC/NAP_GER_AA_4blocks_noglides/subject-2.csv","xpyriment","Jazzy James","3.1.9","yes","yes","59a800d99ad5a1025d81bb03","59a801616c613b0251691de0","no","no","0","j","f","space","NA","space","space","j","2199","13885","16323","NA","16863","16551","2199","2","legacy","1024","1","44100","-16","experiment","lval","1","0","0","0","1","english","2","","even","2533070","2516222","NA","NA","2546957","2533066","NA","1079161","2532601","1079161","1079161","2426053","2442920","2675554","2674049","2677754","2482721","2459744","2516222","NA","2377373","2412383","2514564","2459531","2533069","2459747","NA","2675554","2675554","2566193","2566190","2674045","NAP perception","21","60337","39","yes","1024"
"52.5","yes","52.5","1533.625","1533.625","white","no","xpyriment","Ich habe die obigen Informationen gelesen und verstanden.","legacy","legacy","0","uniform","0","0","0","undefined","undefined","0","f","2","1","NA","0","1","0","0","0","0","0","0","0","0","49","49","49","0","0","0","NA","0","0","2","0","0","0","2","49","49","49","49","49","Wed Oct  4 13:56:50 2017","Forced-choice identification task with a practice and an experimental phase","yes","NAP_GER_AA_4blocks_noglides.osexp","/Users/aviadalbert/Documents/Academisch/UoC/Dissertation/Experiment/OpenSesame/NAP-FC/NAP_GER_AA_4blocks_noglides","yes","no","sans","no","20","no","black","no","Weiter","yes","768","legacy","39","9","0","/Users/aviadalbert/Documents/Academisch/UoC/Dissertation/Experiment/OpenSesame/NAP-FC/NAP_GER_AA_4blocks_noglides/subject-2.csv","xpyriment","Jazzy James","3.1.9","yes","yes","59a800d99ad5a1025d81bb03","59a801616c613b0251691de0","no","no","0","j","f","space","NA","space","space","j","1008","13885","16323","NA","16863","16551","1008","2","legacy","1024","1","44100","-16","experiment","nfal","1","0","0","0","1","english","2","","even","2533070","2516222","NA","NA","2546957","2533066","NA","1079161","2532601","1079161","1079161","2426053","2442920","2679542","2678037","2680551","2482721","2459744","2516222","NA","2377373","2412383","2514564","2459531","2533069","2459747","NA","2679542","2679542","2566193","2566190","2678033","NAP perception","21","61345","40","yes","1024"
"53.6585365854","yes","53.6585365854","1546.87804878","1546.87804878","white","no","xpyriment","Ich habe die obigen Informationen gelesen und verstanden.","legacy","legacy","0","uniform","1","0","0","undefined","undefined","1","j","2","1","NA","0","1","0","0","0","0","0","0","0","0","50","50","50","0","0","0","NA","0","0","2","0","0","0","2","50","50","50","50","50","Wed Oct  4 13:56:50 2017","Forced-choice identification task with a practice and an experimental phase","yes","NAP_GER_AA_4blocks_noglides.osexp","/Users/aviadalbert/Documents/Academisch/UoC/Dissertation/Experiment/OpenSesame/NAP-FC/NAP_GER_AA_4blocks_noglides","yes","no","sans","no","20","no","black","no","Weiter","yes","768","legacy","40","9","0","/Users/aviadalbert/Documents/Academisch/UoC/Dissertation/Experiment/OpenSesame/NAP-FC/NAP_GER_AA_4blocks_noglides/subject-2.csv","xpyriment","Jazzy James","3.1.9","yes","yes","59a800d99ad5a1025d81bb03","59a801616c613b0251691de0","no","no","0","j","f","space","NA","space","space","j","2077","13885","16323","NA","16863","16551","2077","2","legacy","1024","1","44100","-16","experiment","enmal","1","0","0","0","1","english","2","","even","2533070","2516222","NA","NA","2546957","2533066","NA","1079161","2532601","1079161","1079161","2426053","2442920","2682332","2680828","2684410","2482721","2459744","2516222","NA","2377373","2412383","2514564","2459531","2533069","2459747","NA","2682332","2682332","2566193","2566190","2680824","NAP perception","22","63422","41","yes","1024"
"54.7619047619","yes","54.7619047619","1568.19047619","1568.19047619","white","no","xpyriment","Ich habe die obigen Informationen gelesen und verstanden.","legacy","legacy","0","uniform","1","0","0","undefined","undefined","1","j","2","1","NA","0","1","0","0","0","0","0","0","0","0","51","51","51","0","0","0","NA","0","0","2","0","0","0","2","51","51","51","51","51","Wed Oct  4 13:56:50 2017","Forced-choice identification task with a practice and an experimental phase","yes","NAP_GER_AA_4blocks_noglides.osexp","/Users/aviadalbert/Documents/Academisch/UoC/Dissertation/Experiment/OpenSesame/NAP-FC/NAP_GER_AA_4blocks_noglides","yes","no","sans","no","20","no","black","no","Weiter","yes","768","legacy","41","9","0","/Users/aviadalbert/Documents/Academisch/UoC/Dissertation/Experiment/OpenSesame/NAP-FC/NAP_GER_AA_4blocks_noglides/subject-2.csv","xpyriment","Jazzy James","3.1.9","yes","yes","59a800d99ad5a1025d81bb03","59a801616c613b0251691de0","no","no","0","j","f","space","NA","space","space","j","2442","13885","16323","NA","16863","16551","2442","2","legacy","1024","1","44100","-16","experiment","fesal","1","0","0","0","1","english","2","","even","2533070","2516222","NA","NA","2546957","2533066","NA","1079161","2532601","1079161","1079161","2426053","2442920","2686182","2684679","2688626","2482721","2459744","2516222","NA","2377373","2412383","2514564","2459531","2533069","2459747","NA","2686182","2686182","2566193","2566190","2684675","NAP perception","23","65864","42","yes","1024"
"53.488372093","yes","53.488372093","1565.79069767","1565.79069767","white","no","xpyriment","Ich habe die obigen Informationen gelesen und verstanden.","legacy","legacy","0","uniform","0","0","0","undefined","undefined","0","f","2","1","NA","0","1","0","0","0","0","0","0","0","0","52","52","52","0","0","0","NA","0","0","2","0","0","0","2","52","52","52","52","52","Wed Oct  4 13:56:50 2017","Forced-choice identification task with a practice and an experimental phase","yes","NAP_GER_AA_4blocks_noglides.osexp","/Users/aviadalbert/Documents/Academisch/UoC/Dissertation/Experiment/OpenSesame/NAP-FC/NAP_GER_AA_4blocks_noglides","yes","no","sans","no","20","no","black","no","Weiter","yes","768","legacy","42","9","0","/Users/aviadalbert/Documents/Academisch/UoC/Dissertation/Experiment/OpenSesame/NAP-FC/NAP_GER_AA_4blocks_noglides/subject-2.csv","xpyriment","Jazzy James","3.1.9","yes","yes","59a800d99ad5a1025d81bb03","59a801616c613b0251691de0","no","no","0","j","f","space","NA","space","space","j","1465","13885","16323","NA","16863","16551","1465","2","legacy","1024","1","44100","-16","experiment","fnal","1","0","0","0","1","english","2","","even","2533070","2516222","NA","NA","2546957","2533066","NA","1079161","2532601","1079161","1079161","2426053","2442920","2690408","2688904","2691875","2482721","2459744","2516222","NA","2377373","2412383","2514564","2459531","2533069","2459747","NA","2690408","2690408","2566193","2566190","2688900","NAP perception","23","67329","43","yes","1024"
"54.5454545455","yes","54.5454545455","1548.29545455","1548.29545455","white","no","xpyriment","Ich habe die obigen Informationen gelesen und verstanden.","legacy","legacy","0","uniform","1","0","0","undefined","undefined","1","f","2","1","NA","0","1","0","0","0","0","0","0","0","0","53","53","53","0","0","0","NA","0","0","2","0","0","0","2","53","53","53","53","53","Wed Oct  4 13:56:50 2017","Forced-choice identification task with a practice and an experimental phase","yes","NAP_GER_AA_4blocks_noglides.osexp","/Users/aviadalbert/Documents/Academisch/UoC/Dissertation/Experiment/OpenSesame/NAP-FC/NAP_GER_AA_4blocks_noglides","yes","no","sans","no","20","no","black","no","Weiter","yes","768","legacy","43","9","0","/Users/aviadalbert/Documents/Academisch/UoC/Dissertation/Experiment/OpenSesame/NAP-FC/NAP_GER_AA_4blocks_noglides/subject-2.csv","xpyriment","Jazzy James","3.1.9","yes","yes","59a800d99ad5a1025d81bb03","59a801616c613b0251691de0","no","no","0","f","f","space","NA","space","space","f","796","13885","16323","NA","16863","16551","796","2","legacy","1024","1","44100","-16","experiment","mtal","1","0","0","0","1","english","2","","even","2533070","2516222","NA","NA","2546957","2533066","NA","1079161","2532601","1079161","1079161","2426053","2442920","2693659","2692154","2694457","2482721","2459744","2516222","NA","2377373","2412383","2514564","2459531","2533069","2459747","NA","2693658","2693659","2566193","2566190","2692150","NAP perception","24","68125","44","yes","1024"
"55.5555555556","yes","55.5555555556","1551.33333333","1551.33333333","white","no","xpyriment","Ich habe die obigen Informationen gelesen und verstanden.","legacy","legacy","0","uniform","1","0","0","undefined","undefined","1","j","2","1","NA","0","1","0","0","0","0","0","0","0","0","54","54","54","0","0","0","NA","0","0","2","0","0","0","2","54","54","54","54","54","Wed Oct  4 13:56:50 2017","Forced-choice identification task with a practice and an experimental phase","yes","NAP_GER_AA_4blocks_noglides.osexp","/Users/aviadalbert/Documents/Academisch/UoC/Dissertation/Experiment/OpenSesame/NAP-FC/NAP_GER_AA_4blocks_noglides","yes","no","sans","no","20","no","black","no","Weiter","yes","768","legacy","44","9","0","/Users/aviadalbert/Documents/Academisch/UoC/Dissertation/Experiment/OpenSesame/NAP-FC/NAP_GER_AA_4blocks_noglides/subject-2.csv","xpyriment","Jazzy James","3.1.9","yes","yes","59a800d99ad5a1025d81bb03","59a801616c613b0251691de0","no","no","0","j","f","space","NA","space","space","j","1685","13885","16323","NA","16863","16551","1685","2","legacy","1024","1","44100","-16","experiment","sefal","1","0","0","0","1","english","2","","even","2533070","2516222","NA","NA","2546957","2533066","NA","1079161","2532601","1079161","1079161","2426053","2442920","2696241","2694737","2697928","2482721","2459744","2516222","NA","2377373","2412383","2514564","2459531","2533069","2459747","NA","2696240","2696240","2566193","2566190","2694733","NAP perception","25","69810","45","yes","1024"
"54.347826087","yes","54.347826087","1548.2826087","1548.2826087","white","no","xpyriment","Ich habe die obigen Informationen gelesen und verstanden.","legacy","legacy","0","uniform","0","0","0","undefined","undefined","0","j","2","1","NA","0","1","0","0","0","0","0","0","0","0","55","55","55","0","0","0","NA","0","0","2","0","0","0","2","55","55","55","55","55","Wed Oct  4 13:56:50 2017","Forced-choice identification task with a practice and an experimental phase","yes","NAP_GER_AA_4blocks_noglides.osexp","/Users/aviadalbert/Documents/Academisch/UoC/Dissertation/Experiment/OpenSesame/NAP-FC/NAP_GER_AA_4blocks_noglides","yes","no","sans","no","20","no","black","no","Weiter","yes","768","legacy","45","9","0","/Users/aviadalbert/Documents/Academisch/UoC/Dissertation/Experiment/OpenSesame/NAP-FC/NAP_GER_AA_4blocks_noglides/subject-2.csv","xpyriment","Jazzy James","3.1.9","yes","yes","59a800d99ad5a1025d81bb03","59a801616c613b0251691de0","no","no","0","f","f","space","NA","space","space","f","1411","13885","16323","NA","16863","16551","1411","2","legacy","1024","1","44100","-16","experiment","elfal","1","0","0","0","1","english","2","","even","2533070","2516222","NA","NA","2546957","2533066","NA","1079161","2532601","1079161","1079161","2426053","2442920","2699728","2698224","2701141","2482721","2459744","2516222","NA","2377373","2412383","2514564","2459531","2533069","2459747","NA","2699727","2699727","2566193","2566190","2698220","NAP perception","25","71221","46","yes","1024"
"55.3191489362","yes","55.3191489362","1543.10638298","1543.10638298","white","no","xpyriment","Ich habe die obigen Informationen gelesen und verstanden.","legacy","legacy","0","uniform","1","0","0","undefined","undefined","1","j","2","1","NA","0","1","0","0","0","0","0","0","0","0","56","56","56","0","0","0","NA","0","0","2","0","0","0","2","56","56","56","56","56","Wed Oct  4 13:56:50 2017","Forced-choice identification task with a practice and an experimental phase","yes","NAP_GER_AA_4blocks_noglides.osexp","/Users/aviadalbert/Documents/Academisch/UoC/Dissertation/Experiment/OpenSesame/NAP-FC/NAP_GER_AA_4blocks_noglides","yes","no","sans","no","20","no","black","no","Weiter","yes","768","legacy","46","9","0","/Users/aviadalbert/Documents/Academisch/UoC/Dissertation/Experiment/OpenSesame/NAP-FC/NAP_GER_AA_4blocks_noglides/subject-2.csv","xpyriment","Jazzy James","3.1.9","yes","yes","59a800d99ad5a1025d81bb03","59a801616c613b0251691de0","no","no","0","j","f","space","NA","space","space","j","1305","13885","16323","NA","16863","16551","1305","2","legacy","1024","1","44100","-16","experiment","lepal","1","0","0","0","1","english","2","","even","2533070","2516222","NA","NA","2546957","2533066","NA","1079161","2532601","1079161","1079161","2426053","2442920","2702922","2701419","2704229","2482721","2459744","2516222","NA","2377373","2412383","2514564","2459531","2533069","2459747","NA","2702922","2702922","2566193","2566190","2701415","NAP perception","26","72526","47","yes","1024"
"56.25","yes","56.25","1544.8125","1544.8125","white","no","xpyriment","Ich habe die obigen Informationen gelesen und verstanden.","legacy","legacy","0","uniform","1","0","0","undefined","undefined","1","f","2","1","NA","0","1","0","0","0","0","0","0","0","0","57","57","57","0","0","0","NA","0","0","2","0","0","0","2","57","57","57","57","57","Wed Oct  4 13:56:50 2017","Forced-choice identification task with a practice and an experimental phase","yes","NAP_GER_AA_4blocks_noglides.osexp","/Users/aviadalbert/Documents/Academisch/UoC/Dissertation/Experiment/OpenSesame/NAP-FC/NAP_GER_AA_4blocks_noglides","yes","no","sans","no","20","no","black","no","Weiter","yes","768","legacy","47","9","0","/Users/aviadalbert/Documents/Academisch/UoC/Dissertation/Experiment/OpenSesame/NAP-FC/NAP_GER_AA_4blocks_noglides/subject-2.csv","xpyriment","Jazzy James","3.1.9","yes","yes","59a800d99ad5a1025d81bb03","59a801616c613b0251691de0","no","no","0","f","f","space","NA","space","space","f","1625","13885","16323","NA","16863","16551","1625","2","legacy","1024","1","44100","-16","experiment","lkal","1","0","0","0","1","english","2","","even","2533070","2516222","NA","NA","2546957","2533066","NA","1079161","2532601","1079161","1079161","2426053","2442920","2705996","2704492","2707623","2482721","2459744","2516222","NA","2377373","2412383","2514564","2459531","2533069","2459747","NA","2705996","2705996","2566193","2566190","2704489","NAP perception","27","74151","48","yes","1024"
"57.1428571429","yes","57.1428571429","1529.04081633","1529.04081633","white","no","xpyriment","Ich habe die obigen Informationen gelesen und verstanden.","legacy","legacy","0","uniform","1","0","0","undefined","undefined","1","j","2","1","NA","0","1","0","0","0","0","0","0","0","0","58","58","58","0","0","0","NA","0","0","2","0","0","0","2","58","58","58","58","58","Wed Oct  4 13:56:50 2017","Forced-choice identification task with a practice and an experimental phase","yes","NAP_GER_AA_4blocks_noglides.osexp","/Users/aviadalbert/Documents/Academisch/UoC/Dissertation/Experiment/OpenSesame/NAP-FC/NAP_GER_AA_4blocks_noglides","yes","no","sans","no","20","no","black","no","Weiter","yes","768","legacy","48","9","0","/Users/aviadalbert/Documents/Academisch/UoC/Dissertation/Experiment/OpenSesame/NAP-FC/NAP_GER_AA_4blocks_noglides/subject-2.csv","xpyriment","Jazzy James","3.1.9","yes","yes","59a800d99ad5a1025d81bb03","59a801616c613b0251691de0","no","no","0","j","f","space","NA","space","space","j","772","13885","16323","NA","16863","16551","772","2","legacy","1024","1","44100","-16","experiment","lefal","1","0","0","0","1","english","2","","even","2533070","2516222","NA","NA","2546957","2533066","NA","1079161","2532601","1079161","1079161","2426053","2442920","2709430","2707926","2710204","2482721","2459744","2516222","NA","2377373","2412383","2514564","2459531","2533069","2459747","NA","2709430","2709430","2566193","2566190","2707922","NAP perception","28","74923","49","yes","1024"
"58","yes","58","1535.82","1535.82","white","no","xpyriment","Ich habe die obigen Informationen gelesen und verstanden.","legacy","legacy","0","uniform","1","0","0","undefined","undefined","1","j","2","1","NA","0","1","0","0","0","0","0","0","0","0","59","59","59","0","0","0","NA","0","0","2","0","0","0","2","59","59","59","59","59","Wed Oct  4 13:56:50 2017","Forced-choice identification task with a practice and an experimental phase","yes","NAP_GER_AA_4blocks_noglides.osexp","/Users/aviadalbert/Documents/Academisch/UoC/Dissertation/Experiment/OpenSesame/NAP-FC/NAP_GER_AA_4blocks_noglides","yes","no","sans","no","20","no","black","no","Weiter","yes","768","legacy","49","9","0","/Users/aviadalbert/Documents/Academisch/UoC/Dissertation/Experiment/OpenSesame/NAP-FC/NAP_GER_AA_4blocks_noglides/subject-2.csv","xpyriment","Jazzy James","3.1.9","yes","yes","59a800d99ad5a1025d81bb03","59a801616c613b0251691de0","no","no","0","j","f","space","NA","space","space","j","1868","13885","16323","NA","16863","16551","1868","2","legacy","1024","1","44100","-16","experiment","ezval","1","0","0","0","1","english","2","","even","2533070","2516222","NA","NA","2546957","2533066","NA","1079161","2532601","1079161","1079161","2426053","2442920","2711985","2710482","2713854","2482721","2459744","2516222","NA","2377373","2412383","2514564","2459531","2533069","2459747","NA","2711985","2711985","2566193","2566190","2710478","NAP perception","29","76791","50","yes","1024"
"58.8235294118","yes","58.8235294118","1544.41176471","1544.41176471","white","no","xpyriment","Ich habe die obigen Informationen gelesen und verstanden.","legacy","legacy","0","uniform","1","0","0","undefined","undefined","1","f","2","1","NA","0","1","0","0","0","0","0","0","0","0","60","60","60","0","0","0","NA","0","0","2","0","0","0","2","60","60","60","60","60","Wed Oct  4 13:56:50 2017","Forced-choice identification task with a practice and an experimental phase","yes","NAP_GER_AA_4blocks_noglides.osexp","/Users/aviadalbert/Documents/Academisch/UoC/Dissertation/Experiment/OpenSesame/NAP-FC/NAP_GER_AA_4blocks_noglides","yes","no","sans","no","20","no","black","no","Weiter","yes","768","legacy","50","9","0","/Users/aviadalbert/Documents/Academisch/UoC/Dissertation/Experiment/OpenSesame/NAP-FC/NAP_GER_AA_4blocks_noglides/subject-2.csv","xpyriment","Jazzy James","3.1.9","yes","yes","59a800d99ad5a1025d81bb03","59a801616c613b0251691de0","no","no","0","f","f","space","NA","space","space","f","1974","13885","16323","NA","16863","16551","1974","2","legacy","1024","1","44100","-16","experiment","lkal","1","0","0","0","1","english","2","","even","2533070","2516222","NA","NA","2546957","2533066","NA","1079161","2532601","1079161","1079161","2426053","2442920","2715631","2714124","2717606","2482721","2459744","2516222","NA","2377373","2412383","2514564","2459531","2533069","2459747","NA","2715631","2715631","2566193","2566190","2714120","NAP perception","30","78765","51","yes","1024"
"57.6923076923","yes","57.6923076923","1557.19230769","1557.19230769","white","no","xpyriment","Ich habe die obigen Informationen gelesen und verstanden.","legacy","legacy","0","uniform","0","0","0","undefined","undefined","0","f","2","1","NA","0","1","0","0","0","0","0","0","0","0","61","61","61","0","0","0","NA","0","0","2","0","0","0","2","61","61","61","61","61","Wed Oct  4 13:56:50 2017","Forced-choice identification task with a practice and an experimental phase","yes","NAP_GER_AA_4blocks_noglides.osexp","/Users/aviadalbert/Documents/Academisch/UoC/Dissertation/Experiment/OpenSesame/NAP-FC/NAP_GER_AA_4blocks_noglides","yes","no","sans","no","20","no","black","no","Weiter","yes","768","legacy","51","9","0","/Users/aviadalbert/Documents/Academisch/UoC/Dissertation/Experiment/OpenSesame/NAP-FC/NAP_GER_AA_4blocks_noglides/subject-2.csv","xpyriment","Jazzy James","3.1.9","yes","yes","59a800d99ad5a1025d81bb03","59a801616c613b0251691de0","no","no","0","j","f","space","NA","space","space","j","2209","13885","16323","NA","16863","16551","2209","2","legacy","1024","1","44100","-16","experiment","zmal","1","0","0","0","1","english","2","","even","2533070","2516222","NA","NA","2546957","2533066","NA","1079161","2532601","1079161","1079161","2426053","2442920","2719396","2717893","2721607","2482721","2459744","2516222","NA","2377373","2412383","2514564","2459531","2533069","2459747","NA","2719396","2719396","2566193","2566190","2717889","NAP perception","30","80974","52","yes","1024"
"58.4905660377","yes","58.4905660377","1577.88679245","1577.88679245","white","no","xpyriment","Ich habe die obigen Informationen gelesen und verstanden.","legacy","legacy","0","uniform","1","0","0","undefined","undefined","1","j","2","1","NA","0","1","0","0","0","0","0","0","0","0","62","62","62","0","0","0","NA","0","0","2","0","0","0","2","62","62","62","62","62","Wed Oct  4 13:56:50 2017","Forced-choice identification task with a practice and an experimental phase","yes","NAP_GER_AA_4blocks_noglides.osexp","/Users/aviadalbert/Documents/Academisch/UoC/Dissertation/Experiment/OpenSesame/NAP-FC/NAP_GER_AA_4blocks_noglides","yes","no","sans","no","20","no","black","no","Weiter","yes","768","legacy","52","9","0","/Users/aviadalbert/Documents/Academisch/UoC/Dissertation/Experiment/OpenSesame/NAP-FC/NAP_GER_AA_4blocks_noglides/subject-2.csv","xpyriment","Jazzy James","3.1.9","yes","yes","59a800d99ad5a1025d81bb03","59a801616c613b0251691de0","no","no","0","j","f","space","NA","space","space","j","2654","13885","16323","NA","16863","16551","2654","2","legacy","1024","1","44100","-16","experiment","metal","1","0","0","0","1","english","2","","even","2533070","2516222","NA","NA","2546957","2533066","NA","1079161","2532601","1079161","1079161","2426053","2442920","2723386","2721881","2726041","2482721","2459744","2516222","NA","2377373","2412383","2514564","2459531","2533069","2459747","NA","2723386","2723386","2566193","2566190","2721877","NAP perception","31","83628","53","yes","1024"
"59.2592592593","yes","59.2592592593","1597","1597","white","no","xpyriment","Ich habe die obigen Informationen gelesen und verstanden.","legacy","legacy","0","uniform","1","0","0","undefined","undefined","1","j","2","1","NA","0","1","0","0","0","0","0","0","0","0","63","63","63","0","0","0","NA","0","0","2","0","0","0","2","63","63","63","63","63","Wed Oct  4 13:56:50 2017","Forced-choice identification task with a practice and an experimental phase","yes","NAP_GER_AA_4blocks_noglides.osexp","/Users/aviadalbert/Documents/Academisch/UoC/Dissertation/Experiment/OpenSesame/NAP-FC/NAP_GER_AA_4blocks_noglides","yes","no","sans","no","20","no","black","no","Weiter","yes","768","legacy","53","9","0","/Users/aviadalbert/Documents/Academisch/UoC/Dissertation/Experiment/OpenSesame/NAP-FC/NAP_GER_AA_4blocks_noglides/subject-2.csv","xpyriment","Jazzy James","3.1.9","yes","yes","59a800d99ad5a1025d81bb03","59a801616c613b0251691de0","no","no","0","j","f","space","NA","space","space","j","2610","13885","16323","NA","16863","16551","2610","2","legacy","1024","1","44100","-16","experiment","emnal","1","0","0","0","1","english","2","","even","2533070","2516222","NA","NA","2546957","2533066","NA","1079161","2532601","1079161","1079161","2426053","2442920","2727824","2726320","2730435","2482721","2459744","2516222","NA","2377373","2412383","2514564","2459531","2533069","2459747","NA","2727823","2727823","2566193","2566190","2726316","NAP perception","32","86238","54","yes","1024"
"60","yes","60","1621.89090909","1621.89090909","white","no","xpyriment","Ich habe die obigen Informationen gelesen und verstanden.","legacy","legacy","0","uniform","1","0","0","undefined","undefined","1","j","2","1","NA","0","1","0","0","0","0","0","0","0","0","64","64","64","0","0","0","NA","0","0","2","0","0","0","2","64","64","64","64","64","Wed Oct  4 13:56:50 2017","Forced-choice identification task with a practice and an experimental phase","yes","NAP_GER_AA_4blocks_noglides.osexp","/Users/aviadalbert/Documents/Academisch/UoC/Dissertation/Experiment/OpenSesame/NAP-FC/NAP_GER_AA_4blocks_noglides","yes","no","sans","no","20","no","black","no","Weiter","yes","768","legacy","54","9","0","/Users/aviadalbert/Documents/Academisch/UoC/Dissertation/Experiment/OpenSesame/NAP-FC/NAP_GER_AA_4blocks_noglides/subject-2.csv","xpyriment","Jazzy James","3.1.9","yes","yes","59a800d99ad5a1025d81bb03","59a801616c613b0251691de0","no","no","0","j","f","space","NA","space","space","j","2966","13885","16323","NA","16863","16551","2966","2","legacy","1024","1","44100","-16","experiment","eftal","1","0","0","0","1","english","2","","even","2533070","2516222","NA","NA","2546957","2533066","NA","1079161","2532601","1079161","1079161","2426053","2442920","2732209","2730703","2735177","2482721","2459744","2516222","NA","2377373","2412383","2514564","2459531","2533069","2459747","NA","2732209","2732209","2566193","2566190","2730699","NAP perception","33","89204","55","yes","1024"
