"acc","accept_status","accuracy","average_response_time","avg_rt","background","bidi","canvas_backend","checkbox_status","clock_backend","color_backend","compensation","coordinates","correct","correct_block_activation","correct_block_exit","correct_instructions_1","correct_instructions_2","correct_keyboard_response","correct_response","count_block_activation","count_block_exit","count_block_info_QA","count_cont_e_block_message","count_e_block_loop","count_e_block_sequence","count_end_of_experiment","count_experiment","count_experimental_loop","count_form_consent","count_info_forms","count_instructions_1","count_instructions_2","count_keyboard_response","count_listen_message","count_logger","count_p_block_loop","count_p_block_sequence","count_p_feedback","count_pause_feedback","count_personal_details_form_1","count_personal_details_form_2","count_post_loop_blank","count_practice_loop","count_pre_e_block_message","count_pre_p_block_message","count_reset_feedback","count_stimulus_image","count_stimulus_sound","count_timeout_message","count_timeout_sound","count_trial_sequence","datetime","description","disable_garbage_collection","experiment_file","experiment_path","expyriment_opengl","font_bold","font_family","font_italic","font_size","font_underline","foreground","form_clicks","form_response","fullscreen","height","keyboard_backend","live_row","live_row_p_block_loop","live_row_practice_loop","logfile","mouse_backend","opensesame_codename","opensesame_version","osf_always_upload_data","osf_always_upload_experiment","osf_datanode_id","osf_id","practice","pygame_doublebuf","repeat_cycle","response","response_block_activation","response_block_exit","response_block_info_QA","response_instructions_1","response_instructions_2","response_keyboard_response","response_time","response_time_block_activation","response_time_block_exit","response_time_block_info_QA","response_time_instructions_1","response_time_instructions_2","response_time_keyboard_response","round_decimals","sampler_backend","sound_buf_size","sound_channels","sound_freq","sound_sample_size","start","stimulus","subject_age","subject_education","subject_gender","subject_german_native","subject_handedness","subject_language_other","subject_nr","subject_other_native_lang","subject_parity","time_block_activation","time_block_exit","time_block_info_QA","time_cont_e_block_message","time_e_block_loop","time_e_block_sequence","time_end_of_experiment","time_experiment","time_experimental_loop","time_form_consent","time_info_forms","time_instructions_1","time_instructions_2","time_keyboard_response","time_listen_message","time_logger","time_p_block_loop","time_p_block_sequence","time_p_feedback","time_pause_feedback","time_personal_details_form_1","time_personal_details_form_2","time_post_loop_blank","time_practice_loop","time_pre_e_block_message","time_pre_p_block_message","time_reset_feedback","time_stimulus_image","time_stimulus_sound","time_timeout_message","time_timeout_sound","time_trial_sequence","title","total_correct","total_response_time","total_responses","uniform_coordinates","width"
"100","yes","100","1289","1289","white","no","xpyriment","Ich habe die obigen Informationen gelesen und verstanden.","legacy","legacy","0","uniform","1","0","NA","undefined","undefined","1","f","0","0","NA","NA","NA","NA","NA","0","0","0","0","0","0","0","0","0","0","0","NA","NA","0","0","0","0","NA","0","0","0","0","0","0","0","Wed Oct 25 11:46:51 2017","Forced-choice identification task with a practice and an experimental phase","yes","NAP_GER_AA_4blocks_noglides.osexp","/Users/aviadalbert/Documents/Academisch/UoC/Dissertation/Experiment/OpenSesame/NAP-FC/NAP_GER_AA_4blocks_noglides","yes","no","sans","no","20","no","black","no","Weiter","yes","768","legacy","0","0","0","/Users/aviadalbert/Documents/Academisch/UoC/Dissertation/Experiment/OpenSesame/NAP-FC/NAP_GER_AA_4blocks_noglides/subject-16.csv","xpyriment","Jazzy James","3.1.9","yes","yes","59a800d99ad5a1025d81bb03","59a801616c613b0251691de0","yes","no","0","f","f","NA","NA","space","space","f","1289","9232","NA","NA","16948","10773","1289","2","legacy","1024","1","44100","-16","experiment","flal","2","0","1","None","1","english","16","","even","7386465","NA","NA","NA","NA","NA","NA","6944985","NA","6944985","6944985","7358451","7375404","7397406","7395902","7398696","7395698","7386462","NA","NA","7330753","7349671","NA","7386247","NA","7386465","NA","7397406","7397406","NA","NA","7395898","NAP perception","1","1289","1","yes","1024"
"100","yes","100","1114","1114","white","no","xpyriment","Ich habe die obigen Informationen gelesen und verstanden.","legacy","legacy","0","uniform","1","0","NA","undefined","undefined","1","j","0","0","NA","NA","NA","NA","NA","0","0","0","0","0","0","1","1","1","0","0","NA","NA","0","0","0","0","NA","0","0","1","1","1","1","1","Wed Oct 25 11:46:51 2017","Forced-choice identification task with a practice and an experimental phase","yes","NAP_GER_AA_4blocks_noglides.osexp","/Users/aviadalbert/Documents/Academisch/UoC/Dissertation/Experiment/OpenSesame/NAP-FC/NAP_GER_AA_4blocks_noglides","yes","no","sans","no","20","no","black","no","Weiter","yes","768","legacy","1","1","0","/Users/aviadalbert/Documents/Academisch/UoC/Dissertation/Experiment/OpenSesame/NAP-FC/NAP_GER_AA_4blocks_noglides/subject-16.csv","xpyriment","Jazzy James","3.1.9","yes","yes","59a800d99ad5a1025d81bb03","59a801616c613b0251691de0","yes","no","0","j","f","NA","NA","space","space","j","939","9232","NA","NA","16948","10773","939","2","legacy","1024","1","44100","-16","experiment","lepal","2","0","1","None","1","english","16","","even","7386465","NA","NA","NA","NA","NA","NA","6944985","NA","6944985","6944985","7358451","7375404","7400474","7398968","7401414","7395698","7386462","NA","NA","7330753","7349671","NA","7386247","NA","7386465","NA","7400473","7400473","NA","NA","7398964","NAP perception","2","2228","2","yes","1024"
"100","yes","100","1063.66666667","1063.66666667","white","no","xpyriment","Ich habe die obigen Informationen gelesen und verstanden.","legacy","legacy","0","uniform","1","0","NA","undefined","undefined","1","j","0","0","NA","NA","NA","NA","NA","0","0","0","0","0","0","2","2","2","0","0","NA","NA","0","0","0","0","NA","0","0","2","2","2","2","2","Wed Oct 25 11:46:51 2017","Forced-choice identification task with a practice and an experimental phase","yes","NAP_GER_AA_4blocks_noglides.osexp","/Users/aviadalbert/Documents/Academisch/UoC/Dissertation/Experiment/OpenSesame/NAP-FC/NAP_GER_AA_4blocks_noglides","yes","no","sans","no","20","no","black","no","Weiter","yes","768","legacy","2","2","0","/Users/aviadalbert/Documents/Academisch/UoC/Dissertation/Experiment/OpenSesame/NAP-FC/NAP_GER_AA_4blocks_noglides/subject-16.csv","xpyriment","Jazzy James","3.1.9","yes","yes","59a800d99ad5a1025d81bb03","59a801616c613b0251691de0","yes","no","0","j","f","NA","NA","space","space","j","963","9232","NA","NA","16948","10773","963","2","legacy","1024","1","44100","-16","experiment","emtal","2","0","1","None","1","english","16","","even","7386465","NA","NA","NA","NA","NA","NA","6944985","NA","6944985","6944985","7358451","7375404","7403184","7401681","7404148","7395698","7386462","NA","NA","7330753","7349671","NA","7386247","NA","7386465","NA","7403184","7403184","NA","NA","7401677","NAP perception","3","3191","3","yes","1024"
"100","yes","100","1006.75","1006.75","white","no","xpyriment","Ich habe die obigen Informationen gelesen und verstanden.","legacy","legacy","0","uniform","1","0","NA","undefined","undefined","1","f","0","0","NA","NA","NA","NA","NA","0","0","0","0","0","0","3","3","3","0","0","NA","NA","0","0","0","0","NA","0","0","3","3","3","3","3","Wed Oct 25 11:46:51 2017","Forced-choice identification task with a practice and an experimental phase","yes","NAP_GER_AA_4blocks_noglides.osexp","/Users/aviadalbert/Documents/Academisch/UoC/Dissertation/Experiment/OpenSesame/NAP-FC/NAP_GER_AA_4blocks_noglides","yes","no","sans","no","20","no","black","no","Weiter","yes","768","legacy","3","3","0","/Users/aviadalbert/Documents/Academisch/UoC/Dissertation/Experiment/OpenSesame/NAP-FC/NAP_GER_AA_4blocks_noglides/subject-16.csv","xpyriment","Jazzy James","3.1.9","yes","yes","59a800d99ad5a1025d81bb03","59a801616c613b0251691de0","yes","no","0","f","f","NA","NA","space","space","f","836","9232","NA","NA","16948","10773","836","2","legacy","1024","1","44100","-16","experiment","ʃpal","2","0","1","None","1","english","16","","even","7386465","NA","NA","NA","NA","NA","NA","6944985","NA","6944985","6944985","7358451","7375404","7405934","7404429","7406771","7395698","7386462","NA","NA","7330753","7349671","NA","7386247","NA","7386465","NA","7405934","7405934","NA","NA","7404425","NAP perception","4","4027","4","yes","1024"
"100","yes","100","981.2","981.2","white","no","xpyriment","Ich habe die obigen Informationen gelesen und verstanden.","legacy","legacy","0","uniform","1","0","NA","undefined","undefined","1","j","0","0","NA","NA","NA","NA","NA","0","0","0","0","0","0","4","4","4","0","0","NA","NA","0","0","0","0","NA","0","0","4","4","4","4","4","Wed Oct 25 11:46:51 2017","Forced-choice identification task with a practice and an experimental phase","yes","NAP_GER_AA_4blocks_noglides.osexp","/Users/aviadalbert/Documents/Academisch/UoC/Dissertation/Experiment/OpenSesame/NAP-FC/NAP_GER_AA_4blocks_noglides","yes","no","sans","no","20","no","black","no","Weiter","yes","768","legacy","4","4","0","/Users/aviadalbert/Documents/Academisch/UoC/Dissertation/Experiment/OpenSesame/NAP-FC/NAP_GER_AA_4blocks_noglides/subject-16.csv","xpyriment","Jazzy James","3.1.9","yes","yes","59a800d99ad5a1025d81bb03","59a801616c613b0251691de0","yes","no","0","j","f","NA","NA","space","space","j","879","9232","NA","NA","16948","10773","879","2","legacy","1024","1","44100","-16","experiment","nefal","2","0","1","None","1","english","16","","even","7386465","NA","NA","NA","NA","NA","NA","6944985","NA","6944985","6944985","7358451","7375404","7408552","7407045","7409432","7395698","7386462","NA","NA","7330753","7349671","NA","7386247","NA","7386465","NA","7408551","7408552","NA","NA","7407041","NAP perception","5","4906","5","yes","1024"
"100","yes","100","1013.16666667","1013.16666667","white","no","xpyriment","Ich habe die obigen Informationen gelesen und verstanden.","legacy","legacy","0","uniform","1","0","NA","undefined","undefined","1","f","0","0","NA","NA","NA","NA","NA","0","0","0","0","0","0","5","5","5","0","0","NA","NA","0","0","0","0","NA","0","0","5","5","5","5","5","Wed Oct 25 11:46:51 2017","Forced-choice identification task with a practice and an experimental phase","yes","NAP_GER_AA_4blocks_noglides.osexp","/Users/aviadalbert/Documents/Academisch/UoC/Dissertation/Experiment/OpenSesame/NAP-FC/NAP_GER_AA_4blocks_noglides","yes","no","sans","no","20","no","black","no","Weiter","yes","768","legacy","5","5","0","/Users/aviadalbert/Documents/Academisch/UoC/Dissertation/Experiment/OpenSesame/NAP-FC/NAP_GER_AA_4blocks_noglides/subject-16.csv","xpyriment","Jazzy James","3.1.9","yes","yes","59a800d99ad5a1025d81bb03","59a801616c613b0251691de0","yes","no","0","f","f","NA","NA","space","space","f","1173","9232","NA","NA","16948","10773","1173","2","legacy","1024","1","44100","-16","experiment","sfal","2","0","1","None","1","english","16","","even","7386465","NA","NA","NA","NA","NA","NA","6944985","NA","6944985","6944985","7358451","7375404","7411205","7409700","7412379","7395698","7386462","NA","NA","7330753","7349671","NA","7386247","NA","7386465","NA","7411204","7411204","NA","NA","7409696","NAP perception","6","6079","6","yes","1024"
"100","yes","100","1087.71428571","1087.71428571","white","no","xpyriment","Ich habe die obigen Informationen gelesen und verstanden.","legacy","legacy","0","uniform","1","0","NA","undefined","undefined","1","f","0","0","NA","NA","NA","NA","NA","0","0","0","0","0","0","6","6","6","0","0","NA","NA","0","0","0","0","NA","0","0","6","6","6","6","6","Wed Oct 25 11:46:51 2017","Forced-choice identification task with a practice and an experimental phase","yes","NAP_GER_AA_4blocks_noglides.osexp","/Users/aviadalbert/Documents/Academisch/UoC/Dissertation/Experiment/OpenSesame/NAP-FC/NAP_GER_AA_4blocks_noglides","yes","no","sans","no","20","no","black","no","Weiter","yes","768","legacy","6","6","0","/Users/aviadalbert/Documents/Academisch/UoC/Dissertation/Experiment/OpenSesame/NAP-FC/NAP_GER_AA_4blocks_noglides/subject-16.csv","xpyriment","Jazzy James","3.1.9","yes","yes","59a800d99ad5a1025d81bb03","59a801616c613b0251691de0","yes","no","0","f","f","NA","NA","space","space","f","1535","9232","NA","NA","16948","10773","1535","2","legacy","1024","1","44100","-16","experiment","zmal","2","0","1","None","1","english","16","","even","7386465","NA","NA","NA","NA","NA","NA","6944985","NA","6944985","6944985","7358451","7375404","7414144","7412640","7415680","7395698","7386462","NA","NA","7330753","7349671","NA","7386247","NA","7386465","NA","7414144","7414144","NA","NA","7412636","NAP perception","7","7614","7","yes","1024"
"100","yes","100","1076","1076","white","no","xpyriment","Ich habe die obigen Informationen gelesen und verstanden.","legacy","legacy","0","uniform","1","0","NA","undefined","undefined","1","j","0","0","NA","NA","NA","NA","NA","0","0","0","0","0","0","7","7","7","0","0","NA","NA","0","0","0","0","NA","0","0","7","7","7","7","7","Wed Oct 25 11:46:51 2017","Forced-choice identification task with a practice and an experimental phase","yes","NAP_GER_AA_4blocks_noglides.osexp","/Users/aviadalbert/Documents/Academisch/UoC/Dissertation/Experiment/OpenSesame/NAP-FC/NAP_GER_AA_4blocks_noglides","yes","no","sans","no","20","no","black","no","Weiter","yes","768","legacy","7","7","0","/Users/aviadalbert/Documents/Academisch/UoC/Dissertation/Experiment/OpenSesame/NAP-FC/NAP_GER_AA_4blocks_noglides/subject-16.csv","xpyriment","Jazzy James","3.1.9","yes","yes","59a800d99ad5a1025d81bb03","59a801616c613b0251691de0","yes","no","0","j","f","NA","NA","space","space","j","994","9232","NA","NA","16948","10773","994","2","legacy","1024","1","44100","-16","experiment","mesal","2","0","1","None","1","english","16","","even","7386465","NA","NA","NA","NA","NA","NA","6944985","NA","6944985","6944985","7358451","7375404","7417462","7415956","7418457","7395698","7386462","NA","NA","7330753","7349671","NA","7386247","NA","7386465","NA","7417462","7417462","NA","NA","7415952","NAP perception","8","8608","8","yes","1024"
"100","yes","100","1061.44444444","1061.44444444","white","no","xpyriment","Ich habe die obigen Informationen gelesen und verstanden.","legacy","legacy","0","uniform","1","0","NA","undefined","undefined","1","j","0","0","NA","NA","NA","NA","NA","0","0","0","0","0","0","8","8","8","0","0","NA","NA","0","0","0","0","NA","0","0","8","8","8","8","8","Wed Oct 25 11:46:51 2017","Forced-choice identification task with a practice and an experimental phase","yes","NAP_GER_AA_4blocks_noglides.osexp","/Users/aviadalbert/Documents/Academisch/UoC/Dissertation/Experiment/OpenSesame/NAP-FC/NAP_GER_AA_4blocks_noglides","yes","no","sans","no","20","no","black","no","Weiter","yes","768","legacy","8","8","0","/Users/aviadalbert/Documents/Academisch/UoC/Dissertation/Experiment/OpenSesame/NAP-FC/NAP_GER_AA_4blocks_noglides/subject-16.csv","xpyriment","Jazzy James","3.1.9","yes","yes","59a800d99ad5a1025d81bb03","59a801616c613b0251691de0","yes","no","0","j","f","NA","NA","space","space","j","945","9232","NA","NA","16948","10773","945","2","legacy","1024","1","44100","-16","experiment","enval","2","0","1","None","1","english","16","","even","7386465","NA","NA","NA","NA","NA","NA","6944985","NA","6944985","6944985","7358451","7375404","7420231","7418728","7421177","7395698","7386462","NA","NA","7330753","7349671","NA","7386247","NA","7386465","NA","7420231","7420231","NA","NA","7418724","NAP perception","9","9553","9","yes","1024"
"100","yes","100","1077.3","1077.3","white","no","xpyriment","Ich habe die obigen Informationen gelesen und verstanden.","legacy","legacy","0","uniform","1","0","NA","undefined","undefined","1","f","0","0","NA","NA","NA","NA","NA","0","0","0","0","0","0","9","9","9","0","0","NA","NA","0","0","0","0","NA","0","0","9","9","9","9","9","Wed Oct 25 11:46:51 2017","Forced-choice identification task with a practice and an experimental phase","yes","NAP_GER_AA_4blocks_noglides.osexp","/Users/aviadalbert/Documents/Academisch/UoC/Dissertation/Experiment/OpenSesame/NAP-FC/NAP_GER_AA_4blocks_noglides","yes","no","sans","no","20","no","black","no","Weiter","yes","768","legacy","9","9","0","/Users/aviadalbert/Documents/Academisch/UoC/Dissertation/Experiment/OpenSesame/NAP-FC/NAP_GER_AA_4blocks_noglides/subject-16.csv","xpyriment","Jazzy James","3.1.9","yes","yes","59a800d99ad5a1025d81bb03","59a801616c613b0251691de0","yes","no","0","f","f","NA","NA","space","space","f","1220","9232","NA","NA","16948","10773","1220","2","legacy","1024","1","44100","-16","experiment","vlal","2","0","1","None","1","english","16","","even","7386465","NA","NA","NA","NA","NA","NA","6944985","NA","6944985","6944985","7358451","7375404","7422956","7421452","7424177","7395698","7386462","NA","NA","7330753","7349671","NA","7386247","NA","7386465","NA","7422956","7422956","NA","NA","7421448","NAP perception","10","10773","10","yes","1024"
"0","yes","0","1004","1004","white","no","xpyriment","Ich habe die obigen Informationen gelesen und verstanden.","legacy","legacy","0","uniform","0","0","0","undefined","undefined","0","f","2","1","NA","0","1","0","0","0","0","0","0","0","0","10","10","10","0","0","0","NA","0","0","2","0","0","0","2","10","10","10","10","10","Wed Oct 25 11:46:51 2017","Forced-choice identification task with a practice and an experimental phase","yes","NAP_GER_AA_4blocks_noglides.osexp","/Users/aviadalbert/Documents/Academisch/UoC/Dissertation/Experiment/OpenSesame/NAP-FC/NAP_GER_AA_4blocks_noglides","yes","no","sans","no","20","no","black","no","Weiter","yes","768","legacy","0","9","0","/Users/aviadalbert/Documents/Academisch/UoC/Dissertation/Experiment/OpenSesame/NAP-FC/NAP_GER_AA_4blocks_noglides/subject-16.csv","xpyriment","Jazzy James","3.1.9","yes","yes","59a800d99ad5a1025d81bb03","59a801616c613b0251691de0","no","no","0","j","f","space","NA","space","space","j","1004","1909","15485","NA","16948","10773","1004","2","legacy","1024","1","44100","-16","experiment","msal","2","0","1","None","1","english","16","","even","7441891","7425900","NA","NA","7443801","7441887","NA","6944985","7441443","6944985","6944985","7358451","7375404","7445527","7444019","7446532","7395698","7386462","7425900","NA","7330753","7349671","7424241","7386247","7441891","7386465","NA","7445526","7445526","NA","NA","7444016","NAP perception","0","1004","1","yes","1024"
"50","yes","50","924","924","white","no","xpyriment","Ich habe die obigen Informationen gelesen und verstanden.","legacy","legacy","0","uniform","1","0","0","undefined","undefined","1","f","2","1","NA","0","1","0","0","0","0","0","0","0","0","11","11","11","0","0","0","NA","0","0","2","0","0","0","2","11","11","11","11","11","Wed Oct 25 11:46:51 2017","Forced-choice identification task with a practice and an experimental phase","yes","NAP_GER_AA_4blocks_noglides.osexp","/Users/aviadalbert/Documents/Academisch/UoC/Dissertation/Experiment/OpenSesame/NAP-FC/NAP_GER_AA_4blocks_noglides","yes","no","sans","no","20","no","black","no","Weiter","yes","768","legacy","1","9","0","/Users/aviadalbert/Documents/Academisch/UoC/Dissertation/Experiment/OpenSesame/NAP-FC/NAP_GER_AA_4blocks_noglides/subject-16.csv","xpyriment","Jazzy James","3.1.9","yes","yes","59a800d99ad5a1025d81bb03","59a801616c613b0251691de0","no","no","0","f","f","space","NA","space","space","f","844","1909","15485","NA","16948","10773","844","2","legacy","1024","1","44100","-16","experiment","sfal","2","0","1","None","1","english","16","","even","7441891","7425900","NA","NA","7443801","7441887","NA","6944985","7441443","6944985","6944985","7358451","7375404","7448306","7446803","7449151","7395698","7386462","7425900","NA","7330753","7349671","7424241","7386247","7441891","7386465","NA","7448306","7448306","NA","NA","7446799","NAP perception","1","1848","2","yes","1024"
"33.3333333333","yes","33.3333333333","1323","1323","white","no","xpyriment","Ich habe die obigen Informationen gelesen und verstanden.","legacy","legacy","0","uniform","0","0","0","undefined","undefined","0","f","2","1","NA","0","1","0","0","0","0","0","0","0","0","12","12","12","0","0","0","NA","0","0","2","0","0","0","2","12","12","12","12","12","Wed Oct 25 11:46:51 2017","Forced-choice identification task with a practice and an experimental phase","yes","NAP_GER_AA_4blocks_noglides.osexp","/Users/aviadalbert/Documents/Academisch/UoC/Dissertation/Experiment/OpenSesame/NAP-FC/NAP_GER_AA_4blocks_noglides","yes","no","sans","no","20","no","black","no","Weiter","yes","768","legacy","2","9","0","/Users/aviadalbert/Documents/Academisch/UoC/Dissertation/Experiment/OpenSesame/NAP-FC/NAP_GER_AA_4blocks_noglides/subject-16.csv","xpyriment","Jazzy James","3.1.9","yes","yes","59a800d99ad5a1025d81bb03","59a801616c613b0251691de0","no","no","0","j","f","space","NA","space","space","j","2121","1909","15485","NA","16948","10773","2121","2","legacy","1024","1","44100","-16","experiment","ftal","2","0","1","None","1","english","16","","even","7441891","7425900","NA","NA","7443801","7441887","NA","6944985","7441443","6944985","6944985","7358451","7375404","7450930","7449427","7453052","7395698","7386462","7425900","NA","7330753","7349671","7424241","7386247","7441891","7386465","NA","7450930","7450930","NA","NA","7449423","NAP perception","1","3969","3","yes","1024"
"50","yes","50","1384","1384","white","no","xpyriment","Ich habe die obigen Informationen gelesen und verstanden.","legacy","legacy","0","uniform","1","0","0","undefined","undefined","1","f","2","1","NA","0","1","0","0","0","0","0","0","0","0","13","13","13","0","0","0","NA","0","0","2","0","0","0","2","13","13","13","13","13","Wed Oct 25 11:46:51 2017","Forced-choice identification task with a practice and an experimental phase","yes","NAP_GER_AA_4blocks_noglides.osexp","/Users/aviadalbert/Documents/Academisch/UoC/Dissertation/Experiment/OpenSesame/NAP-FC/NAP_GER_AA_4blocks_noglides","yes","no","sans","no","20","no","black","no","Weiter","yes","768","legacy","3","9","0","/Users/aviadalbert/Documents/Academisch/UoC/Dissertation/Experiment/OpenSesame/NAP-FC/NAP_GER_AA_4blocks_noglides/subject-16.csv","xpyriment","Jazzy James","3.1.9","yes","yes","59a800d99ad5a1025d81bb03","59a801616c613b0251691de0","no","no","0","f","f","space","NA","space","space","f","1567","1909","15485","NA","16948","10773","1567","2","legacy","1024","1","44100","-16","experiment","mzal","2","0","1","None","1","english","16","","even","7441891","7425900","NA","NA","7443801","7441887","NA","6944985","7441443","6944985","6944985","7358451","7375404","7454849","7453342","7456417","7395698","7386462","7425900","NA","7330753","7349671","7424241","7386247","7441891","7386465","NA","7454849","7454849","NA","NA","7453338","NAP perception","2","5536","4","yes","1024"
"60","yes","60","1361.6","1361.6","white","no","xpyriment","Ich habe die obigen Informationen gelesen und verstanden.","legacy","legacy","0","uniform","1","0","0","undefined","undefined","1","f","2","1","NA","0","1","0","0","0","0","0","0","0","0","14","14","14","0","0","0","NA","0","0","2","0","0","0","2","14","14","14","14","14","Wed Oct 25 11:46:51 2017","Forced-choice identification task with a practice and an experimental phase","yes","NAP_GER_AA_4blocks_noglides.osexp","/Users/aviadalbert/Documents/Academisch/UoC/Dissertation/Experiment/OpenSesame/NAP-FC/NAP_GER_AA_4blocks_noglides","yes","no","sans","no","20","no","black","no","Weiter","yes","768","legacy","4","9","0","/Users/aviadalbert/Documents/Academisch/UoC/Dissertation/Experiment/OpenSesame/NAP-FC/NAP_GER_AA_4blocks_noglides/subject-16.csv","xpyriment","Jazzy James","3.1.9","yes","yes","59a800d99ad5a1025d81bb03","59a801616c613b0251691de0","no","no","0","f","f","space","NA","space","space","f","1272","1909","15485","NA","16948","10773","1272","2","legacy","1024","1","44100","-16","experiment","smal","2","0","1","None","1","english","16","","even","7441891","7425900","NA","NA","7443801","7441887","NA","6944985","7441443","6944985","6944985","7358451","7375404","7458199","7456696","7459472","7395698","7386462","7425900","NA","7330753","7349671","7424241","7386247","7441891","7386465","NA","7458199","7458199","NA","NA","7456692","NAP perception","3","6808","5","yes","1024"
"66.6666666667","yes","66.6666666667","1338.83333333","1338.83333333","white","no","xpyriment","Ich habe die obigen Informationen gelesen und verstanden.","legacy","legacy","0","uniform","1","0","0","undefined","undefined","1","j","2","1","NA","0","1","0","0","0","0","0","0","0","0","15","15","15","0","0","0","NA","0","0","2","0","0","0","2","15","15","15","15","15","Wed Oct 25 11:46:51 2017","Forced-choice identification task with a practice and an experimental phase","yes","NAP_GER_AA_4blocks_noglides.osexp","/Users/aviadalbert/Documents/Academisch/UoC/Dissertation/Experiment/OpenSesame/NAP-FC/NAP_GER_AA_4blocks_noglides","yes","no","sans","no","20","no","black","no","Weiter","yes","768","legacy","5","9","0","/Users/aviadalbert/Documents/Academisch/UoC/Dissertation/Experiment/OpenSesame/NAP-FC/NAP_GER_AA_4blocks_noglides/subject-16.csv","xpyriment","Jazzy James","3.1.9","yes","yes","59a800d99ad5a1025d81bb03","59a801616c613b0251691de0","no","no","0","j","f","space","NA","space","space","j","1225","1909","15485","NA","16948","10773","1225","2","legacy","1024","1","44100","-16","experiment","lemal","2","0","1","None","1","english","16","","even","7441891","7425900","NA","NA","7443801","7441887","NA","6944985","7441443","6944985","6944985","7358451","7375404","7461246","7459743","7462472","7395698","7386462","7425900","NA","7330753","7349671","7424241","7386247","7441891","7386465","NA","7461246","7461246","NA","NA","7459739","NAP perception","4","8033","6","yes","1024"
"71.4285714286","yes","71.4285714286","1369","1369","white","no","xpyriment","Ich habe die obigen Informationen gelesen und verstanden.","legacy","legacy","0","uniform","1","0","0","undefined","undefined","1","j","2","1","NA","0","1","0","0","0","0","0","0","0","0","16","16","16","0","0","0","NA","0","0","2","0","0","0","2","16","16","16","16","16","Wed Oct 25 11:46:51 2017","Forced-choice identification task with a practice and an experimental phase","yes","NAP_GER_AA_4blocks_noglides.osexp","/Users/aviadalbert/Documents/Academisch/UoC/Dissertation/Experiment/OpenSesame/NAP-FC/NAP_GER_AA_4blocks_noglides","yes","no","sans","no","20","no","black","no","Weiter","yes","768","legacy","6","9","0","/Users/aviadalbert/Documents/Academisch/UoC/Dissertation/Experiment/OpenSesame/NAP-FC/NAP_GER_AA_4blocks_noglides/subject-16.csv","xpyriment","Jazzy James","3.1.9","yes","yes","59a800d99ad5a1025d81bb03","59a801616c613b0251691de0","no","no","0","j","f","space","NA","space","space","j","1550","1909","15485","NA","16948","10773","1550","2","legacy","1024","1","44100","-16","experiment","enfal","2","0","1","None","1","english","16","","even","7441891","7425900","NA","NA","7443801","7441887","NA","6944985","7441443","6944985","6944985","7358451","7375404","7464257","7462753","7465808","7395698","7386462","7425900","NA","7330753","7349671","7424241","7386247","7441891","7386465","NA","7464256","7464257","NA","NA","7462749","NAP perception","5","9583","7","yes","1024"
"75","yes","75","1488.625","1488.625","white","no","xpyriment","Ich habe die obigen Informationen gelesen und verstanden.","legacy","legacy","0","uniform","1","0","0","undefined","undefined","1","f","2","1","NA","0","1","0","0","0","0","0","0","0","0","17","17","17","0","0","0","NA","0","0","2","0","0","0","2","17","17","17","17","17","Wed Oct 25 11:46:51 2017","Forced-choice identification task with a practice and an experimental phase","yes","NAP_GER_AA_4blocks_noglides.osexp","/Users/aviadalbert/Documents/Academisch/UoC/Dissertation/Experiment/OpenSesame/NAP-FC/NAP_GER_AA_4blocks_noglides","yes","no","sans","no","20","no","black","no","Weiter","yes","768","legacy","7","9","0","/Users/aviadalbert/Documents/Academisch/UoC/Dissertation/Experiment/OpenSesame/NAP-FC/NAP_GER_AA_4blocks_noglides/subject-16.csv","xpyriment","Jazzy James","3.1.9","yes","yes","59a800d99ad5a1025d81bb03","59a801616c613b0251691de0","no","no","0","f","f","space","NA","space","space","f","2326","1909","15485","NA","16948","10773","2326","2","legacy","1024","1","44100","-16","experiment","nmal","2","0","1","None","1","english","16","","even","7441891","7425900","NA","NA","7443801","7441887","NA","6944985","7441443","6944985","6944985","7358451","7375404","7467585","7466078","7469913","7395698","7386462","7425900","NA","7330753","7349671","7424241","7386247","7441891","7386465","NA","7467585","7467585","NA","NA","7466074","NAP perception","6","11909","8","yes","1024"
"66.6666666667","yes","66.6666666667","1539.44444444","1539.44444444","white","no","xpyriment","Ich habe die obigen Informationen gelesen und verstanden.","legacy","legacy","0","uniform","0","0","0","undefined","undefined","0","f","2","1","NA","0","1","0","0","0","0","0","0","0","0","18","18","18","0","0","0","NA","0","0","2","0","0","0","2","18","18","18","18","18","Wed Oct 25 11:46:51 2017","Forced-choice identification task with a practice and an experimental phase","yes","NAP_GER_AA_4blocks_noglides.osexp","/Users/aviadalbert/Documents/Academisch/UoC/Dissertation/Experiment/OpenSesame/NAP-FC/NAP_GER_AA_4blocks_noglides","yes","no","sans","no","20","no","black","no","Weiter","yes","768","legacy","8","9","0","/Users/aviadalbert/Documents/Academisch/UoC/Dissertation/Experiment/OpenSesame/NAP-FC/NAP_GER_AA_4blocks_noglides/subject-16.csv","xpyriment","Jazzy James","3.1.9","yes","yes","59a800d99ad5a1025d81bb03","59a801616c613b0251691de0","no","no","0","j","f","space","NA","space","space","j","1946","1909","15485","NA","16948","10773","1946","2","legacy","1024","1","44100","-16","experiment","lval","2","0","1","None","1","english","16","","even","7441891","7425900","NA","NA","7443801","7441887","NA","6944985","7441443","6944985","6944985","7358451","7375404","7471701","7470197","7473648","7395698","7386462","7425900","NA","7330753","7349671","7424241","7386247","7441891","7386465","NA","7471701","7471701","NA","NA","7470193","NAP perception","6","13855","9","yes","1024"
"70","yes","70","1664.1","1664.1","white","no","xpyriment","Ich habe die obigen Informationen gelesen und verstanden.","legacy","legacy","0","uniform","1","0","0","undefined","undefined","1","j","2","1","NA","0","1","0","0","0","0","0","0","0","0","19","19","19","0","0","0","NA","0","0","2","0","0","0","2","19","19","19","19","19","Wed Oct 25 11:46:51 2017","Forced-choice identification task with a practice and an experimental phase","yes","NAP_GER_AA_4blocks_noglides.osexp","/Users/aviadalbert/Documents/Academisch/UoC/Dissertation/Experiment/OpenSesame/NAP-FC/NAP_GER_AA_4blocks_noglides","yes","no","sans","no","20","no","black","no","Weiter","yes","768","legacy","9","9","0","/Users/aviadalbert/Documents/Academisch/UoC/Dissertation/Experiment/OpenSesame/NAP-FC/NAP_GER_AA_4blocks_noglides/subject-16.csv","xpyriment","Jazzy James","3.1.9","yes","yes","59a800d99ad5a1025d81bb03","59a801616c613b0251691de0","no","no","0","j","f","space","NA","space","space","j","2786","1909","15485","NA","16948","10773","2786","2","legacy","1024","1","44100","-16","experiment","emsal","2","0","1","None","1","english","16","","even","7441891","7425900","NA","NA","7443801","7441887","NA","6944985","7441443","6944985","6944985","7358451","7375404","7475436","7473932","7478223","7395698","7386462","7425900","NA","7330753","7349671","7424241","7386247","7441891","7386465","NA","7475435","7475436","NA","NA","7473928","NAP perception","7","16641","10","yes","1024"
"63.6363636364","yes","63.6363636364","1785.54545455","1785.54545455","white","no","xpyriment","Ich habe die obigen Informationen gelesen und verstanden.","legacy","legacy","0","uniform","0","0","0","undefined","undefined","0","f","2","1","NA","0","1","0","0","0","0","0","0","0","0","20","20","20","0","0","0","NA","0","0","2","0","0","0","2","20","20","20","20","20","Wed Oct 25 11:46:51 2017","Forced-choice identification task with a practice and an experimental phase","yes","NAP_GER_AA_4blocks_noglides.osexp","/Users/aviadalbert/Documents/Academisch/UoC/Dissertation/Experiment/OpenSesame/NAP-FC/NAP_GER_AA_4blocks_noglides","yes","no","sans","no","20","no","black","no","Weiter","yes","768","legacy","10","9","0","/Users/aviadalbert/Documents/Academisch/UoC/Dissertation/Experiment/OpenSesame/NAP-FC/NAP_GER_AA_4blocks_noglides/subject-16.csv","xpyriment","Jazzy James","3.1.9","yes","yes","59a800d99ad5a1025d81bb03","59a801616c613b0251691de0","no","no","0","None","f","space","NA","space","space","None","3000","1909","15485","NA","16948","10773","3000","2","legacy","1024","1","44100","-16","experiment","npal","2","0","1","None","1","english","16","","even","7441891","7425900","NA","NA","7443801","7441887","NA","6944985","7441443","6944985","6944985","7358451","7375404","7479998","7478492","7484000","7395698","7386462","7425900","NA","7330753","7349671","7424241","7386247","7441891","7386465","NA","7479997","7479997","7483000","7482998","7478488","NAP perception","7","19641","11","yes","1024"
"58.3333333333","yes","58.3333333333","1722.58333333","1722.58333333","white","no","xpyriment","Ich habe die obigen Informationen gelesen und verstanden.","legacy","legacy","0","uniform","0","0","0","undefined","undefined","0","j","2","1","NA","0","1","0","0","0","0","0","0","0","0","21","21","21","0","0","0","NA","0","0","2","0","0","0","2","21","21","21","21","21","Wed Oct 25 11:46:51 2017","Forced-choice identification task with a practice and an experimental phase","yes","NAP_GER_AA_4blocks_noglides.osexp","/Users/aviadalbert/Documents/Academisch/UoC/Dissertation/Experiment/OpenSesame/NAP-FC/NAP_GER_AA_4blocks_noglides","yes","no","sans","no","20","no","black","no","Weiter","yes","768","legacy","11","9","0","/Users/aviadalbert/Documents/Academisch/UoC/Dissertation/Experiment/OpenSesame/NAP-FC/NAP_GER_AA_4blocks_noglides/subject-16.csv","xpyriment","Jazzy James","3.1.9","yes","yes","59a800d99ad5a1025d81bb03","59a801616c613b0251691de0","no","no","0","f","f","space","NA","space","space","f","1030","1909","15485","NA","16948","10773","1030","2","legacy","1024","1","44100","-16","experiment","eʃpal","2","0","1","None","1","english","16","","even","7441891","7425900","NA","NA","7443801","7441887","NA","6944985","7441443","6944985","6944985","7358451","7375404","7485794","7484289","7486826","7395698","7386462","7425900","NA","7330753","7349671","7424241","7386247","7441891","7386465","NA","7485794","7485794","7483000","7482998","7484284","NAP perception","7","20671","12","yes","1024"
"53.8461538462","yes","53.8461538462","1650.69230769","1650.69230769","white","no","xpyriment","Ich habe die obigen Informationen gelesen und verstanden.","legacy","legacy","0","uniform","0","0","0","undefined","undefined","0","j","2","1","NA","0","1","0","0","0","0","0","0","0","0","22","22","22","0","0","0","NA","0","0","2","0","0","0","2","22","22","22","22","22","Wed Oct 25 11:46:51 2017","Forced-choice identification task with a practice and an experimental phase","yes","NAP_GER_AA_4blocks_noglides.osexp","/Users/aviadalbert/Documents/Academisch/UoC/Dissertation/Experiment/OpenSesame/NAP-FC/NAP_GER_AA_4blocks_noglides","yes","no","sans","no","20","no","black","no","Weiter","yes","768","legacy","12","9","0","/Users/aviadalbert/Documents/Academisch/UoC/Dissertation/Experiment/OpenSesame/NAP-FC/NAP_GER_AA_4blocks_noglides/subject-16.csv","xpyriment","Jazzy James","3.1.9","yes","yes","59a800d99ad5a1025d81bb03","59a801616c613b0251691de0","no","no","0","f","f","space","NA","space","space","f","788","1909","15485","NA","16948","10773","788","2","legacy","1024","1","44100","-16","experiment","elval","2","0","1","None","1","english","16","","even","7441891","7425900","NA","NA","7443801","7441887","NA","6944985","7441443","6944985","6944985","7358451","7375404","7488608","7487103","7489398","7395698","7386462","7425900","NA","7330753","7349671","7424241","7386247","7441891","7386465","NA","7488608","7488608","7483000","7482998","7487099","NAP perception","7","21459","13","yes","1024"
"57.1428571429","yes","57.1428571429","1579.92857143","1579.92857143","white","no","xpyriment","Ich habe die obigen Informationen gelesen und verstanden.","legacy","legacy","0","uniform","1","0","0","undefined","undefined","1","f","2","1","NA","0","1","0","0","0","0","0","0","0","0","23","23","23","0","0","0","NA","0","0","2","0","0","0","2","23","23","23","23","23","Wed Oct 25 11:46:51 2017","Forced-choice identification task with a practice and an experimental phase","yes","NAP_GER_AA_4blocks_noglides.osexp","/Users/aviadalbert/Documents/Academisch/UoC/Dissertation/Experiment/OpenSesame/NAP-FC/NAP_GER_AA_4blocks_noglides","yes","no","sans","no","20","no","black","no","Weiter","yes","768","legacy","13","9","0","/Users/aviadalbert/Documents/Academisch/UoC/Dissertation/Experiment/OpenSesame/NAP-FC/NAP_GER_AA_4blocks_noglides/subject-16.csv","xpyriment","Jazzy James","3.1.9","yes","yes","59a800d99ad5a1025d81bb03","59a801616c613b0251691de0","no","no","0","f","f","space","NA","space","space","f","660","1909","15485","NA","16948","10773","660","2","legacy","1024","1","44100","-16","experiment","spal","2","0","1","None","1","english","16","","even","7441891","7425900","NA","NA","7443801","7441887","NA","6944985","7441443","6944985","6944985","7358451","7375404","7491174","7489668","7491835","7395698","7386462","7425900","NA","7330753","7349671","7424241","7386247","7441891","7386465","NA","7491173","7491174","7483000","7482998","7489664","NAP perception","8","22119","14","yes","1024"
"60","yes","60","1512","1512","white","no","xpyriment","Ich habe die obigen Informationen gelesen und verstanden.","legacy","legacy","0","uniform","1","0","0","undefined","undefined","1","j","2","1","NA","0","1","0","0","0","0","0","0","0","0","24","24","24","0","0","0","NA","0","0","2","0","0","0","2","24","24","24","24","24","Wed Oct 25 11:46:51 2017","Forced-choice identification task with a practice and an experimental phase","yes","NAP_GER_AA_4blocks_noglides.osexp","/Users/aviadalbert/Documents/Academisch/UoC/Dissertation/Experiment/OpenSesame/NAP-FC/NAP_GER_AA_4blocks_noglides","yes","no","sans","no","20","no","black","no","Weiter","yes","768","legacy","14","9","0","/Users/aviadalbert/Documents/Academisch/UoC/Dissertation/Experiment/OpenSesame/NAP-FC/NAP_GER_AA_4blocks_noglides/subject-16.csv","xpyriment","Jazzy James","3.1.9","yes","yes","59a800d99ad5a1025d81bb03","59a801616c613b0251691de0","no","no","0","j","f","space","NA","space","space","j","561","1909","15485","NA","16948","10773","561","2","legacy","1024","1","44100","-16","experiment","enval","2","0","1","None","1","english","16","","even","7441891","7425900","NA","NA","7443801","7441887","NA","6944985","7441443","6944985","6944985","7358451","7375404","7493628","7492125","7494190","7395698","7386462","7425900","NA","7330753","7349671","7424241","7386247","7441891","7386465","NA","7493628","7493628","7483000","7482998","7492121","NAP perception","9","22680","15","yes","1024"
"62.5","yes","62.5","1459.8125","1459.8125","white","no","xpyriment","Ich habe die obigen Informationen gelesen und verstanden.","legacy","legacy","0","uniform","1","0","0","undefined","undefined","1","f","2","1","NA","0","1","0","0","0","0","0","0","0","0","25","25","25","0","0","0","NA","0","0","2","0","0","0","2","25","25","25","25","25","Wed Oct 25 11:46:51 2017","Forced-choice identification task with a practice and an experimental phase","yes","NAP_GER_AA_4blocks_noglides.osexp","/Users/aviadalbert/Documents/Academisch/UoC/Dissertation/Experiment/OpenSesame/NAP-FC/NAP_GER_AA_4blocks_noglides","yes","no","sans","no","20","no","black","no","Weiter","yes","768","legacy","15","9","0","/Users/aviadalbert/Documents/Academisch/UoC/Dissertation/Experiment/OpenSesame/NAP-FC/NAP_GER_AA_4blocks_noglides/subject-16.csv","xpyriment","Jazzy James","3.1.9","yes","yes","59a800d99ad5a1025d81bb03","59a801616c613b0251691de0","no","no","0","f","f","space","NA","space","space","f","677","1909","15485","NA","16948","10773","677","2","legacy","1024","1","44100","-16","experiment","flal","2","0","1","None","1","english","16","","even","7441891","7425900","NA","NA","7443801","7441887","NA","6944985","7441443","6944985","6944985","7358451","7375404","7495975","7494468","7496654","7395698","7386462","7425900","NA","7330753","7349671","7424241","7386247","7441891","7386465","NA","7495975","7495975","7483000","7482998","7494464","NAP perception","10","23357","16","yes","1024"
"64.7058823529","yes","64.7058823529","1444.64705882","1444.64705882","white","no","xpyriment","Ich habe die obigen Informationen gelesen und verstanden.","legacy","legacy","0","uniform","1","0","0","undefined","undefined","1","f","2","1","NA","0","1","0","0","0","0","0","0","0","0","26","26","26","0","0","0","NA","0","0","2","0","0","0","2","26","26","26","26","26","Wed Oct 25 11:46:51 2017","Forced-choice identification task with a practice and an experimental phase","yes","NAP_GER_AA_4blocks_noglides.osexp","/Users/aviadalbert/Documents/Academisch/UoC/Dissertation/Experiment/OpenSesame/NAP-FC/NAP_GER_AA_4blocks_noglides","yes","no","sans","no","20","no","black","no","Weiter","yes","768","legacy","16","9","0","/Users/aviadalbert/Documents/Academisch/UoC/Dissertation/Experiment/OpenSesame/NAP-FC/NAP_GER_AA_4blocks_noglides/subject-16.csv","xpyriment","Jazzy James","3.1.9","yes","yes","59a800d99ad5a1025d81bb03","59a801616c613b0251691de0","no","no","0","f","f","space","NA","space","space","f","1202","1909","15485","NA","16948","10773","1202","2","legacy","1024","1","44100","-16","experiment","fsal","2","0","1","None","1","english","16","","even","7441891","7425900","NA","NA","7443801","7441887","NA","6944985","7441443","6944985","6944985","7358451","7375404","7498428","7496925","7499631","7395698","7386462","7425900","NA","7330753","7349671","7424241","7386247","7441891","7386465","NA","7498428","7498428","7483000","7482998","7496921","NAP perception","11","24559","17","yes","1024"
"61.1111111111","yes","61.1111111111","1402.83333333","1402.83333333","white","no","xpyriment","Ich habe die obigen Informationen gelesen und verstanden.","legacy","legacy","0","uniform","0","0","0","undefined","undefined","0","f","2","1","NA","0","1","0","0","0","0","0","0","0","0","27","27","27","0","0","0","NA","0","0","2","0","0","0","2","27","27","27","27","27","Wed Oct 25 11:46:51 2017","Forced-choice identification task with a practice and an experimental phase","yes","NAP_GER_AA_4blocks_noglides.osexp","/Users/aviadalbert/Documents/Academisch/UoC/Dissertation/Experiment/OpenSesame/NAP-FC/NAP_GER_AA_4blocks_noglides","yes","no","sans","no","20","no","black","no","Weiter","yes","768","legacy","17","9","0","/Users/aviadalbert/Documents/Academisch/UoC/Dissertation/Experiment/OpenSesame/NAP-FC/NAP_GER_AA_4blocks_noglides/subject-16.csv","xpyriment","Jazzy James","3.1.9","yes","yes","59a800d99ad5a1025d81bb03","59a801616c613b0251691de0","no","no","0","j","f","space","NA","space","space","j","692","1909","15485","NA","16948","10773","692","2","legacy","1024","1","44100","-16","experiment","nfal","2","0","1","None","1","english","16","","even","7441891","7425900","NA","NA","7443801","7441887","NA","6944985","7441443","6944985","6944985","7358451","7375404","7501409","7499906","7502102","7395698","7386462","7425900","NA","7330753","7349671","7424241","7386247","7441891","7386465","NA","7501409","7501409","7483000","7482998","7499902","NAP perception","11","25251","18","yes","1024"
"63.1578947368","yes","63.1578947368","1379.26315789","1379.26315789","white","no","xpyriment","Ich habe die obigen Informationen gelesen und verstanden.","legacy","legacy","0","uniform","1","0","0","undefined","undefined","1","f","2","1","NA","0","1","0","0","0","0","0","0","0","0","28","28","28","0","0","0","NA","0","0","2","0","0","0","2","28","28","28","28","28","Wed Oct 25 11:46:51 2017","Forced-choice identification task with a practice and an experimental phase","yes","NAP_GER_AA_4blocks_noglides.osexp","/Users/aviadalbert/Documents/Academisch/UoC/Dissertation/Experiment/OpenSesame/NAP-FC/NAP_GER_AA_4blocks_noglides","yes","no","sans","no","20","no","black","no","Weiter","yes","768","legacy","18","9","0","/Users/aviadalbert/Documents/Academisch/UoC/Dissertation/Experiment/OpenSesame/NAP-FC/NAP_GER_AA_4blocks_noglides/subject-16.csv","xpyriment","Jazzy James","3.1.9","yes","yes","59a800d99ad5a1025d81bb03","59a801616c613b0251691de0","no","no","0","f","f","space","NA","space","space","f","955","1909","15485","NA","16948","10773","955","2","legacy","1024","1","44100","-16","experiment","fnal","2","0","1","None","1","english","16","","even","7441891","7425900","NA","NA","7443801","7441887","NA","6944985","7441443","6944985","6944985","7358451","7375404","7503873","7502368","7504830","7395698","7386462","7425900","NA","7330753","7349671","7424241","7386247","7441891","7386465","NA","7503873","7503873","7483000","7482998","7502364","NAP perception","12","26206","19","yes","1024"
"65","yes","65","1344.35","1344.35","white","no","xpyriment","Ich habe die obigen Informationen gelesen und verstanden.","legacy","legacy","0","uniform","1","0","0","undefined","undefined","1","j","2","1","NA","0","1","0","0","0","0","0","0","0","0","29","29","29","0","0","0","NA","0","0","2","0","0","0","2","29","29","29","29","29","Wed Oct 25 11:46:51 2017","Forced-choice identification task with a practice and an experimental phase","yes","NAP_GER_AA_4blocks_noglides.osexp","/Users/aviadalbert/Documents/Academisch/UoC/Dissertation/Experiment/OpenSesame/NAP-FC/NAP_GER_AA_4blocks_noglides","yes","no","sans","no","20","no","black","no","Weiter","yes","768","legacy","19","9","0","/Users/aviadalbert/Documents/Academisch/UoC/Dissertation/Experiment/OpenSesame/NAP-FC/NAP_GER_AA_4blocks_noglides/subject-16.csv","xpyriment","Jazzy James","3.1.9","yes","yes","59a800d99ad5a1025d81bb03","59a801616c613b0251691de0","no","no","0","j","f","space","NA","space","space","j","681","1909","15485","NA","16948","10773","681","2","legacy","1024","1","44100","-16","experiment","sefal","2","0","1","None","1","english","16","","even","7441891","7425900","NA","NA","7443801","7441887","NA","6944985","7441443","6944985","6944985","7358451","7375404","7506602","7505098","7507285","7395698","7386462","7425900","NA","7330753","7349671","7424241","7386247","7441891","7386465","NA","7506602","7506602","7483000","7482998","7505094","NAP perception","13","26887","20","yes","1024"
"61.9047619048","yes","61.9047619048","1320.0952381","1320.0952381","white","no","xpyriment","Ich habe die obigen Informationen gelesen und verstanden.","legacy","legacy","0","uniform","0","0","0","undefined","undefined","0","f","2","1","NA","0","1","0","0","0","0","0","0","0","0","30","30","30","0","0","0","NA","0","0","2","0","0","0","2","30","30","30","30","30","Wed Oct 25 11:46:51 2017","Forced-choice identification task with a practice and an experimental phase","yes","NAP_GER_AA_4blocks_noglides.osexp","/Users/aviadalbert/Documents/Academisch/UoC/Dissertation/Experiment/OpenSesame/NAP-FC/NAP_GER_AA_4blocks_noglides","yes","no","sans","no","20","no","black","no","Weiter","yes","768","legacy","20","9","0","/Users/aviadalbert/Documents/Academisch/UoC/Dissertation/Experiment/OpenSesame/NAP-FC/NAP_GER_AA_4blocks_noglides/subject-16.csv","xpyriment","Jazzy James","3.1.9","yes","yes","59a800d99ad5a1025d81bb03","59a801616c613b0251691de0","no","no","0","j","f","space","NA","space","space","j","835","1909","15485","NA","16948","10773","835","2","legacy","1024","1","44100","-16","experiment","vzal","2","0","1","None","1","english","16","","even","7441891","7425900","NA","NA","7443801","7441887","NA","6944985","7441443","6944985","6944985","7358451","7375404","7509057","7507551","7509893","7395698","7386462","7425900","NA","7330753","7349671","7424241","7386247","7441891","7386465","NA","7509057","7509057","7483000","7482998","7507547","NAP perception","13","27722","21","yes","1024"
"59.0909090909","yes","59.0909090909","1298.5","1298.5","white","no","xpyriment","Ich habe die obigen Informationen gelesen und verstanden.","legacy","legacy","0","uniform","0","0","0","undefined","undefined","0","f","2","1","NA","0","1","0","0","0","0","0","0","0","0","31","31","31","0","0","0","NA","0","0","2","0","0","0","2","31","31","31","31","31","Wed Oct 25 11:46:51 2017","Forced-choice identification task with a practice and an experimental phase","yes","NAP_GER_AA_4blocks_noglides.osexp","/Users/aviadalbert/Documents/Academisch/UoC/Dissertation/Experiment/OpenSesame/NAP-FC/NAP_GER_AA_4blocks_noglides","yes","no","sans","no","20","no","black","no","Weiter","yes","768","legacy","21","9","0","/Users/aviadalbert/Documents/Academisch/UoC/Dissertation/Experiment/OpenSesame/NAP-FC/NAP_GER_AA_4blocks_noglides/subject-16.csv","xpyriment","Jazzy James","3.1.9","yes","yes","59a800d99ad5a1025d81bb03","59a801616c613b0251691de0","no","no","0","j","f","space","NA","space","space","j","845","1909","15485","NA","16948","10773","845","2","legacy","1024","1","44100","-16","experiment","zmal","2","0","1","None","1","english","16","","even","7441891","7425900","NA","NA","7443801","7441887","NA","6944985","7441443","6944985","6944985","7358451","7375404","7511670","7510165","7512516","7395698","7386462","7425900","NA","7330753","7349671","7424241","7386247","7441891","7386465","NA","7511670","7511670","7483000","7482998","7510161","NAP perception","13","28567","22","yes","1024"
"56.5217391304","yes","56.5217391304","1288.30434783","1288.30434783","white","no","xpyriment","Ich habe die obigen Informationen gelesen und verstanden.","legacy","legacy","0","uniform","0","0","0","undefined","undefined","0","j","2","1","NA","0","1","0","0","0","0","0","0","0","0","32","32","32","0","0","0","NA","0","0","2","0","0","0","2","32","32","32","32","32","Wed Oct 25 11:46:51 2017","Forced-choice identification task with a practice and an experimental phase","yes","NAP_GER_AA_4blocks_noglides.osexp","/Users/aviadalbert/Documents/Academisch/UoC/Dissertation/Experiment/OpenSesame/NAP-FC/NAP_GER_AA_4blocks_noglides","yes","no","sans","no","20","no","black","no","Weiter","yes","768","legacy","22","9","0","/Users/aviadalbert/Documents/Academisch/UoC/Dissertation/Experiment/OpenSesame/NAP-FC/NAP_GER_AA_4blocks_noglides/subject-16.csv","xpyriment","Jazzy James","3.1.9","yes","yes","59a800d99ad5a1025d81bb03","59a801616c613b0251691de0","no","no","0","f","f","space","NA","space","space","f","1064","1909","15485","NA","16948","10773","1064","2","legacy","1024","1","44100","-16","experiment","mezal","2","0","1","None","1","english","16","","even","7441891","7425900","NA","NA","7443801","7441887","NA","6944985","7441443","6944985","6944985","7358451","7375404","7514285","7512782","7515350","7395698","7386462","7425900","NA","7330753","7349671","7424241","7386247","7441891","7386465","NA","7514285","7514285","7483000","7482998","7512778","NAP perception","13","29631","23","yes","1024"
"58.3333333333","yes","58.3333333333","1278.375","1278.375","white","no","xpyriment","Ich habe die obigen Informationen gelesen und verstanden.","legacy","legacy","0","uniform","1","0","0","undefined","undefined","1","f","2","1","NA","0","1","0","0","0","0","0","0","0","0","33","33","33","0","0","0","NA","0","0","2","0","0","0","2","33","33","33","33","33","Wed Oct 25 11:46:51 2017","Forced-choice identification task with a practice and an experimental phase","yes","NAP_GER_AA_4blocks_noglides.osexp","/Users/aviadalbert/Documents/Academisch/UoC/Dissertation/Experiment/OpenSesame/NAP-FC/NAP_GER_AA_4blocks_noglides","yes","no","sans","no","20","no","black","no","Weiter","yes","768","legacy","23","9","0","/Users/aviadalbert/Documents/Academisch/UoC/Dissertation/Experiment/OpenSesame/NAP-FC/NAP_GER_AA_4blocks_noglides/subject-16.csv","xpyriment","Jazzy James","3.1.9","yes","yes","59a800d99ad5a1025d81bb03","59a801616c613b0251691de0","no","no","0","f","f","space","NA","space","space","f","1050","1909","15485","NA","16948","10773","1050","2","legacy","1024","1","44100","-16","experiment","zmal","2","0","1","None","1","english","16","","even","7441891","7425900","NA","NA","7443801","7441887","NA","6944985","7441443","6944985","6944985","7358451","7375404","7517135","7515631","7518186","7395698","7386462","7425900","NA","7330753","7349671","7424241","7386247","7441891","7386465","NA","7517134","7517135","7483000","7482998","7515627","NAP perception","14","30681","24","yes","1024"
"60","yes","60","1258.8","1258.8","white","no","xpyriment","Ich habe die obigen Informationen gelesen und verstanden.","legacy","legacy","0","uniform","1","0","0","undefined","undefined","1","j","2","1","NA","0","1","0","0","0","0","0","0","0","0","34","34","34","0","0","0","NA","0","0","2","0","0","0","2","34","34","34","34","34","Wed Oct 25 11:46:51 2017","Forced-choice identification task with a practice and an experimental phase","yes","NAP_GER_AA_4blocks_noglides.osexp","/Users/aviadalbert/Documents/Academisch/UoC/Dissertation/Experiment/OpenSesame/NAP-FC/NAP_GER_AA_4blocks_noglides","yes","no","sans","no","20","no","black","no","Weiter","yes","768","legacy","24","9","0","/Users/aviadalbert/Documents/Academisch/UoC/Dissertation/Experiment/OpenSesame/NAP-FC/NAP_GER_AA_4blocks_noglides/subject-16.csv","xpyriment","Jazzy James","3.1.9","yes","yes","59a800d99ad5a1025d81bb03","59a801616c613b0251691de0","no","no","0","j","f","space","NA","space","space","j","789","1909","15485","NA","16948","10773","789","2","legacy","1024","1","44100","-16","experiment","zeval","2","0","1","None","1","english","16","","even","7441891","7425900","NA","NA","7443801","7441887","NA","6944985","7441443","6944985","6944985","7358451","7375404","7519975","7518471","7520765","7395698","7386462","7425900","NA","7330753","7349671","7424241","7386247","7441891","7386465","NA","7519975","7519975","7483000","7482998","7518466","NAP perception","15","31470","25","yes","1024"
"61.5384615385","yes","61.5384615385","1257","1257","white","no","xpyriment","Ich habe die obigen Informationen gelesen und verstanden.","legacy","legacy","0","uniform","1","0","0","undefined","undefined","1","j","2","1","NA","0","1","0","0","0","0","0","0","0","0","35","35","35","0","0","0","NA","0","0","2","0","0","0","2","35","35","35","35","35","Wed Oct 25 11:46:51 2017","Forced-choice identification task with a practice and an experimental phase","yes","NAP_GER_AA_4blocks_noglides.osexp","/Users/aviadalbert/Documents/Academisch/UoC/Dissertation/Experiment/OpenSesame/NAP-FC/NAP_GER_AA_4blocks_noglides","yes","no","sans","no","20","no","black","no","Weiter","yes","768","legacy","25","9","0","/Users/aviadalbert/Documents/Academisch/UoC/Dissertation/Experiment/OpenSesame/NAP-FC/NAP_GER_AA_4blocks_noglides/subject-16.csv","xpyriment","Jazzy James","3.1.9","yes","yes","59a800d99ad5a1025d81bb03","59a801616c613b0251691de0","no","no","0","j","f","space","NA","space","space","j","1212","1909","15485","NA","16948","10773","1212","2","legacy","1024","1","44100","-16","experiment","evlal","2","0","1","None","1","english","16","","even","7441891","7425900","NA","NA","7443801","7441887","NA","6944985","7441443","6944985","6944985","7358451","7375404","7522549","7521042","7523762","7395698","7386462","7425900","NA","7330753","7349671","7424241","7386247","7441891","7386465","NA","7522549","7522549","7483000","7482998","7521038","NAP perception","16","32682","26","yes","1024"
"62.962962963","yes","62.962962963","1247.92592593","1247.92592593","white","no","xpyriment","Ich habe die obigen Informationen gelesen und verstanden.","legacy","legacy","0","uniform","1","0","0","undefined","undefined","1","j","2","1","NA","0","1","0","0","0","0","0","0","0","0","36","36","36","0","0","0","NA","0","0","2","0","0","0","2","36","36","36","36","36","Wed Oct 25 11:46:51 2017","Forced-choice identification task with a practice and an experimental phase","yes","NAP_GER_AA_4blocks_noglides.osexp","/Users/aviadalbert/Documents/Academisch/UoC/Dissertation/Experiment/OpenSesame/NAP-FC/NAP_GER_AA_4blocks_noglides","yes","no","sans","no","20","no","black","no","Weiter","yes","768","legacy","26","9","0","/Users/aviadalbert/Documents/Academisch/UoC/Dissertation/Experiment/OpenSesame/NAP-FC/NAP_GER_AA_4blocks_noglides/subject-16.csv","xpyriment","Jazzy James","3.1.9","yes","yes","59a800d99ad5a1025d81bb03","59a801616c613b0251691de0","no","no","0","j","f","space","NA","space","space","j","1012","1909","15485","NA","16948","10773","1012","2","legacy","1024","1","44100","-16","experiment","elfal","2","0","1","None","1","english","16","","even","7441891","7425900","NA","NA","7443801","7441887","NA","6944985","7441443","6944985","6944985","7358451","7375404","7525545","7524038","7526559","7395698","7386462","7425900","NA","7330753","7349671","7424241","7386247","7441891","7386465","NA","7525545","7525545","7483000","7482998","7524034","NAP perception","17","33694","27","yes","1024"
"60.7142857143","yes","60.7142857143","1249.92857143","1249.92857143","white","no","xpyriment","Ich habe die obigen Informationen gelesen und verstanden.","legacy","legacy","0","uniform","0","0","0","undefined","undefined","0","f","2","1","NA","0","1","0","0","0","0","0","0","0","0","37","37","37","0","0","0","NA","0","0","2","0","0","0","2","37","37","37","37","37","Wed Oct 25 11:46:51 2017","Forced-choice identification task with a practice and an experimental phase","yes","NAP_GER_AA_4blocks_noglides.osexp","/Users/aviadalbert/Documents/Academisch/UoC/Dissertation/Experiment/OpenSesame/NAP-FC/NAP_GER_AA_4blocks_noglides","yes","no","sans","no","20","no","black","no","Weiter","yes","768","legacy","27","9","0","/Users/aviadalbert/Documents/Academisch/UoC/Dissertation/Experiment/OpenSesame/NAP-FC/NAP_GER_AA_4blocks_noglides/subject-16.csv","xpyriment","Jazzy James","3.1.9","yes","yes","59a800d99ad5a1025d81bb03","59a801616c613b0251691de0","no","no","0","j","f","space","NA","space","space","j","1304","1909","15485","NA","16948","10773","1304","2","legacy","1024","1","44100","-16","experiment","lpal","2","0","1","None","1","english","16","","even","7441891","7425900","NA","NA","7443801","7441887","NA","6944985","7441443","6944985","6944985","7358451","7375404","7528334","7526830","7529639","7395698","7386462","7425900","NA","7330753","7349671","7424241","7386247","7441891","7386465","NA","7528333","7528333","7483000","7482998","7526826","NAP perception","17","34998","28","yes","1024"
"62.0689655172","yes","62.0689655172","1241.55172414","1241.55172414","white","no","xpyriment","Ich habe die obigen Informationen gelesen und verstanden.","legacy","legacy","0","uniform","1","0","0","undefined","undefined","1","j","2","1","NA","0","1","0","0","0","0","0","0","0","0","38","38","38","0","0","0","NA","0","0","2","0","0","0","2","38","38","38","38","38","Wed Oct 25 11:46:51 2017","Forced-choice identification task with a practice and an experimental phase","yes","NAP_GER_AA_4blocks_noglides.osexp","/Users/aviadalbert/Documents/Academisch/UoC/Dissertation/Experiment/OpenSesame/NAP-FC/NAP_GER_AA_4blocks_noglides","yes","no","sans","no","20","no","black","no","Weiter","yes","768","legacy","28","9","0","/Users/aviadalbert/Documents/Academisch/UoC/Dissertation/Experiment/OpenSesame/NAP-FC/NAP_GER_AA_4blocks_noglides/subject-16.csv","xpyriment","Jazzy James","3.1.9","yes","yes","59a800d99ad5a1025d81bb03","59a801616c613b0251691de0","no","no","0","j","f","space","NA","space","space","j","1007","1909","15485","NA","16948","10773","1007","2","legacy","1024","1","44100","-16","experiment","felal","2","0","1","None","1","english","16","","even","7441891","7425900","NA","NA","7443801","7441887","NA","6944985","7441443","6944985","6944985","7358451","7375404","7531408","7529904","7532416","7395698","7386462","7425900","NA","7330753","7349671","7424241","7386247","7441891","7386465","NA","7531407","7531407","7483000","7482998","7529900","NAP perception","18","36005","29","yes","1024"
"63.3333333333","yes","63.3333333333","1230.7","1230.7","white","no","xpyriment","Ich habe die obigen Informationen gelesen und verstanden.","legacy","legacy","0","uniform","1","0","0","undefined","undefined","1","j","2","1","NA","0","1","0","0","0","0","0","0","0","0","39","39","39","0","0","0","NA","0","0","2","0","0","0","2","39","39","39","39","39","Wed Oct 25 11:46:51 2017","Forced-choice identification task with a practice and an experimental phase","yes","NAP_GER_AA_4blocks_noglides.osexp","/Users/aviadalbert/Documents/Academisch/UoC/Dissertation/Experiment/OpenSesame/NAP-FC/NAP_GER_AA_4blocks_noglides","yes","no","sans","no","20","no","black","no","Weiter","yes","768","legacy","29","9","0","/Users/aviadalbert/Documents/Academisch/UoC/Dissertation/Experiment/OpenSesame/NAP-FC/NAP_GER_AA_4blocks_noglides/subject-16.csv","xpyriment","Jazzy James","3.1.9","yes","yes","59a800d99ad5a1025d81bb03","59a801616c613b0251691de0","no","no","0","j","f","space","NA","space","space","j","916","1909","15485","NA","16948","10773","916","2","legacy","1024","1","44100","-16","experiment","espal","2","0","1","None","1","english","16","","even","7441891","7425900","NA","NA","7443801","7441887","NA","6944985","7441443","6944985","6944985","7358451","7375404","7534186","7532683","7535103","7395698","7386462","7425900","NA","7330753","7349671","7424241","7386247","7441891","7386465","NA","7534186","7534186","7483000","7482998","7532680","NAP perception","19","36921","30","yes","1024"
"64.5161290323","yes","64.5161290323","1212.83870968","1212.83870968","white","no","xpyriment","Ich habe die obigen Informationen gelesen und verstanden.","legacy","legacy","0","uniform","1","0","0","undefined","undefined","1","f","2","1","NA","0","1","0","0","0","0","0","0","0","0","40","40","40","0","0","0","NA","0","0","2","0","0","0","2","40","40","40","40","40","Wed Oct 25 11:46:51 2017","Forced-choice identification task with a practice and an experimental phase","yes","NAP_GER_AA_4blocks_noglides.osexp","/Users/aviadalbert/Documents/Academisch/UoC/Dissertation/Experiment/OpenSesame/NAP-FC/NAP_GER_AA_4blocks_noglides","yes","no","sans","no","20","no","black","no","Weiter","yes","768","legacy","30","9","0","/Users/aviadalbert/Documents/Academisch/UoC/Dissertation/Experiment/OpenSesame/NAP-FC/NAP_GER_AA_4blocks_noglides/subject-16.csv","xpyriment","Jazzy James","3.1.9","yes","yes","59a800d99ad5a1025d81bb03","59a801616c613b0251691de0","no","no","0","f","f","space","NA","space","space","f","677","1909","15485","NA","16948","10773","677","2","legacy","1024","1","44100","-16","experiment","vlal","2","0","1","None","1","english","16","","even","7441891","7425900","NA","NA","7443801","7441887","NA","6944985","7441443","6944985","6944985","7358451","7375404","7536890","7535385","7537568","7395698","7386462","7425900","NA","7330753","7349671","7424241","7386247","7441891","7386465","NA","7536889","7536889","7483000","7482998","7535382","NAP perception","20","37598","31","yes","1024"
"65.625","yes","65.625","1199.5","1199.5","white","no","xpyriment","Ich habe die obigen Informationen gelesen und verstanden.","legacy","legacy","0","uniform","1","0","0","undefined","undefined","1","j","2","1","NA","0","1","0","0","0","0","0","0","0","0","41","41","41","0","0","0","NA","0","0","2","0","0","0","2","41","41","41","41","41","Wed Oct 25 11:46:51 2017","Forced-choice identification task with a practice and an experimental phase","yes","NAP_GER_AA_4blocks_noglides.osexp","/Users/aviadalbert/Documents/Academisch/UoC/Dissertation/Experiment/OpenSesame/NAP-FC/NAP_GER_AA_4blocks_noglides","yes","no","sans","no","20","no","black","no","Weiter","yes","768","legacy","31","9","0","/Users/aviadalbert/Documents/Academisch/UoC/Dissertation/Experiment/OpenSesame/NAP-FC/NAP_GER_AA_4blocks_noglides/subject-16.csv","xpyriment","Jazzy James","3.1.9","yes","yes","59a800d99ad5a1025d81bb03","59a801616c613b0251691de0","no","no","0","j","f","space","NA","space","space","j","786","1909","15485","NA","16948","10773","786","2","legacy","1024","1","44100","-16","experiment","leval","2","0","1","None","1","english","16","","even","7441891","7425900","NA","NA","7443801","7441887","NA","6944985","7441443","6944985","6944985","7358451","7375404","7539338","7537832","7540125","7395698","7386462","7425900","NA","7330753","7349671","7424241","7386247","7441891","7386465","NA","7539338","7539338","7483000","7482998","7537828","NAP perception","21","38384","32","yes","1024"
"66.6666666667","yes","66.6666666667","1185.36363636","1185.36363636","white","no","xpyriment","Ich habe die obigen Informationen gelesen und verstanden.","legacy","legacy","0","uniform","1","0","0","undefined","undefined","1","j","2","1","NA","0","1","0","0","0","0","0","0","0","0","42","42","42","0","0","0","NA","0","0","2","0","0","0","2","42","42","42","42","42","Wed Oct 25 11:46:51 2017","Forced-choice identification task with a practice and an experimental phase","yes","NAP_GER_AA_4blocks_noglides.osexp","/Users/aviadalbert/Documents/Academisch/UoC/Dissertation/Experiment/OpenSesame/NAP-FC/NAP_GER_AA_4blocks_noglides","yes","no","sans","no","20","no","black","no","Weiter","yes","768","legacy","32","9","0","/Users/aviadalbert/Documents/Academisch/UoC/Dissertation/Experiment/OpenSesame/NAP-FC/NAP_GER_AA_4blocks_noglides/subject-16.csv","xpyriment","Jazzy James","3.1.9","yes","yes","59a800d99ad5a1025d81bb03","59a801616c613b0251691de0","no","no","0","j","f","space","NA","space","space","j","733","1909","15485","NA","16948","10773","733","2","legacy","1024","1","44100","-16","experiment","efnal","2","0","1","None","1","english","16","","even","7441891","7425900","NA","NA","7443801","7441887","NA","6944985","7441443","6944985","6944985","7358451","7375404","7541904","7540398","7542638","7395698","7386462","7425900","NA","7330753","7349671","7424241","7386247","7441891","7386465","NA","7541904","7541904","7483000","7482998","7540394","NAP perception","22","39117","33","yes","1024"
"64.7058823529","yes","64.7058823529","1174.55882353","1174.55882353","white","no","xpyriment","Ich habe die obigen Informationen gelesen und verstanden.","legacy","legacy","0","uniform","0","0","0","undefined","undefined","0","f","2","1","NA","0","1","0","0","0","0","0","0","0","0","43","43","43","0","0","0","NA","0","0","2","0","0","0","2","43","43","43","43","43","Wed Oct 25 11:46:51 2017","Forced-choice identification task with a practice and an experimental phase","yes","NAP_GER_AA_4blocks_noglides.osexp","/Users/aviadalbert/Documents/Academisch/UoC/Dissertation/Experiment/OpenSesame/NAP-FC/NAP_GER_AA_4blocks_noglides","yes","no","sans","no","20","no","black","no","Weiter","yes","768","legacy","33","9","0","/Users/aviadalbert/Documents/Academisch/UoC/Dissertation/Experiment/OpenSesame/NAP-FC/NAP_GER_AA_4blocks_noglides/subject-16.csv","xpyriment","Jazzy James","3.1.9","yes","yes","59a800d99ad5a1025d81bb03","59a801616c613b0251691de0","no","no","0","j","f","space","NA","space","space","j","818","1909","15485","NA","16948","10773","818","2","legacy","1024","1","44100","-16","experiment","lkal","2","0","1","None","1","english","16","","even","7441891","7425900","NA","NA","7443801","7441887","NA","6944985","7441443","6944985","6944985","7358451","7375404","7544412","7542909","7545232","7395698","7386462","7425900","NA","7330753","7349671","7424241","7386247","7441891","7386465","NA","7544412","7544412","7483000","7482998","7542905","NAP perception","22","39935","34","yes","1024"
"62.8571428571","yes","62.8571428571","1164.17142857","1164.17142857","white","no","xpyriment","Ich habe die obigen Informationen gelesen und verstanden.","legacy","legacy","0","uniform","0","0","0","undefined","undefined","0","f","2","1","NA","0","1","0","0","0","0","0","0","0","0","44","44","44","0","0","0","NA","0","0","2","0","0","0","2","44","44","44","44","44","Wed Oct 25 11:46:51 2017","Forced-choice identification task with a practice and an experimental phase","yes","NAP_GER_AA_4blocks_noglides.osexp","/Users/aviadalbert/Documents/Academisch/UoC/Dissertation/Experiment/OpenSesame/NAP-FC/NAP_GER_AA_4blocks_noglides","yes","no","sans","no","20","no","black","no","Weiter","yes","768","legacy","34","9","0","/Users/aviadalbert/Documents/Academisch/UoC/Dissertation/Experiment/OpenSesame/NAP-FC/NAP_GER_AA_4blocks_noglides/subject-16.csv","xpyriment","Jazzy James","3.1.9","yes","yes","59a800d99ad5a1025d81bb03","59a801616c613b0251691de0","no","no","0","j","f","space","NA","space","space","j","811","1909","15485","NA","16948","10773","811","2","legacy","1024","1","44100","-16","experiment","lpal","2","0","1","None","1","english","16","","even","7441891","7425900","NA","NA","7443801","7441887","NA","6944985","7441443","6944985","6944985","7358451","7375404","7547025","7545522","7547837","7395698","7386462","7425900","NA","7330753","7349671","7424241","7386247","7441891","7386465","NA","7547025","7547025","7483000","7482998","7545518","NAP perception","22","40746","35","yes","1024"
"63.8888888889","yes","63.8888888889","1154.94444444","1154.94444444","white","no","xpyriment","Ich habe die obigen Informationen gelesen und verstanden.","legacy","legacy","0","uniform","1","0","0","undefined","undefined","1","j","2","1","NA","0","1","0","0","0","0","0","0","0","0","45","45","45","0","0","0","NA","0","0","2","0","0","0","2","45","45","45","45","45","Wed Oct 25 11:46:51 2017","Forced-choice identification task with a practice and an experimental phase","yes","NAP_GER_AA_4blocks_noglides.osexp","/Users/aviadalbert/Documents/Academisch/UoC/Dissertation/Experiment/OpenSesame/NAP-FC/NAP_GER_AA_4blocks_noglides","yes","no","sans","no","20","no","black","no","Weiter","yes","768","legacy","35","9","0","/Users/aviadalbert/Documents/Academisch/UoC/Dissertation/Experiment/OpenSesame/NAP-FC/NAP_GER_AA_4blocks_noglides/subject-16.csv","xpyriment","Jazzy James","3.1.9","yes","yes","59a800d99ad5a1025d81bb03","59a801616c613b0251691de0","no","no","0","j","f","space","NA","space","space","j","832","1909","15485","NA","16948","10773","832","2","legacy","1024","1","44100","-16","experiment","ʃemal","2","0","1","None","1","english","16","","even","7441891","7425900","NA","NA","7443801","7441887","NA","6944985","7441443","6944985","6944985","7358451","7375404","7549626","7548120","7550459","7395698","7386462","7425900","NA","7330753","7349671","7424241","7386247","7441891","7386465","NA","7549625","7549625","7483000","7482998","7548116","NAP perception","23","41578","36","yes","1024"
"62.1621621622","yes","62.1621621622","1143.86486486","1143.86486486","white","no","xpyriment","Ich habe die obigen Informationen gelesen und verstanden.","legacy","legacy","0","uniform","0","0","0","undefined","undefined","0","f","2","1","NA","0","1","0","0","0","0","0","0","0","0","46","46","46","0","0","0","NA","0","0","2","0","0","0","2","46","46","46","46","46","Wed Oct 25 11:46:51 2017","Forced-choice identification task with a practice and an experimental phase","yes","NAP_GER_AA_4blocks_noglides.osexp","/Users/aviadalbert/Documents/Academisch/UoC/Dissertation/Experiment/OpenSesame/NAP-FC/NAP_GER_AA_4blocks_noglides","yes","no","sans","no","20","no","black","no","Weiter","yes","768","legacy","36","9","0","/Users/aviadalbert/Documents/Academisch/UoC/Dissertation/Experiment/OpenSesame/NAP-FC/NAP_GER_AA_4blocks_noglides/subject-16.csv","xpyriment","Jazzy James","3.1.9","yes","yes","59a800d99ad5a1025d81bb03","59a801616c613b0251691de0","no","no","0","j","f","space","NA","space","space","j","745","1909","15485","NA","16948","10773","745","2","legacy","1024","1","44100","-16","experiment","mzal","2","0","1","None","1","english","16","","even","7441891","7425900","NA","NA","7443801","7441887","NA","6944985","7441443","6944985","6944985","7358451","7375404","7552242","7550739","7552988","7395698","7386462","7425900","NA","7330753","7349671","7424241","7386247","7441891","7386465","NA","7552242","7552242","7483000","7482998","7550735","NAP perception","23","42323","37","yes","1024"
"63.1578947368","yes","63.1578947368","1142.26315789","1142.26315789","white","no","xpyriment","Ich habe die obigen Informationen gelesen und verstanden.","legacy","legacy","0","uniform","1","0","0","undefined","undefined","1","j","2","1","NA","0","1","0","0","0","0","0","0","0","0","47","47","47","0","0","0","NA","0","0","2","0","0","0","2","47","47","47","47","47","Wed Oct 25 11:46:51 2017","Forced-choice identification task with a practice and an experimental phase","yes","NAP_GER_AA_4blocks_noglides.osexp","/Users/aviadalbert/Documents/Academisch/UoC/Dissertation/Experiment/OpenSesame/NAP-FC/NAP_GER_AA_4blocks_noglides","yes","no","sans","no","20","no","black","no","Weiter","yes","768","legacy","37","9","0","/Users/aviadalbert/Documents/Academisch/UoC/Dissertation/Experiment/OpenSesame/NAP-FC/NAP_GER_AA_4blocks_noglides/subject-16.csv","xpyriment","Jazzy James","3.1.9","yes","yes","59a800d99ad5a1025d81bb03","59a801616c613b0251691de0","no","no","0","j","f","space","NA","space","space","j","1083","1909","15485","NA","16948","10773","1083","2","legacy","1024","1","44100","-16","experiment","vezal","2","0","1","None","1","english","16","","even","7441891","7425900","NA","NA","7443801","7441887","NA","6944985","7441443","6944985","6944985","7358451","7375404","7554757","7553254","7555841","7395698","7386462","7425900","NA","7330753","7349671","7424241","7386247","7441891","7386465","NA","7554757","7554757","7483000","7482998","7553250","NAP perception","24","43406","38","yes","1024"
"64.1025641026","yes","64.1025641026","1137.23076923","1137.23076923","white","no","xpyriment","Ich habe die obigen Informationen gelesen und verstanden.","legacy","legacy","0","uniform","1","0","0","undefined","undefined","1","f","2","1","NA","0","1","0","0","0","0","0","0","0","0","48","48","48","0","0","0","NA","0","0","2","0","0","0","2","48","48","48","48","48","Wed Oct 25 11:46:51 2017","Forced-choice identification task with a practice and an experimental phase","yes","NAP_GER_AA_4blocks_noglides.osexp","/Users/aviadalbert/Documents/Academisch/UoC/Dissertation/Experiment/OpenSesame/NAP-FC/NAP_GER_AA_4blocks_noglides","yes","no","sans","no","20","no","black","no","Weiter","yes","768","legacy","38","9","0","/Users/aviadalbert/Documents/Academisch/UoC/Dissertation/Experiment/OpenSesame/NAP-FC/NAP_GER_AA_4blocks_noglides/subject-16.csv","xpyriment","Jazzy James","3.1.9","yes","yes","59a800d99ad5a1025d81bb03","59a801616c613b0251691de0","no","no","0","f","f","space","NA","space","space","f","946","1909","15485","NA","16948","10773","946","2","legacy","1024","1","44100","-16","experiment","fsal","2","0","1","None","1","english","16","","even","7441891","7425900","NA","NA","7443801","7441887","NA","6944985","7441443","6944985","6944985","7358451","7375404","7557631","7556126","7558578","7395698","7386462","7425900","NA","7330753","7349671","7424241","7386247","7441891","7386465","NA","7557631","7557631","7483000","7482998","7556122","NAP perception","25","44352","39","yes","1024"
"65","yes","65","1127.075","1127.075","white","no","xpyriment","Ich habe die obigen Informationen gelesen und verstanden.","legacy","legacy","0","uniform","1","0","0","undefined","undefined","1","j","2","1","NA","0","1","0","0","0","0","0","0","0","0","49","49","49","0","0","0","NA","0","0","2","0","0","0","2","49","49","49","49","49","Wed Oct 25 11:46:51 2017","Forced-choice identification task with a practice and an experimental phase","yes","NAP_GER_AA_4blocks_noglides.osexp","/Users/aviadalbert/Documents/Academisch/UoC/Dissertation/Experiment/OpenSesame/NAP-FC/NAP_GER_AA_4blocks_noglides","yes","no","sans","no","20","no","black","no","Weiter","yes","768","legacy","39","9","0","/Users/aviadalbert/Documents/Academisch/UoC/Dissertation/Experiment/OpenSesame/NAP-FC/NAP_GER_AA_4blocks_noglides/subject-16.csv","xpyriment","Jazzy James","3.1.9","yes","yes","59a800d99ad5a1025d81bb03","59a801616c613b0251691de0","no","no","0","j","f","space","NA","space","space","j","731","1909","15485","NA","16948","10773","731","2","legacy","1024","1","44100","-16","experiment","efsal","2","0","1","None","1","english","16","","even","7441891","7425900","NA","NA","7443801","7441887","NA","6944985","7441443","6944985","6944985","7358451","7375404","7560353","7558848","7561085","7395698","7386462","7425900","NA","7330753","7349671","7424241","7386247","7441891","7386465","NA","7560353","7560353","7483000","7482998","7558844","NAP perception","26","45083","40","yes","1024"
"65.8536585366","yes","65.8536585366","1120.17073171","1120.17073171","white","no","xpyriment","Ich habe die obigen Informationen gelesen und verstanden.","legacy","legacy","0","uniform","1","0","0","undefined","undefined","1","j","2","1","NA","0","1","0","0","0","0","0","0","0","0","50","50","50","0","0","0","NA","0","0","2","0","0","0","2","50","50","50","50","50","Wed Oct 25 11:46:51 2017","Forced-choice identification task with a practice and an experimental phase","yes","NAP_GER_AA_4blocks_noglides.osexp","/Users/aviadalbert/Documents/Academisch/UoC/Dissertation/Experiment/OpenSesame/NAP-FC/NAP_GER_AA_4blocks_noglides","yes","no","sans","no","20","no","black","no","Weiter","yes","768","legacy","40","9","0","/Users/aviadalbert/Documents/Academisch/UoC/Dissertation/Experiment/OpenSesame/NAP-FC/NAP_GER_AA_4blocks_noglides/subject-16.csv","xpyriment","Jazzy James","3.1.9","yes","yes","59a800d99ad5a1025d81bb03","59a801616c613b0251691de0","no","no","0","j","f","space","NA","space","space","j","844","1909","15485","NA","16948","10773","844","2","legacy","1024","1","44100","-16","experiment","metal","2","0","1","None","1","english","16","","even","7441891","7425900","NA","NA","7443801","7441887","NA","6944985","7441443","6944985","6944985","7358451","7375404","7562864","7561359","7563709","7395698","7386462","7425900","NA","7330753","7349671","7424241","7386247","7441891","7386465","NA","7562864","7562864","7483000","7482998","7561355","NAP perception","27","45927","41","yes","1024"
"66.6666666667","yes","66.6666666667","1108.5","1108.5","white","no","xpyriment","Ich habe die obigen Informationen gelesen und verstanden.","legacy","legacy","0","uniform","1","0","0","undefined","undefined","1","j","2","1","NA","0","1","0","0","0","0","0","0","0","0","51","51","51","0","0","0","NA","0","0","2","0","0","0","2","51","51","51","51","51","Wed Oct 25 11:46:51 2017","Forced-choice identification task with a practice and an experimental phase","yes","NAP_GER_AA_4blocks_noglides.osexp","/Users/aviadalbert/Documents/Academisch/UoC/Dissertation/Experiment/OpenSesame/NAP-FC/NAP_GER_AA_4blocks_noglides","yes","no","sans","no","20","no","black","no","Weiter","yes","768","legacy","41","9","0","/Users/aviadalbert/Documents/Academisch/UoC/Dissertation/Experiment/OpenSesame/NAP-FC/NAP_GER_AA_4blocks_noglides/subject-16.csv","xpyriment","Jazzy James","3.1.9","yes","yes","59a800d99ad5a1025d81bb03","59a801616c613b0251691de0","no","no","0","j","f","space","NA","space","space","j","630","1909","15485","NA","16948","10773","630","2","legacy","1024","1","44100","-16","experiment","menal","2","0","1","None","1","english","16","","even","7441891","7425900","NA","NA","7443801","7441887","NA","6944985","7441443","6944985","6944985","7358451","7375404","7565497","7563992","7566128","7395698","7386462","7425900","NA","7330753","7349671","7424241","7386247","7441891","7386465","NA","7565497","7565497","7483000","7482998","7563988","NAP perception","28","46557","42","yes","1024"
"67.4418604651","yes","67.4418604651","1101.6744186","1101.6744186","white","no","xpyriment","Ich habe die obigen Informationen gelesen und verstanden.","legacy","legacy","0","uniform","1","0","0","undefined","undefined","1","j","2","1","NA","0","1","0","0","0","0","0","0","0","0","52","52","52","0","0","0","NA","0","0","2","0","0","0","2","52","52","52","52","52","Wed Oct 25 11:46:51 2017","Forced-choice identification task with a practice and an experimental phase","yes","NAP_GER_AA_4blocks_noglides.osexp","/Users/aviadalbert/Documents/Academisch/UoC/Dissertation/Experiment/OpenSesame/NAP-FC/NAP_GER_AA_4blocks_noglides","yes","no","sans","no","20","no","black","no","Weiter","yes","768","legacy","42","9","0","/Users/aviadalbert/Documents/Academisch/UoC/Dissertation/Experiment/OpenSesame/NAP-FC/NAP_GER_AA_4blocks_noglides/subject-16.csv","xpyriment","Jazzy James","3.1.9","yes","yes","59a800d99ad5a1025d81bb03","59a801616c613b0251691de0","no","no","0","j","f","space","NA","space","space","j","815","1909","15485","NA","16948","10773","815","2","legacy","1024","1","44100","-16","experiment","elkal","2","0","1","None","1","english","16","","even","7441891","7425900","NA","NA","7443801","7441887","NA","6944985","7441443","6944985","6944985","7358451","7375404","7567900","7566392","7568717","7395698","7386462","7425900","NA","7330753","7349671","7424241","7386247","7441891","7386465","NA","7567900","7567900","7483000","7482998","7566388","NAP perception","29","47372","43","yes","1024"
"65.9090909091","yes","65.9090909091","1093.02272727","1093.02272727","white","no","xpyriment","Ich habe die obigen Informationen gelesen und verstanden.","legacy","legacy","0","uniform","0","0","0","undefined","undefined","0","f","2","1","NA","0","1","0","0","0","0","0","0","0","0","53","53","53","0","0","0","NA","0","0","2","0","0","0","2","53","53","53","53","53","Wed Oct 25 11:46:51 2017","Forced-choice identification task with a practice and an experimental phase","yes","NAP_GER_AA_4blocks_noglides.osexp","/Users/aviadalbert/Documents/Academisch/UoC/Dissertation/Experiment/OpenSesame/NAP-FC/NAP_GER_AA_4blocks_noglides","yes","no","sans","no","20","no","black","no","Weiter","yes","768","legacy","43","9","0","/Users/aviadalbert/Documents/Academisch/UoC/Dissertation/Experiment/OpenSesame/NAP-FC/NAP_GER_AA_4blocks_noglides/subject-16.csv","xpyriment","Jazzy James","3.1.9","yes","yes","59a800d99ad5a1025d81bb03","59a801616c613b0251691de0","no","no","0","j","f","space","NA","space","space","j","721","1909","15485","NA","16948","10773","721","2","legacy","1024","1","44100","-16","experiment","mnal","2","0","1","None","1","english","16","","even","7441891","7425900","NA","NA","7443801","7441887","NA","6944985","7441443","6944985","6944985","7358451","7375404","7570478","7568975","7571200","7395698","7386462","7425900","NA","7330753","7349671","7424241","7386247","7441891","7386465","NA","7570478","7570478","7483000","7482998","7568971","NAP perception","29","48093","44","yes","1024"
"66.6666666667","yes","66.6666666667","1085.13333333","1085.13333333","white","no","xpyriment","Ich habe die obigen Informationen gelesen und verstanden.","legacy","legacy","0","uniform","1","0","0","undefined","undefined","1","j","2","1","NA","0","1","0","0","0","0","0","0","0","0","54","54","54","0","0","0","NA","0","0","2","0","0","0","2","54","54","54","54","54","Wed Oct 25 11:46:51 2017","Forced-choice identification task with a practice and an experimental phase","yes","NAP_GER_AA_4blocks_noglides.osexp","/Users/aviadalbert/Documents/Academisch/UoC/Dissertation/Experiment/OpenSesame/NAP-FC/NAP_GER_AA_4blocks_noglides","yes","no","sans","no","20","no","black","no","Weiter","yes","768","legacy","44","9","0","/Users/aviadalbert/Documents/Academisch/UoC/Dissertation/Experiment/OpenSesame/NAP-FC/NAP_GER_AA_4blocks_noglides/subject-16.csv","xpyriment","Jazzy James","3.1.9","yes","yes","59a800d99ad5a1025d81bb03","59a801616c613b0251691de0","no","no","0","j","f","space","NA","space","space","j","738","1909","15485","NA","16948","10773","738","2","legacy","1024","1","44100","-16","experiment","elmal","2","0","1","None","1","english","16","","even","7441891","7425900","NA","NA","7443801","7441887","NA","6944985","7441443","6944985","6944985","7358451","7375404","7572976","7571473","7573715","7395698","7386462","7425900","NA","7330753","7349671","7424241","7386247","7441891","7386465","NA","7572976","7572976","7483000","7482998","7571468","NAP perception","30","48831","45","yes","1024"
"65.2173913043","yes","65.2173913043","1081.67391304","1081.67391304","white","no","xpyriment","Ich habe die obigen Informationen gelesen und verstanden.","legacy","legacy","0","uniform","0","0","0","undefined","undefined","0","f","2","1","NA","0","1","0","0","0","0","0","0","0","0","55","55","55","0","0","0","NA","0","0","2","0","0","0","2","55","55","55","55","55","Wed Oct 25 11:46:51 2017","Forced-choice identification task with a practice and an experimental phase","yes","NAP_GER_AA_4blocks_noglides.osexp","/Users/aviadalbert/Documents/Academisch/UoC/Dissertation/Experiment/OpenSesame/NAP-FC/NAP_GER_AA_4blocks_noglides","yes","no","sans","no","20","no","black","no","Weiter","yes","768","legacy","45","9","0","/Users/aviadalbert/Documents/Academisch/UoC/Dissertation/Experiment/OpenSesame/NAP-FC/NAP_GER_AA_4blocks_noglides/subject-16.csv","xpyriment","Jazzy James","3.1.9","yes","yes","59a800d99ad5a1025d81bb03","59a801616c613b0251691de0","no","no","0","j","f","space","NA","space","space","j","926","1909","15485","NA","16948","10773","926","2","legacy","1024","1","44100","-16","experiment","sfal","2","0","1","None","1","english","16","","even","7441891","7425900","NA","NA","7443801","7441887","NA","6944985","7441443","6944985","6944985","7358451","7375404","7575486","7573982","7576413","7395698","7386462","7425900","NA","7330753","7349671","7424241","7386247","7441891","7386465","NA","7575486","7575486","7483000","7482998","7573978","NAP perception","30","49757","46","yes","1024"
"65.9574468085","yes","65.9574468085","1079.06382979","1079.06382979","white","no","xpyriment","Ich habe die obigen Informationen gelesen und verstanden.","legacy","legacy","0","uniform","1","0","0","undefined","undefined","1","j","2","1","NA","0","1","0","0","0","0","0","0","0","0","56","56","56","0","0","0","NA","0","0","2","0","0","0","2","56","56","56","56","56","Wed Oct 25 11:46:51 2017","Forced-choice identification task with a practice and an experimental phase","yes","NAP_GER_AA_4blocks_noglides.osexp","/Users/aviadalbert/Documents/Academisch/UoC/Dissertation/Experiment/OpenSesame/NAP-FC/NAP_GER_AA_4blocks_noglides","yes","no","sans","no","20","no","black","no","Weiter","yes","768","legacy","46","9","0","/Users/aviadalbert/Documents/Academisch/UoC/Dissertation/Experiment/OpenSesame/NAP-FC/NAP_GER_AA_4blocks_noglides/subject-16.csv","xpyriment","Jazzy James","3.1.9","yes","yes","59a800d99ad5a1025d81bb03","59a801616c613b0251691de0","no","no","0","j","f","space","NA","space","space","j","959","1909","15485","NA","16948","10773","959","2","legacy","1024","1","44100","-16","experiment","nepal","2","0","1","None","1","english","16","","even","7441891","7425900","NA","NA","7443801","7441887","NA","6944985","7441443","6944985","6944985","7358451","7375404","7578191","7576688","7579152","7395698","7386462","7425900","NA","7330753","7349671","7424241","7386247","7441891","7386465","NA","7578191","7578191","7483000","7482998","7576684","NAP perception","31","50716","47","yes","1024"
"66.6666666667","yes","66.6666666667","1072.5625","1072.5625","white","no","xpyriment","Ich habe die obigen Informationen gelesen und verstanden.","legacy","legacy","0","uniform","1","0","0","undefined","undefined","1","j","2","1","NA","0","1","0","0","0","0","0","0","0","0","57","57","57","0","0","0","NA","0","0","2","0","0","0","2","57","57","57","57","57","Wed Oct 25 11:46:51 2017","Forced-choice identification task with a practice and an experimental phase","yes","NAP_GER_AA_4blocks_noglides.osexp","/Users/aviadalbert/Documents/Academisch/UoC/Dissertation/Experiment/OpenSesame/NAP-FC/NAP_GER_AA_4blocks_noglides","yes","no","sans","no","20","no","black","no","Weiter","yes","768","legacy","47","9","0","/Users/aviadalbert/Documents/Academisch/UoC/Dissertation/Experiment/OpenSesame/NAP-FC/NAP_GER_AA_4blocks_noglides/subject-16.csv","xpyriment","Jazzy James","3.1.9","yes","yes","59a800d99ad5a1025d81bb03","59a801616c613b0251691de0","no","no","0","j","f","space","NA","space","space","j","767","1909","15485","NA","16948","10773","767","2","legacy","1024","1","44100","-16","experiment","lekal","2","0","1","None","1","english","16","","even","7441891","7425900","NA","NA","7443801","7441887","NA","6944985","7441443","6944985","6944985","7358451","7375404","7580931","7579425","7581700","7395698","7386462","7425900","NA","7330753","7349671","7424241","7386247","7441891","7386465","NA","7580930","7580931","7483000","7482998","7579421","NAP perception","32","51483","48","yes","1024"
"67.3469387755","yes","67.3469387755","1073.59183673","1073.59183673","white","no","xpyriment","Ich habe die obigen Informationen gelesen und verstanden.","legacy","legacy","0","uniform","1","0","0","undefined","undefined","1","f","2","1","NA","0","1","0","0","0","0","0","0","0","0","58","58","58","0","0","0","NA","0","0","2","0","0","0","2","58","58","58","58","58","Wed Oct 25 11:46:51 2017","Forced-choice identification task with a practice and an experimental phase","yes","NAP_GER_AA_4blocks_noglides.osexp","/Users/aviadalbert/Documents/Academisch/UoC/Dissertation/Experiment/OpenSesame/NAP-FC/NAP_GER_AA_4blocks_noglides","yes","no","sans","no","20","no","black","no","Weiter","yes","768","legacy","48","9","0","/Users/aviadalbert/Documents/Academisch/UoC/Dissertation/Experiment/OpenSesame/NAP-FC/NAP_GER_AA_4blocks_noglides/subject-16.csv","xpyriment","Jazzy James","3.1.9","yes","yes","59a800d99ad5a1025d81bb03","59a801616c613b0251691de0","no","no","0","f","f","space","NA","space","space","f","1123","1909","15485","NA","16948","10773","1123","2","legacy","1024","1","44100","-16","experiment","msal","2","0","1","None","1","english","16","","even","7441891","7425900","NA","NA","7443801","7441887","NA","6944985","7441443","6944985","6944985","7358451","7375404","7583484","7581980","7584609","7395698","7386462","7425900","NA","7330753","7349671","7424241","7386247","7441891","7386465","NA","7583484","7583484","7483000","7482998","7581977","NAP perception","33","52606","49","yes","1024"
"66","yes","66","1072.94","1072.94","white","no","xpyriment","Ich habe die obigen Informationen gelesen und verstanden.","legacy","legacy","0","uniform","0","0","0","undefined","undefined","0","f","2","1","NA","0","1","0","0","0","0","0","0","0","0","59","59","59","0","0","0","NA","0","0","2","0","0","0","2","59","59","59","59","59","Wed Oct 25 11:46:51 2017","Forced-choice identification task with a practice and an experimental phase","yes","NAP_GER_AA_4blocks_noglides.osexp","/Users/aviadalbert/Documents/Academisch/UoC/Dissertation/Experiment/OpenSesame/NAP-FC/NAP_GER_AA_4blocks_noglides","yes","no","sans","no","20","no","black","no","Weiter","yes","768","legacy","49","9","0","/Users/aviadalbert/Documents/Academisch/UoC/Dissertation/Experiment/OpenSesame/NAP-FC/NAP_GER_AA_4blocks_noglides/subject-16.csv","xpyriment","Jazzy James","3.1.9","yes","yes","59a800d99ad5a1025d81bb03","59a801616c613b0251691de0","no","no","0","j","f","space","NA","space","space","j","1041","1909","15485","NA","16948","10773","1041","2","legacy","1024","1","44100","-16","experiment","ftal","2","0","1","None","1","english","16","","even","7441891","7425900","NA","NA","7443801","7441887","NA","6944985","7441443","6944985","6944985","7358451","7375404","7586395","7584892","7587438","7395698","7386462","7425900","NA","7330753","7349671","7424241","7386247","7441891","7386465","NA","7586395","7586395","7483000","7482998","7584888","NAP perception","33","53647","50","yes","1024"
"66.6666666667","yes","66.6666666667","1065.80392157","1065.80392157","white","no","xpyriment","Ich habe die obigen Informationen gelesen und verstanden.","legacy","legacy","0","uniform","1","0","0","undefined","undefined","1","j","2","1","NA","0","1","0","0","0","0","0","0","0","0","60","60","60","0","0","0","NA","0","0","2","0","0","0","2","60","60","60","60","60","Wed Oct 25 11:46:51 2017","Forced-choice identification task with a practice and an experimental phase","yes","NAP_GER_AA_4blocks_noglides.osexp","/Users/aviadalbert/Documents/Academisch/UoC/Dissertation/Experiment/OpenSesame/NAP-FC/NAP_GER_AA_4blocks_noglides","yes","no","sans","no","20","no","black","no","Weiter","yes","768","legacy","50","9","0","/Users/aviadalbert/Documents/Academisch/UoC/Dissertation/Experiment/OpenSesame/NAP-FC/NAP_GER_AA_4blocks_noglides/subject-16.csv","xpyriment","Jazzy James","3.1.9","yes","yes","59a800d99ad5a1025d81bb03","59a801616c613b0251691de0","no","no","0","j","f","space","NA","space","space","j","709","1909","15485","NA","16948","10773","709","2","legacy","1024","1","44100","-16","experiment","nemal","2","0","1","None","1","english","16","","even","7441891","7425900","NA","NA","7443801","7441887","NA","6944985","7441443","6944985","6944985","7358451","7375404","7589219","7587716","7589930","7395698","7386462","7425900","NA","7330753","7349671","7424241","7386247","7441891","7386465","NA","7589219","7589219","7483000","7482998","7587712","NAP perception","34","54356","51","yes","1024"
"65.3846153846","yes","65.3846153846","1064.51923077","1064.51923077","white","no","xpyriment","Ich habe die obigen Informationen gelesen und verstanden.","legacy","legacy","0","uniform","0","0","0","undefined","undefined","0","f","2","1","NA","0","1","0","0","0","0","0","0","0","0","61","61","61","0","0","0","NA","0","0","2","0","0","0","2","61","61","61","61","61","Wed Oct 25 11:46:51 2017","Forced-choice identification task with a practice and an experimental phase","yes","NAP_GER_AA_4blocks_noglides.osexp","/Users/aviadalbert/Documents/Academisch/UoC/Dissertation/Experiment/OpenSesame/NAP-FC/NAP_GER_AA_4blocks_noglides","yes","no","sans","no","20","no","black","no","Weiter","yes","768","legacy","51","9","0","/Users/aviadalbert/Documents/Academisch/UoC/Dissertation/Experiment/OpenSesame/NAP-FC/NAP_GER_AA_4blocks_noglides/subject-16.csv","xpyriment","Jazzy James","3.1.9","yes","yes","59a800d99ad5a1025d81bb03","59a801616c613b0251691de0","no","no","0","j","f","space","NA","space","space","j","999","1909","15485","NA","16948","10773","999","2","legacy","1024","1","44100","-16","experiment","nval","2","0","1","None","1","english","16","","even","7441891","7425900","NA","NA","7443801","7441887","NA","6944985","7441443","6944985","6944985","7358451","7375404","7591713","7590206","7592715","7395698","7386462","7425900","NA","7330753","7349671","7424241","7386247","7441891","7386465","NA","7591713","7591713","7483000","7482998","7590202","NAP perception","34","55355","52","yes","1024"
"64.1509433962","yes","64.1509433962","1066.32075472","1066.32075472","white","no","xpyriment","Ich habe die obigen Informationen gelesen und verstanden.","legacy","legacy","0","uniform","0","0","0","undefined","undefined","0","f","2","1","NA","0","1","0","0","0","0","0","0","0","0","62","62","62","0","0","0","NA","0","0","2","0","0","0","2","62","62","62","62","62","Wed Oct 25 11:46:51 2017","Forced-choice identification task with a practice and an experimental phase","yes","NAP_GER_AA_4blocks_noglides.osexp","/Users/aviadalbert/Documents/Academisch/UoC/Dissertation/Experiment/OpenSesame/NAP-FC/NAP_GER_AA_4blocks_noglides","yes","no","sans","no","20","no","black","no","Weiter","yes","768","legacy","52","9","0","/Users/aviadalbert/Documents/Academisch/UoC/Dissertation/Experiment/OpenSesame/NAP-FC/NAP_GER_AA_4blocks_noglides/subject-16.csv","xpyriment","Jazzy James","3.1.9","yes","yes","59a800d99ad5a1025d81bb03","59a801616c613b0251691de0","no","no","0","j","f","space","NA","space","space","j","1160","1909","15485","NA","16948","10773","1160","2","legacy","1024","1","44100","-16","experiment","nmal","2","0","1","None","1","english","16","","even","7441891","7425900","NA","NA","7443801","7441887","NA","6944985","7441443","6944985","6944985","7358451","7375404","7594503","7592999","7595665","7395698","7386462","7425900","NA","7330753","7349671","7424241","7386247","7441891","7386465","NA","7594502","7594503","7483000","7482998","7592995","NAP perception","34","56515","53","yes","1024"
"64.8148148148","yes","64.8148148148","1060.53703704","1060.53703704","white","no","xpyriment","Ich habe die obigen Informationen gelesen und verstanden.","legacy","legacy","0","uniform","1","0","0","undefined","undefined","1","j","2","1","NA","0","1","0","0","0","0","0","0","0","0","63","63","63","0","0","0","NA","0","0","2","0","0","0","2","63","63","63","63","63","Wed Oct 25 11:46:51 2017","Forced-choice identification task with a practice and an experimental phase","yes","NAP_GER_AA_4blocks_noglides.osexp","/Users/aviadalbert/Documents/Academisch/UoC/Dissertation/Experiment/OpenSesame/NAP-FC/NAP_GER_AA_4blocks_noglides","yes","no","sans","no","20","no","black","no","Weiter","yes","768","legacy","53","9","0","/Users/aviadalbert/Documents/Academisch/UoC/Dissertation/Experiment/OpenSesame/NAP-FC/NAP_GER_AA_4blocks_noglides/subject-16.csv","xpyriment","Jazzy James","3.1.9","yes","yes","59a800d99ad5a1025d81bb03","59a801616c613b0251691de0","no","no","0","j","f","space","NA","space","space","j","754","1909","15485","NA","16948","10773","754","2","legacy","1024","1","44100","-16","experiment","emlal","2","0","1","None","1","english","16","","even","7441891","7425900","NA","NA","7443801","7441887","NA","6944985","7441443","6944985","6944985","7358451","7375404","7597446","7595941","7598202","7395698","7386462","7425900","NA","7330753","7349671","7424241","7386247","7441891","7386465","NA","7597446","7597446","7483000","7482998","7595937","NAP perception","35","57269","54","yes","1024"
"65.4545454545","yes","65.4545454545","1057.30909091","1057.30909091","white","no","xpyriment","Ich habe die obigen Informationen gelesen und verstanden.","legacy","legacy","0","uniform","1","0","0","undefined","undefined","1","j","2","1","NA","0","1","0","0","0","0","0","0","0","0","64","64","64","0","0","0","NA","0","0","2","0","0","0","2","64","64","64","64","64","Wed Oct 25 11:46:51 2017","Forced-choice identification task with a practice and an experimental phase","yes","NAP_GER_AA_4blocks_noglides.osexp","/Users/aviadalbert/Documents/Academisch/UoC/Dissertation/Experiment/OpenSesame/NAP-FC/NAP_GER_AA_4blocks_noglides","yes","no","sans","no","20","no","black","no","Weiter","yes","768","legacy","54","9","0","/Users/aviadalbert/Documents/Academisch/UoC/Dissertation/Experiment/OpenSesame/NAP-FC/NAP_GER_AA_4blocks_noglides/subject-16.csv","xpyriment","Jazzy James","3.1.9","yes","yes","59a800d99ad5a1025d81bb03","59a801616c613b0251691de0","no","no","0","j","f","space","NA","space","space","j","883","1909","15485","NA","16948","10773","883","2","legacy","1024","1","44100","-16","experiment","emzal","2","0","1","None","1","english","16","","even","7441891","7425900","NA","NA","7443801","7441887","NA","6944985","7441443","6944985","6944985","7358451","7375404","7599996","7598493","7600881","7395698","7386462","7425900","NA","7330753","7349671","7424241","7386247","7441891","7386465","NA","7599996","7599996","7483000","7482998","7598489","NAP perception","36","58152","55","yes","1024"
