"acc","accept_status","accuracy","average_response_time","avg_rt","background","bidi","canvas_backend","checkbox_status","clock_backend","color_backend","compensation","coordinates","correct","correct_block_activation","correct_block_exit","correct_instructions_1","correct_instructions_2","correct_keyboard_response","correct_response","count_block_activation","count_block_exit","count_block_info_QA","count_cont_e_block_message","count_e_block_loop","count_e_block_sequence","count_end_of_experiment","count_experiment","count_experimental_loop","count_form_consent","count_info_forms","count_instructions_1","count_instructions_2","count_keyboard_response","count_listen_message","count_logger","count_p_block_loop","count_p_block_sequence","count_p_feedback","count_pause_feedback","count_personal_details_form_1","count_personal_details_form_2","count_post_loop_blank","count_practice_loop","count_pre_e_block_message","count_pre_p_block_message","count_reset_feedback","count_stimulus_image","count_stimulus_sound","count_timeout_message","count_timeout_sound","count_trial_sequence","datetime","description","disable_garbage_collection","experiment_file","experiment_path","expyriment_opengl","font_bold","font_family","font_italic","font_size","font_underline","foreground","form_clicks","form_response","fullscreen","height","keyboard_backend","live_row","live_row_p_block_loop","live_row_practice_loop","logfile","mouse_backend","opensesame_codename","opensesame_version","osf_always_upload_data","osf_always_upload_experiment","osf_datanode_id","osf_id","practice","pygame_doublebuf","repeat_cycle","response","response_block_activation","response_block_exit","response_block_info_QA","response_instructions_1","response_instructions_2","response_keyboard_response","response_time","response_time_block_activation","response_time_block_exit","response_time_block_info_QA","response_time_instructions_1","response_time_instructions_2","response_time_keyboard_response","round_decimals","sampler_backend","sound_buf_size","sound_channels","sound_freq","sound_sample_size","start","stimulus","subject_age","subject_education","subject_gender","subject_german_native","subject_handedness","subject_language_other","subject_nr","subject_other_native_lang","subject_parity","time_block_activation","time_block_exit","time_block_info_QA","time_cont_e_block_message","time_e_block_loop","time_e_block_sequence","time_end_of_experiment","time_experiment","time_experimental_loop","time_form_consent","time_info_forms","time_instructions_1","time_instructions_2","time_keyboard_response","time_listen_message","time_logger","time_p_block_loop","time_p_block_sequence","time_p_feedback","time_pause_feedback","time_personal_details_form_1","time_personal_details_form_2","time_post_loop_blank","time_practice_loop","time_pre_e_block_message","time_pre_p_block_message","time_reset_feedback","time_stimulus_image","time_stimulus_sound","time_timeout_message","time_timeout_sound","time_trial_sequence","title","total_correct","total_response_time","total_responses","uniform_coordinates","width"
"100","yes","100","1047","1047","white","no","xpyriment","Ich habe die obigen Informationen gelesen und verstanden.","legacy","legacy","0","uniform","1","0","NA","undefined","undefined","1","f","0","0","NA","NA","NA","NA","NA","0","0","0","0","0","0","0","0","0","0","0","NA","NA","0","0","0","0","NA","0","0","0","0","0","0","0","Thu Oct 26 10:45:41 2017","Forced-choice identification task with a practice and an experimental phase","yes","NAP_GER_AA_4blocks_noglides.osexp","/Users/aviadalbert/Documents/Academisch/UoC/Dissertation/Experiment/OpenSesame/NAP-FC/NAP_GER_AA_4blocks_noglides","yes","no","sans","no","20","no","black","no","Weiter","yes","768","legacy","0","0","0","/Users/aviadalbert/Documents/Academisch/UoC/Dissertation/Experiment/OpenSesame/NAP-FC/NAP_GER_AA_4blocks_noglides/subject-21.csv","xpyriment","Jazzy James","3.1.9","yes","yes","59a800d99ad5a1025d81bb03","59a801616c613b0251691de0","yes","no","0","f","f","NA","NA","space","space","f","1047","3582","NA","NA","12924","14909","1047","2","legacy","1024","1","44100","-16","experiment","flal","2","0","0","0","1","English","21","","odd","3953988","NA","NA","NA","NA","NA","NA","3315273","NA","3315273","3315273","3925841","3938769","3959278","3957773","3960326","3957571","3953984","NA","NA","3882983","3913302","NA","3953748","NA","3953988","NA","3959277","3959277","NA","NA","3957769","NAP perception","1","1047","1","yes","1024"
"100","yes","100","971.5","971.5","white","no","xpyriment","Ich habe die obigen Informationen gelesen und verstanden.","legacy","legacy","0","uniform","1","0","NA","undefined","undefined","1","j","0","0","NA","NA","NA","NA","NA","0","0","0","0","0","0","1","1","1","0","0","NA","NA","0","0","0","0","NA","0","0","1","1","1","1","1","Thu Oct 26 10:45:41 2017","Forced-choice identification task with a practice and an experimental phase","yes","NAP_GER_AA_4blocks_noglides.osexp","/Users/aviadalbert/Documents/Academisch/UoC/Dissertation/Experiment/OpenSesame/NAP-FC/NAP_GER_AA_4blocks_noglides","yes","no","sans","no","20","no","black","no","Weiter","yes","768","legacy","1","1","0","/Users/aviadalbert/Documents/Academisch/UoC/Dissertation/Experiment/OpenSesame/NAP-FC/NAP_GER_AA_4blocks_noglides/subject-21.csv","xpyriment","Jazzy James","3.1.9","yes","yes","59a800d99ad5a1025d81bb03","59a801616c613b0251691de0","yes","no","0","j","f","NA","NA","space","space","j","896","3582","NA","NA","12924","14909","896","2","legacy","1024","1","44100","-16","experiment","lepal","2","0","0","0","1","English","21","","odd","3953988","NA","NA","NA","NA","NA","NA","3315273","NA","3315273","3315273","3925841","3938769","3962100","3960596","3962997","3957571","3953984","NA","NA","3882983","3913302","NA","3953748","NA","3953988","NA","3962100","3962100","NA","NA","3960592","NAP perception","2","1943","2","yes","1024"
"100","yes","100","912.666666667","912.666666667","white","no","xpyriment","Ich habe die obigen Informationen gelesen und verstanden.","legacy","legacy","0","uniform","1","0","NA","undefined","undefined","1","j","0","0","NA","NA","NA","NA","NA","0","0","0","0","0","0","2","2","2","0","0","NA","NA","0","0","0","0","NA","0","0","2","2","2","2","2","Thu Oct 26 10:45:41 2017","Forced-choice identification task with a practice and an experimental phase","yes","NAP_GER_AA_4blocks_noglides.osexp","/Users/aviadalbert/Documents/Academisch/UoC/Dissertation/Experiment/OpenSesame/NAP-FC/NAP_GER_AA_4blocks_noglides","yes","no","sans","no","20","no","black","no","Weiter","yes","768","legacy","2","2","0","/Users/aviadalbert/Documents/Academisch/UoC/Dissertation/Experiment/OpenSesame/NAP-FC/NAP_GER_AA_4blocks_noglides/subject-21.csv","xpyriment","Jazzy James","3.1.9","yes","yes","59a800d99ad5a1025d81bb03","59a801616c613b0251691de0","yes","no","0","j","f","NA","NA","space","space","j","795","3582","NA","NA","12924","14909","795","2","legacy","1024","1","44100","-16","experiment","emtal","2","0","0","0","1","English","21","","odd","3953988","NA","NA","NA","NA","NA","NA","3315273","NA","3315273","3315273","3925841","3938769","3964793","3963285","3965589","3957571","3953984","NA","NA","3882983","3913302","NA","3953748","NA","3953988","NA","3964793","3964793","NA","NA","3963281","NAP perception","3","2738","3","yes","1024"
"100","yes","100","917.5","917.5","white","no","xpyriment","Ich habe die obigen Informationen gelesen und verstanden.","legacy","legacy","0","uniform","1","0","NA","undefined","undefined","1","f","0","0","NA","NA","NA","NA","NA","0","0","0","0","0","0","3","3","3","0","0","NA","NA","0","0","0","0","NA","0","0","3","3","3","3","3","Thu Oct 26 10:45:41 2017","Forced-choice identification task with a practice and an experimental phase","yes","NAP_GER_AA_4blocks_noglides.osexp","/Users/aviadalbert/Documents/Academisch/UoC/Dissertation/Experiment/OpenSesame/NAP-FC/NAP_GER_AA_4blocks_noglides","yes","no","sans","no","20","no","black","no","Weiter","yes","768","legacy","3","3","0","/Users/aviadalbert/Documents/Academisch/UoC/Dissertation/Experiment/OpenSesame/NAP-FC/NAP_GER_AA_4blocks_noglides/subject-21.csv","xpyriment","Jazzy James","3.1.9","yes","yes","59a800d99ad5a1025d81bb03","59a801616c613b0251691de0","yes","no","0","f","f","NA","NA","space","space","f","932","3582","NA","NA","12924","14909","932","2","legacy","1024","1","44100","-16","experiment","ʃpal","2","0","0","0","1","English","21","","odd","3953988","NA","NA","NA","NA","NA","NA","3315273","NA","3315273","3315273","3925841","3938769","3967359","3965854","3968293","3957571","3953984","NA","NA","3882983","3913302","NA","3953748","NA","3953988","NA","3967359","3967359","NA","NA","3965850","NAP perception","4","3670","4","yes","1024"
"100","yes","100","859.8","859.8","white","no","xpyriment","Ich habe die obigen Informationen gelesen und verstanden.","legacy","legacy","0","uniform","1","0","NA","undefined","undefined","1","j","0","0","NA","NA","NA","NA","NA","0","0","0","0","0","0","4","4","4","0","0","NA","NA","0","0","0","0","NA","0","0","4","4","4","4","4","Thu Oct 26 10:45:41 2017","Forced-choice identification task with a practice and an experimental phase","yes","NAP_GER_AA_4blocks_noglides.osexp","/Users/aviadalbert/Documents/Academisch/UoC/Dissertation/Experiment/OpenSesame/NAP-FC/NAP_GER_AA_4blocks_noglides","yes","no","sans","no","20","no","black","no","Weiter","yes","768","legacy","4","4","0","/Users/aviadalbert/Documents/Academisch/UoC/Dissertation/Experiment/OpenSesame/NAP-FC/NAP_GER_AA_4blocks_noglides/subject-21.csv","xpyriment","Jazzy James","3.1.9","yes","yes","59a800d99ad5a1025d81bb03","59a801616c613b0251691de0","yes","no","0","j","f","NA","NA","space","space","j","629","3582","NA","NA","12924","14909","629","2","legacy","1024","1","44100","-16","experiment","nefal","2","0","0","0","1","English","21","","odd","3953988","NA","NA","NA","NA","NA","NA","3315273","NA","3315273","3315273","3925841","3938769","3970082","3968579","3970712","3957571","3953984","NA","NA","3882983","3913302","NA","3953748","NA","3953988","NA","3970082","3970082","NA","NA","3968575","NAP perception","5","4299","5","yes","1024"
"100","yes","100","878","878","white","no","xpyriment","Ich habe die obigen Informationen gelesen und verstanden.","legacy","legacy","0","uniform","1","0","NA","undefined","undefined","1","f","0","0","NA","NA","NA","NA","NA","0","0","0","0","0","0","5","5","5","0","0","NA","NA","0","0","0","0","NA","0","0","5","5","5","5","5","Thu Oct 26 10:45:41 2017","Forced-choice identification task with a practice and an experimental phase","yes","NAP_GER_AA_4blocks_noglides.osexp","/Users/aviadalbert/Documents/Academisch/UoC/Dissertation/Experiment/OpenSesame/NAP-FC/NAP_GER_AA_4blocks_noglides","yes","no","sans","no","20","no","black","no","Weiter","yes","768","legacy","5","5","0","/Users/aviadalbert/Documents/Academisch/UoC/Dissertation/Experiment/OpenSesame/NAP-FC/NAP_GER_AA_4blocks_noglides/subject-21.csv","xpyriment","Jazzy James","3.1.9","yes","yes","59a800d99ad5a1025d81bb03","59a801616c613b0251691de0","yes","no","0","f","f","NA","NA","space","space","f","969","3582","NA","NA","12924","14909","969","2","legacy","1024","1","44100","-16","experiment","sfal","2","0","0","0","1","English","21","","odd","3953988","NA","NA","NA","NA","NA","NA","3315273","NA","3315273","3315273","3925841","3938769","3972497","3970992","3973467","3957571","3953984","NA","NA","3882983","3913302","NA","3953748","NA","3953988","NA","3972497","3972497","NA","NA","3970988","NAP perception","6","5268","6","yes","1024"
"85.7142857143","yes","85.7142857143","849.142857143","849.142857143","white","no","xpyriment","Ich habe die obigen Informationen gelesen und verstanden.","legacy","legacy","0","uniform","0","0","NA","undefined","undefined","0","f","0","0","NA","NA","NA","NA","NA","0","0","0","0","0","0","6","6","6","0","0","NA","NA","0","0","0","0","NA","0","0","6","6","6","6","6","Thu Oct 26 10:45:41 2017","Forced-choice identification task with a practice and an experimental phase","yes","NAP_GER_AA_4blocks_noglides.osexp","/Users/aviadalbert/Documents/Academisch/UoC/Dissertation/Experiment/OpenSesame/NAP-FC/NAP_GER_AA_4blocks_noglides","yes","no","sans","no","20","no","black","no","Weiter","yes","768","legacy","6","6","0","/Users/aviadalbert/Documents/Academisch/UoC/Dissertation/Experiment/OpenSesame/NAP-FC/NAP_GER_AA_4blocks_noglides/subject-21.csv","xpyriment","Jazzy James","3.1.9","yes","yes","59a800d99ad5a1025d81bb03","59a801616c613b0251691de0","yes","no","0","j","f","NA","NA","space","space","j","676","3582","NA","NA","12924","14909","676","2","legacy","1024","1","44100","-16","experiment","zmal","2","0","0","0","1","English","21","","odd","3953988","NA","NA","NA","NA","NA","NA","3315273","NA","3315273","3315273","3925841","3938769","3975247","3973743","3975924","3957571","3953984","NA","NA","3882983","3913302","NA","3953748","NA","3953988","NA","3975246","3975247","NA","NA","3973739","NAP perception","6","5944","7","yes","1024"
"87.5","yes","87.5","828.75","828.75","white","no","xpyriment","Ich habe die obigen Informationen gelesen und verstanden.","legacy","legacy","0","uniform","1","0","NA","undefined","undefined","1","j","0","0","NA","NA","NA","NA","NA","0","0","0","0","0","0","7","7","7","0","0","NA","NA","0","0","0","0","NA","0","0","7","7","7","7","7","Thu Oct 26 10:45:41 2017","Forced-choice identification task with a practice and an experimental phase","yes","NAP_GER_AA_4blocks_noglides.osexp","/Users/aviadalbert/Documents/Academisch/UoC/Dissertation/Experiment/OpenSesame/NAP-FC/NAP_GER_AA_4blocks_noglides","yes","no","sans","no","20","no","black","no","Weiter","yes","768","legacy","7","7","0","/Users/aviadalbert/Documents/Academisch/UoC/Dissertation/Experiment/OpenSesame/NAP-FC/NAP_GER_AA_4blocks_noglides/subject-21.csv","xpyriment","Jazzy James","3.1.9","yes","yes","59a800d99ad5a1025d81bb03","59a801616c613b0251691de0","yes","no","0","j","f","NA","NA","space","space","j","686","3582","NA","NA","12924","14909","686","2","legacy","1024","1","44100","-16","experiment","mesal","2","0","0","0","1","English","21","","odd","3953988","NA","NA","NA","NA","NA","NA","3315273","NA","3315273","3315273","3925841","3938769","3977719","3976216","3978406","3957571","3953984","NA","NA","3882983","3913302","NA","3953748","NA","3953988","NA","3977719","3977719","NA","NA","3976212","NAP perception","7","6630","8","yes","1024"
"77.7777777778","yes","77.7777777778","812.666666667","812.666666667","white","no","xpyriment","Ich habe die obigen Informationen gelesen und verstanden.","legacy","legacy","0","uniform","0","0","NA","undefined","undefined","0","j","0","0","NA","NA","NA","NA","NA","0","0","0","0","0","0","8","8","8","0","0","NA","NA","0","0","0","0","NA","0","0","8","8","8","8","8","Thu Oct 26 10:45:41 2017","Forced-choice identification task with a practice and an experimental phase","yes","NAP_GER_AA_4blocks_noglides.osexp","/Users/aviadalbert/Documents/Academisch/UoC/Dissertation/Experiment/OpenSesame/NAP-FC/NAP_GER_AA_4blocks_noglides","yes","no","sans","no","20","no","black","no","Weiter","yes","768","legacy","8","8","0","/Users/aviadalbert/Documents/Academisch/UoC/Dissertation/Experiment/OpenSesame/NAP-FC/NAP_GER_AA_4blocks_noglides/subject-21.csv","xpyriment","Jazzy James","3.1.9","yes","yes","59a800d99ad5a1025d81bb03","59a801616c613b0251691de0","yes","no","0","f","f","NA","NA","space","space","f","684","3582","NA","NA","12924","14909","684","2","legacy","1024","1","44100","-16","experiment","enval","2","0","0","0","1","English","21","","odd","3953988","NA","NA","NA","NA","NA","NA","3315273","NA","3315273","3315273","3925841","3938769","3980178","3978675","3980863","3957571","3953984","NA","NA","3882983","3913302","NA","3953748","NA","3953988","NA","3980178","3980178","NA","NA","3978671","NAP perception","7","7314","9","yes","1024"
"80","yes","80","838.5","838.5","white","no","xpyriment","Ich habe die obigen Informationen gelesen und verstanden.","legacy","legacy","0","uniform","1","0","NA","undefined","undefined","1","f","0","0","NA","NA","NA","NA","NA","0","0","0","0","0","0","9","9","9","0","0","NA","NA","0","0","0","0","NA","0","0","9","9","9","9","9","Thu Oct 26 10:45:41 2017","Forced-choice identification task with a practice and an experimental phase","yes","NAP_GER_AA_4blocks_noglides.osexp","/Users/aviadalbert/Documents/Academisch/UoC/Dissertation/Experiment/OpenSesame/NAP-FC/NAP_GER_AA_4blocks_noglides","yes","no","sans","no","20","no","black","no","Weiter","yes","768","legacy","9","9","0","/Users/aviadalbert/Documents/Academisch/UoC/Dissertation/Experiment/OpenSesame/NAP-FC/NAP_GER_AA_4blocks_noglides/subject-21.csv","xpyriment","Jazzy James","3.1.9","yes","yes","59a800d99ad5a1025d81bb03","59a801616c613b0251691de0","yes","no","0","f","f","NA","NA","space","space","f","1071","3582","NA","NA","12924","14909","1071","2","legacy","1024","1","44100","-16","experiment","vlal","2","0","0","0","1","English","21","","odd","3953988","NA","NA","NA","NA","NA","NA","3315273","NA","3315273","3315273","3925841","3938769","3982662","3981154","3983734","3957571","3953984","NA","NA","3882983","3913302","NA","3953748","NA","3953988","NA","3982661","3982661","NA","NA","3981150","NAP perception","8","8385","10","yes","1024"
"100","yes","100","734","734","white","no","xpyriment","Ich habe die obigen Informationen gelesen und verstanden.","legacy","legacy","0","uniform","1","0","0","undefined","undefined","1","f","2","1","NA","0","1","0","0","0","0","0","0","0","0","10","10","10","0","0","0","NA","0","0","2","0","0","0","2","10","10","10","10","10","Thu Oct 26 10:45:41 2017","Forced-choice identification task with a practice and an experimental phase","yes","NAP_GER_AA_4blocks_noglides.osexp","/Users/aviadalbert/Documents/Academisch/UoC/Dissertation/Experiment/OpenSesame/NAP-FC/NAP_GER_AA_4blocks_noglides","yes","no","sans","no","20","no","black","no","Weiter","yes","768","legacy","0","9","0","/Users/aviadalbert/Documents/Academisch/UoC/Dissertation/Experiment/OpenSesame/NAP-FC/NAP_GER_AA_4blocks_noglides/subject-21.csv","xpyriment","Jazzy James","3.1.9","yes","yes","59a800d99ad5a1025d81bb03","59a801616c613b0251691de0","no","no","0","f","f","space","NA","space","space","f","734","1880","18846","NA","12924","14909","734","2","legacy","1024","1","44100","-16","experiment","sfal","2","0","0","0","1","English","21","","odd","4004808","3985447","NA","NA","4006689","4004805","NA","3315273","4004349","3315273","3315273","3925841","3938769","4008401","4006898","4009136","3957571","3953984","3985447","NA","3882983","3913302","3983797","3953748","4004808","3953988","NA","4008401","4008401","NA","NA","4006894","NAP perception","1","734","1","yes","1024"
"100","yes","100","826.5","826.5","white","no","xpyriment","Ich habe die obigen Informationen gelesen und verstanden.","legacy","legacy","0","uniform","1","0","0","undefined","undefined","1","f","2","1","NA","0","1","0","0","0","0","0","0","0","0","11","11","11","0","0","0","NA","0","0","2","0","0","0","2","11","11","11","11","11","Thu Oct 26 10:45:41 2017","Forced-choice identification task with a practice and an experimental phase","yes","NAP_GER_AA_4blocks_noglides.osexp","/Users/aviadalbert/Documents/Academisch/UoC/Dissertation/Experiment/OpenSesame/NAP-FC/NAP_GER_AA_4blocks_noglides","yes","no","sans","no","20","no","black","no","Weiter","yes","768","legacy","1","9","0","/Users/aviadalbert/Documents/Academisch/UoC/Dissertation/Experiment/OpenSesame/NAP-FC/NAP_GER_AA_4blocks_noglides/subject-21.csv","xpyriment","Jazzy James","3.1.9","yes","yes","59a800d99ad5a1025d81bb03","59a801616c613b0251691de0","no","no","0","f","f","space","NA","space","space","f","919","1880","18846","NA","12924","14909","919","2","legacy","1024","1","44100","-16","experiment","vzal","2","0","0","0","1","English","21","","odd","4004808","3985447","NA","NA","4006689","4004805","NA","3315273","4004349","3315273","3315273","3925841","3938769","4010914","4009411","4011834","3957571","3953984","3985447","NA","3882983","3913302","3983797","3953748","4004808","3953988","NA","4010914","4010914","NA","NA","4009407","NAP perception","2","1653","2","yes","1024"
"100","yes","100","901","901","white","no","xpyriment","Ich habe die obigen Informationen gelesen und verstanden.","legacy","legacy","0","uniform","1","0","0","undefined","undefined","1","f","2","1","NA","0","1","0","0","0","0","0","0","0","0","12","12","12","0","0","0","NA","0","0","2","0","0","0","2","12","12","12","12","12","Thu Oct 26 10:45:41 2017","Forced-choice identification task with a practice and an experimental phase","yes","NAP_GER_AA_4blocks_noglides.osexp","/Users/aviadalbert/Documents/Academisch/UoC/Dissertation/Experiment/OpenSesame/NAP-FC/NAP_GER_AA_4blocks_noglides","yes","no","sans","no","20","no","black","no","Weiter","yes","768","legacy","2","9","0","/Users/aviadalbert/Documents/Academisch/UoC/Dissertation/Experiment/OpenSesame/NAP-FC/NAP_GER_AA_4blocks_noglides/subject-21.csv","xpyriment","Jazzy James","3.1.9","yes","yes","59a800d99ad5a1025d81bb03","59a801616c613b0251691de0","no","no","0","f","f","space","NA","space","space","f","1050","1880","18846","NA","12924","14909","1050","2","legacy","1024","1","44100","-16","experiment","nmal","2","0","0","0","1","English","21","","odd","4004808","3985447","NA","NA","4006689","4004805","NA","3315273","4004349","3315273","3315273","3925841","3938769","4013606","4012103","4014658","3957571","3953984","3985447","NA","3882983","3913302","3983797","3953748","4004808","3953988","NA","4013606","4013606","NA","NA","4012099","NAP perception","3","2703","3","yes","1024"
"100","yes","100","876.25","876.25","white","no","xpyriment","Ich habe die obigen Informationen gelesen und verstanden.","legacy","legacy","0","uniform","1","0","0","undefined","undefined","1","j","2","1","NA","0","1","0","0","0","0","0","0","0","0","13","13","13","0","0","0","NA","0","0","2","0","0","0","2","13","13","13","13","13","Thu Oct 26 10:45:41 2017","Forced-choice identification task with a practice and an experimental phase","yes","NAP_GER_AA_4blocks_noglides.osexp","/Users/aviadalbert/Documents/Academisch/UoC/Dissertation/Experiment/OpenSesame/NAP-FC/NAP_GER_AA_4blocks_noglides","yes","no","sans","no","20","no","black","no","Weiter","yes","768","legacy","3","9","0","/Users/aviadalbert/Documents/Academisch/UoC/Dissertation/Experiment/OpenSesame/NAP-FC/NAP_GER_AA_4blocks_noglides/subject-21.csv","xpyriment","Jazzy James","3.1.9","yes","yes","59a800d99ad5a1025d81bb03","59a801616c613b0251691de0","no","no","0","j","f","space","NA","space","space","j","802","1880","18846","NA","12924","14909","802","2","legacy","1024","1","44100","-16","experiment","ezmal","2","0","0","0","1","English","21","","odd","4004808","3985447","NA","NA","4006689","4004805","NA","3315273","4004349","3315273","3315273","3925841","3938769","4016447","4014942","4017250","3957571","3953984","3985447","NA","3882983","3913302","3983797","3953748","4004808","3953988","NA","4016447","4016447","NA","NA","4014938","NAP perception","4","3505","4","yes","1024"
"100","yes","100","852.2","852.2","white","no","xpyriment","Ich habe die obigen Informationen gelesen und verstanden.","legacy","legacy","0","uniform","1","0","0","undefined","undefined","1","j","2","1","NA","0","1","0","0","0","0","0","0","0","0","14","14","14","0","0","0","NA","0","0","2","0","0","0","2","14","14","14","14","14","Thu Oct 26 10:45:41 2017","Forced-choice identification task with a practice and an experimental phase","yes","NAP_GER_AA_4blocks_noglides.osexp","/Users/aviadalbert/Documents/Academisch/UoC/Dissertation/Experiment/OpenSesame/NAP-FC/NAP_GER_AA_4blocks_noglides","yes","no","sans","no","20","no","black","no","Weiter","yes","768","legacy","4","9","0","/Users/aviadalbert/Documents/Academisch/UoC/Dissertation/Experiment/OpenSesame/NAP-FC/NAP_GER_AA_4blocks_noglides/subject-21.csv","xpyriment","Jazzy James","3.1.9","yes","yes","59a800d99ad5a1025d81bb03","59a801616c613b0251691de0","no","no","0","j","f","space","NA","space","space","j","756","1880","18846","NA","12924","14909","756","2","legacy","1024","1","44100","-16","experiment","evlal","2","0","0","0","1","English","21","","odd","4004808","3985447","NA","NA","4006689","4004805","NA","3315273","4004349","3315273","3315273","3925841","3938769","4019028","4017525","4019785","3957571","3953984","3985447","NA","3882983","3913302","3983797","3953748","4004808","3953988","NA","4019028","4019028","NA","NA","4017521","NAP perception","5","4261","5","yes","1024"
"100","yes","100","855.333333333","855.333333333","white","no","xpyriment","Ich habe die obigen Informationen gelesen und verstanden.","legacy","legacy","0","uniform","1","0","0","undefined","undefined","1","j","2","1","NA","0","1","0","0","0","0","0","0","0","0","15","15","15","0","0","0","NA","0","0","2","0","0","0","2","15","15","15","15","15","Thu Oct 26 10:45:41 2017","Forced-choice identification task with a practice and an experimental phase","yes","NAP_GER_AA_4blocks_noglides.osexp","/Users/aviadalbert/Documents/Academisch/UoC/Dissertation/Experiment/OpenSesame/NAP-FC/NAP_GER_AA_4blocks_noglides","yes","no","sans","no","20","no","black","no","Weiter","yes","768","legacy","5","9","0","/Users/aviadalbert/Documents/Academisch/UoC/Dissertation/Experiment/OpenSesame/NAP-FC/NAP_GER_AA_4blocks_noglides/subject-21.csv","xpyriment","Jazzy James","3.1.9","yes","yes","59a800d99ad5a1025d81bb03","59a801616c613b0251691de0","no","no","0","j","f","space","NA","space","space","j","871","1880","18846","NA","12924","14909","871","2","legacy","1024","1","44100","-16","experiment","melal","2","0","0","0","1","English","21","","odd","4004808","3985447","NA","NA","4006689","4004805","NA","3315273","4004349","3315273","3315273","3925841","3938769","4021558","4020055","4022430","3957571","3953984","3985447","NA","3882983","3913302","3983797","3953748","4004808","3953988","NA","4021558","4021558","NA","NA","4020051","NAP perception","6","5132","6","yes","1024"
"100","yes","100","833.142857143","833.142857143","white","no","xpyriment","Ich habe die obigen Informationen gelesen und verstanden.","legacy","legacy","0","uniform","1","0","0","undefined","undefined","1","j","2","1","NA","0","1","0","0","0","0","0","0","0","0","16","16","16","0","0","0","NA","0","0","2","0","0","0","2","16","16","16","16","16","Thu Oct 26 10:45:41 2017","Forced-choice identification task with a practice and an experimental phase","yes","NAP_GER_AA_4blocks_noglides.osexp","/Users/aviadalbert/Documents/Academisch/UoC/Dissertation/Experiment/OpenSesame/NAP-FC/NAP_GER_AA_4blocks_noglides","yes","no","sans","no","20","no","black","no","Weiter","yes","768","legacy","6","9","0","/Users/aviadalbert/Documents/Academisch/UoC/Dissertation/Experiment/OpenSesame/NAP-FC/NAP_GER_AA_4blocks_noglides/subject-21.csv","xpyriment","Jazzy James","3.1.9","yes","yes","59a800d99ad5a1025d81bb03","59a801616c613b0251691de0","no","no","0","j","f","space","NA","space","space","j","700","1880","18846","NA","12924","14909","700","2","legacy","1024","1","44100","-16","experiment","enmal","2","0","0","0","1","English","21","","odd","4004808","3985447","NA","NA","4006689","4004805","NA","3315273","4004349","3315273","3315273","3925841","3938769","4024214","4022708","4024915","3957571","3953984","3985447","NA","3882983","3913302","3983797","3953748","4004808","3953988","NA","4024213","4024213","NA","NA","4022704","NAP perception","7","5832","7","yes","1024"
"100","yes","100","847.75","847.75","white","no","xpyriment","Ich habe die obigen Informationen gelesen und verstanden.","legacy","legacy","0","uniform","1","0","0","undefined","undefined","1","f","2","1","NA","0","1","0","0","0","0","0","0","0","0","17","17","17","0","0","0","NA","0","0","2","0","0","0","2","17","17","17","17","17","Thu Oct 26 10:45:41 2017","Forced-choice identification task with a practice and an experimental phase","yes","NAP_GER_AA_4blocks_noglides.osexp","/Users/aviadalbert/Documents/Academisch/UoC/Dissertation/Experiment/OpenSesame/NAP-FC/NAP_GER_AA_4blocks_noglides","yes","no","sans","no","20","no","black","no","Weiter","yes","768","legacy","7","9","0","/Users/aviadalbert/Documents/Academisch/UoC/Dissertation/Experiment/OpenSesame/NAP-FC/NAP_GER_AA_4blocks_noglides/subject-21.csv","xpyriment","Jazzy James","3.1.9","yes","yes","59a800d99ad5a1025d81bb03","59a801616c613b0251691de0","no","no","0","f","f","space","NA","space","space","f","950","1880","18846","NA","12924","14909","950","2","legacy","1024","1","44100","-16","experiment","mtal","2","0","0","0","1","English","21","","odd","4004808","3985447","NA","NA","4006689","4004805","NA","3315273","4004349","3315273","3315273","3925841","3938769","4026688","4025180","4027639","3957571","3953984","3985447","NA","3882983","3913302","3983797","3953748","4004808","3953988","NA","4026688","4026688","NA","NA","4025176","NAP perception","8","6782","8","yes","1024"
"100","yes","100","865.666666667","865.666666667","white","no","xpyriment","Ich habe die obigen Informationen gelesen und verstanden.","legacy","legacy","0","uniform","1","0","0","undefined","undefined","1","f","2","1","NA","0","1","0","0","0","0","0","0","0","0","18","18","18","0","0","0","NA","0","0","2","0","0","0","2","18","18","18","18","18","Thu Oct 26 10:45:41 2017","Forced-choice identification task with a practice and an experimental phase","yes","NAP_GER_AA_4blocks_noglides.osexp","/Users/aviadalbert/Documents/Academisch/UoC/Dissertation/Experiment/OpenSesame/NAP-FC/NAP_GER_AA_4blocks_noglides","yes","no","sans","no","20","no","black","no","Weiter","yes","768","legacy","8","9","0","/Users/aviadalbert/Documents/Academisch/UoC/Dissertation/Experiment/OpenSesame/NAP-FC/NAP_GER_AA_4blocks_noglides/subject-21.csv","xpyriment","Jazzy James","3.1.9","yes","yes","59a800d99ad5a1025d81bb03","59a801616c613b0251691de0","no","no","0","f","f","space","NA","space","space","f","1009","1880","18846","NA","12924","14909","1009","2","legacy","1024","1","44100","-16","experiment","mlal","2","0","0","0","1","English","21","","odd","4004808","3985447","NA","NA","4006689","4004805","NA","3315273","4004349","3315273","3315273","3925841","3938769","4029419","4027913","4030429","3957571","3953984","3985447","NA","3882983","3913302","3983797","3953748","4004808","3953988","NA","4029419","4029419","NA","NA","4027909","NAP perception","9","7791","9","yes","1024"
"100","yes","100","860","860","white","no","xpyriment","Ich habe die obigen Informationen gelesen und verstanden.","legacy","legacy","0","uniform","1","0","0","undefined","undefined","1","f","2","1","NA","0","1","0","0","0","0","0","0","0","0","19","19","19","0","0","0","NA","0","0","2","0","0","0","2","19","19","19","19","19","Thu Oct 26 10:45:41 2017","Forced-choice identification task with a practice and an experimental phase","yes","NAP_GER_AA_4blocks_noglides.osexp","/Users/aviadalbert/Documents/Academisch/UoC/Dissertation/Experiment/OpenSesame/NAP-FC/NAP_GER_AA_4blocks_noglides","yes","no","sans","no","20","no","black","no","Weiter","yes","768","legacy","9","9","0","/Users/aviadalbert/Documents/Academisch/UoC/Dissertation/Experiment/OpenSesame/NAP-FC/NAP_GER_AA_4blocks_noglides/subject-21.csv","xpyriment","Jazzy James","3.1.9","yes","yes","59a800d99ad5a1025d81bb03","59a801616c613b0251691de0","no","no","0","f","f","space","NA","space","space","f","809","1880","18846","NA","12924","14909","809","2","legacy","1024","1","44100","-16","experiment","smal","2","0","0","0","1","English","21","","odd","4004808","3985447","NA","NA","4006689","4004805","NA","3315273","4004349","3315273","3315273","3925841","3938769","4032194","4030691","4033004","3957571","3953984","3985447","NA","3882983","3913302","3983797","3953748","4004808","3953988","NA","4032194","4032194","NA","NA","4030687","NAP perception","10","8600","10","yes","1024"
"100","yes","100","847.454545455","847.454545455","white","no","xpyriment","Ich habe die obigen Informationen gelesen und verstanden.","legacy","legacy","0","uniform","1","0","0","undefined","undefined","1","j","2","1","NA","0","1","0","0","0","0","0","0","0","0","20","20","20","0","0","0","NA","0","0","2","0","0","0","2","20","20","20","20","20","Thu Oct 26 10:45:41 2017","Forced-choice identification task with a practice and an experimental phase","yes","NAP_GER_AA_4blocks_noglides.osexp","/Users/aviadalbert/Documents/Academisch/UoC/Dissertation/Experiment/OpenSesame/NAP-FC/NAP_GER_AA_4blocks_noglides","yes","no","sans","no","20","no","black","no","Weiter","yes","768","legacy","10","9","0","/Users/aviadalbert/Documents/Academisch/UoC/Dissertation/Experiment/OpenSesame/NAP-FC/NAP_GER_AA_4blocks_noglides/subject-21.csv","xpyriment","Jazzy James","3.1.9","yes","yes","59a800d99ad5a1025d81bb03","59a801616c613b0251691de0","no","no","0","j","f","space","NA","space","space","j","722","1880","18846","NA","12924","14909","722","2","legacy","1024","1","44100","-16","experiment","elpal","2","0","0","0","1","English","21","","odd","4004808","3985447","NA","NA","4006689","4004805","NA","3315273","4004349","3315273","3315273","3925841","3938769","4034787","4033283","4035510","3957571","3953984","3985447","NA","3882983","3913302","3983797","3953748","4004808","3953988","NA","4034787","4034787","NA","NA","4033279","NAP perception","11","9322","11","yes","1024"
"100","yes","100","831.333333333","831.333333333","white","no","xpyriment","Ich habe die obigen Informationen gelesen und verstanden.","legacy","legacy","0","uniform","1","0","0","undefined","undefined","1","j","2","1","NA","0","1","0","0","0","0","0","0","0","0","21","21","21","0","0","0","NA","0","0","2","0","0","0","2","21","21","21","21","21","Thu Oct 26 10:45:41 2017","Forced-choice identification task with a practice and an experimental phase","yes","NAP_GER_AA_4blocks_noglides.osexp","/Users/aviadalbert/Documents/Academisch/UoC/Dissertation/Experiment/OpenSesame/NAP-FC/NAP_GER_AA_4blocks_noglides","yes","no","sans","no","20","no","black","no","Weiter","yes","768","legacy","11","9","0","/Users/aviadalbert/Documents/Academisch/UoC/Dissertation/Experiment/OpenSesame/NAP-FC/NAP_GER_AA_4blocks_noglides/subject-21.csv","xpyriment","Jazzy James","3.1.9","yes","yes","59a800d99ad5a1025d81bb03","59a801616c613b0251691de0","no","no","0","j","f","space","NA","space","space","j","654","1880","18846","NA","12924","14909","654","2","legacy","1024","1","44100","-16","experiment","ʃemal","2","0","0","0","1","English","21","","odd","4004808","3985447","NA","NA","4006689","4004805","NA","3315273","4004349","3315273","3315273","3925841","3938769","4037287","4035782","4037943","3957571","3953984","3985447","NA","3882983","3913302","3983797","3953748","4004808","3953988","NA","4037287","4037287","NA","NA","4035778","NAP perception","12","9976","12","yes","1024"
"100","yes","100","817.461538462","817.461538462","white","no","xpyriment","Ich habe die obigen Informationen gelesen und verstanden.","legacy","legacy","0","uniform","1","0","0","undefined","undefined","1","f","2","1","NA","0","1","0","0","0","0","0","0","0","0","22","22","22","0","0","0","NA","0","0","2","0","0","0","2","22","22","22","22","22","Thu Oct 26 10:45:41 2017","Forced-choice identification task with a practice and an experimental phase","yes","NAP_GER_AA_4blocks_noglides.osexp","/Users/aviadalbert/Documents/Academisch/UoC/Dissertation/Experiment/OpenSesame/NAP-FC/NAP_GER_AA_4blocks_noglides","yes","no","sans","no","20","no","black","no","Weiter","yes","768","legacy","12","9","0","/Users/aviadalbert/Documents/Academisch/UoC/Dissertation/Experiment/OpenSesame/NAP-FC/NAP_GER_AA_4blocks_noglides/subject-21.csv","xpyriment","Jazzy James","3.1.9","yes","yes","59a800d99ad5a1025d81bb03","59a801616c613b0251691de0","no","no","0","f","f","space","NA","space","space","f","651","1880","18846","NA","12924","14909","651","2","legacy","1024","1","44100","-16","experiment","zval","2","0","0","0","1","English","21","","odd","4004808","3985447","NA","NA","4006689","4004805","NA","3315273","4004349","3315273","3315273","3925841","3938769","4039726","4038219","4040379","3957571","3953984","3985447","NA","3882983","3913302","3983797","3953748","4004808","3953988","NA","4039726","4039726","NA","NA","4038215","NAP perception","13","10627","13","yes","1024"
"92.8571428571","yes","92.8571428571","831.142857143","831.142857143","white","no","xpyriment","Ich habe die obigen Informationen gelesen und verstanden.","legacy","legacy","0","uniform","0","0","0","undefined","undefined","0","j","2","1","NA","0","1","0","0","0","0","0","0","0","0","23","23","23","0","0","0","NA","0","0","2","0","0","0","2","23","23","23","23","23","Thu Oct 26 10:45:41 2017","Forced-choice identification task with a practice and an experimental phase","yes","NAP_GER_AA_4blocks_noglides.osexp","/Users/aviadalbert/Documents/Academisch/UoC/Dissertation/Experiment/OpenSesame/NAP-FC/NAP_GER_AA_4blocks_noglides","yes","no","sans","no","20","no","black","no","Weiter","yes","768","legacy","13","9","0","/Users/aviadalbert/Documents/Academisch/UoC/Dissertation/Experiment/OpenSesame/NAP-FC/NAP_GER_AA_4blocks_noglides/subject-21.csv","xpyriment","Jazzy James","3.1.9","yes","yes","59a800d99ad5a1025d81bb03","59a801616c613b0251691de0","no","no","0","f","f","space","NA","space","space","f","1009","1880","18846","NA","12924","14909","1009","2","legacy","1024","1","44100","-16","experiment","efsal","2","0","0","0","1","English","21","","odd","4004808","3985447","NA","NA","4006689","4004805","NA","3315273","4004349","3315273","3315273","3925841","3938769","4042143","4040640","4043154","3957571","3953984","3985447","NA","3882983","3913302","3983797","3953748","4004808","3953988","NA","4042143","4042143","NA","NA","4040636","NAP perception","13","11636","14","yes","1024"
"86.6666666667","yes","86.6666666667","848.733333333","848.733333333","white","no","xpyriment","Ich habe die obigen Informationen gelesen und verstanden.","legacy","legacy","0","uniform","0","0","0","undefined","undefined","0","j","2","1","NA","0","1","0","0","0","0","0","0","0","0","24","24","24","0","0","0","NA","0","0","2","0","0","0","2","24","24","24","24","24","Thu Oct 26 10:45:41 2017","Forced-choice identification task with a practice and an experimental phase","yes","NAP_GER_AA_4blocks_noglides.osexp","/Users/aviadalbert/Documents/Academisch/UoC/Dissertation/Experiment/OpenSesame/NAP-FC/NAP_GER_AA_4blocks_noglides","yes","no","sans","no","20","no","black","no","Weiter","yes","768","legacy","14","9","0","/Users/aviadalbert/Documents/Academisch/UoC/Dissertation/Experiment/OpenSesame/NAP-FC/NAP_GER_AA_4blocks_noglides/subject-21.csv","xpyriment","Jazzy James","3.1.9","yes","yes","59a800d99ad5a1025d81bb03","59a801616c613b0251691de0","no","no","0","f","f","space","NA","space","space","f","1095","1880","18846","NA","12924","14909","1095","2","legacy","1024","1","44100","-16","experiment","eʃpal","2","0","0","0","1","English","21","","odd","4004808","3985447","NA","NA","4006689","4004805","NA","3315273","4004349","3315273","3315273","3925841","3938769","4044939","4043431","4046035","3957571","3953984","3985447","NA","3882983","3913302","3983797","3953748","4004808","3953988","NA","4044939","4044939","NA","NA","4043427","NAP perception","13","12731","15","yes","1024"
"87.5","yes","87.5","878.375","878.375","white","no","xpyriment","Ich habe die obigen Informationen gelesen und verstanden.","legacy","legacy","0","uniform","1","0","0","undefined","undefined","1","f","2","1","NA","0","1","0","0","0","0","0","0","0","0","25","25","25","0","0","0","NA","0","0","2","0","0","0","2","25","25","25","25","25","Thu Oct 26 10:45:41 2017","Forced-choice identification task with a practice and an experimental phase","yes","NAP_GER_AA_4blocks_noglides.osexp","/Users/aviadalbert/Documents/Academisch/UoC/Dissertation/Experiment/OpenSesame/NAP-FC/NAP_GER_AA_4blocks_noglides","yes","no","sans","no","20","no","black","no","Weiter","yes","768","legacy","15","9","0","/Users/aviadalbert/Documents/Academisch/UoC/Dissertation/Experiment/OpenSesame/NAP-FC/NAP_GER_AA_4blocks_noglides/subject-21.csv","xpyriment","Jazzy James","3.1.9","yes","yes","59a800d99ad5a1025d81bb03","59a801616c613b0251691de0","no","no","0","f","f","space","NA","space","space","f","1323","1880","18846","NA","12924","14909","1323","2","legacy","1024","1","44100","-16","experiment","mtal","2","0","0","0","1","English","21","","odd","4004808","3985447","NA","NA","4006689","4004805","NA","3315273","4004349","3315273","3315273","3925841","3938769","4047834","4046330","4049158","3957571","3953984","3985447","NA","3882983","3913302","3983797","3953748","4004808","3953988","NA","4047833","4047834","NA","NA","4046326","NAP perception","14","14054","16","yes","1024"
"88.2352941176","yes","88.2352941176","876","876","white","no","xpyriment","Ich habe die obigen Informationen gelesen und verstanden.","legacy","legacy","0","uniform","1","0","0","undefined","undefined","1","f","2","1","NA","0","1","0","0","0","0","0","0","0","0","26","26","26","0","0","0","NA","0","0","2","0","0","0","2","26","26","26","26","26","Thu Oct 26 10:45:41 2017","Forced-choice identification task with a practice and an experimental phase","yes","NAP_GER_AA_4blocks_noglides.osexp","/Users/aviadalbert/Documents/Academisch/UoC/Dissertation/Experiment/OpenSesame/NAP-FC/NAP_GER_AA_4blocks_noglides","yes","no","sans","no","20","no","black","no","Weiter","yes","768","legacy","16","9","0","/Users/aviadalbert/Documents/Academisch/UoC/Dissertation/Experiment/OpenSesame/NAP-FC/NAP_GER_AA_4blocks_noglides/subject-21.csv","xpyriment","Jazzy James","3.1.9","yes","yes","59a800d99ad5a1025d81bb03","59a801616c613b0251691de0","no","no","0","f","f","space","NA","space","space","f","838","1880","18846","NA","12924","14909","838","2","legacy","1024","1","44100","-16","experiment","nval","2","0","0","0","1","English","21","","odd","4004808","3985447","NA","NA","4006689","4004805","NA","3315273","4004349","3315273","3315273","3925841","3938769","4050965","4049461","4051804","3957571","3953984","3985447","NA","3882983","3913302","3983797","3953748","4004808","3953988","NA","4050965","4050965","NA","NA","4049457","NAP perception","15","14892","17","yes","1024"
"88.8888888889","yes","88.8888888889","898.944444444","898.944444444","white","no","xpyriment","Ich habe die obigen Informationen gelesen und verstanden.","legacy","legacy","0","uniform","1","0","0","undefined","undefined","1","j","2","1","NA","0","1","0","0","0","0","0","0","0","0","27","27","27","0","0","0","NA","0","0","2","0","0","0","2","27","27","27","27","27","Thu Oct 26 10:45:41 2017","Forced-choice identification task with a practice and an experimental phase","yes","NAP_GER_AA_4blocks_noglides.osexp","/Users/aviadalbert/Documents/Academisch/UoC/Dissertation/Experiment/OpenSesame/NAP-FC/NAP_GER_AA_4blocks_noglides","yes","no","sans","no","20","no","black","no","Weiter","yes","768","legacy","17","9","0","/Users/aviadalbert/Documents/Academisch/UoC/Dissertation/Experiment/OpenSesame/NAP-FC/NAP_GER_AA_4blocks_noglides/subject-21.csv","xpyriment","Jazzy James","3.1.9","yes","yes","59a800d99ad5a1025d81bb03","59a801616c613b0251691de0","no","no","0","j","f","space","NA","space","space","j","1289","1880","18846","NA","12924","14909","1289","2","legacy","1024","1","44100","-16","experiment","eftal","2","0","0","0","1","English","21","","odd","4004808","3985447","NA","NA","4006689","4004805","NA","3315273","4004349","3315273","3315273","3925841","3938769","4053580","4052075","4054870","3957571","3953984","3985447","NA","3882983","3913302","3983797","3953748","4004808","3953988","NA","4053580","4053580","NA","NA","4052072","NAP perception","16","16181","18","yes","1024"
"89.4736842105","yes","89.4736842105","907.052631579","907.052631579","white","no","xpyriment","Ich habe die obigen Informationen gelesen und verstanden.","legacy","legacy","0","uniform","1","0","0","undefined","undefined","1","f","2","1","NA","0","1","0","0","0","0","0","0","0","0","28","28","28","0","0","0","NA","0","0","2","0","0","0","2","28","28","28","28","28","Thu Oct 26 10:45:41 2017","Forced-choice identification task with a practice and an experimental phase","yes","NAP_GER_AA_4blocks_noglides.osexp","/Users/aviadalbert/Documents/Academisch/UoC/Dissertation/Experiment/OpenSesame/NAP-FC/NAP_GER_AA_4blocks_noglides","yes","no","sans","no","20","no","black","no","Weiter","yes","768","legacy","18","9","0","/Users/aviadalbert/Documents/Academisch/UoC/Dissertation/Experiment/OpenSesame/NAP-FC/NAP_GER_AA_4blocks_noglides/subject-21.csv","xpyriment","Jazzy James","3.1.9","yes","yes","59a800d99ad5a1025d81bb03","59a801616c613b0251691de0","no","no","0","f","f","space","NA","space","space","f","1053","1880","18846","NA","12924","14909","1053","2","legacy","1024","1","44100","-16","experiment","lpal","2","0","0","0","1","English","21","","odd","4004808","3985447","NA","NA","4006689","4004805","NA","3315273","4004349","3315273","3315273","3925841","3938769","4056654","4055149","4057709","3957571","3953984","3985447","NA","3882983","3913302","3983797","3953748","4004808","3953988","NA","4056654","4056654","NA","NA","4055145","NAP perception","17","17234","19","yes","1024"
"90","yes","90","907.7","907.7","white","no","xpyriment","Ich habe die obigen Informationen gelesen und verstanden.","legacy","legacy","0","uniform","1","0","0","undefined","undefined","1","f","2","1","NA","0","1","0","0","0","0","0","0","0","0","29","29","29","0","0","0","NA","0","0","2","0","0","0","2","29","29","29","29","29","Thu Oct 26 10:45:41 2017","Forced-choice identification task with a practice and an experimental phase","yes","NAP_GER_AA_4blocks_noglides.osexp","/Users/aviadalbert/Documents/Academisch/UoC/Dissertation/Experiment/OpenSesame/NAP-FC/NAP_GER_AA_4blocks_noglides","yes","no","sans","no","20","no","black","no","Weiter","yes","768","legacy","19","9","0","/Users/aviadalbert/Documents/Academisch/UoC/Dissertation/Experiment/OpenSesame/NAP-FC/NAP_GER_AA_4blocks_noglides/subject-21.csv","xpyriment","Jazzy James","3.1.9","yes","yes","59a800d99ad5a1025d81bb03","59a801616c613b0251691de0","no","no","0","f","f","space","NA","space","space","f","920","1880","18846","NA","12924","14909","920","2","legacy","1024","1","44100","-16","experiment","spal","2","0","0","0","1","English","21","","odd","4004808","3985447","NA","NA","4006689","4004805","NA","3315273","4004349","3315273","3315273","3925841","3938769","4059503","4057999","4060425","3957571","3953984","3985447","NA","3882983","3913302","3983797","3953748","4004808","3953988","NA","4059502","4059503","NA","NA","4057995","NAP perception","18","18154","20","yes","1024"
"90.4761904762","yes","90.4761904762","916.380952381","916.380952381","white","no","xpyriment","Ich habe die obigen Informationen gelesen und verstanden.","legacy","legacy","0","uniform","1","0","0","undefined","undefined","1","f","2","1","NA","0","1","0","0","0","0","0","0","0","0","30","30","30","0","0","0","NA","0","0","2","0","0","0","2","30","30","30","30","30","Thu Oct 26 10:45:41 2017","Forced-choice identification task with a practice and an experimental phase","yes","NAP_GER_AA_4blocks_noglides.osexp","/Users/aviadalbert/Documents/Academisch/UoC/Dissertation/Experiment/OpenSesame/NAP-FC/NAP_GER_AA_4blocks_noglides","yes","no","sans","no","20","no","black","no","Weiter","yes","768","legacy","20","9","0","/Users/aviadalbert/Documents/Academisch/UoC/Dissertation/Experiment/OpenSesame/NAP-FC/NAP_GER_AA_4blocks_noglides/subject-21.csv","xpyriment","Jazzy James","3.1.9","yes","yes","59a800d99ad5a1025d81bb03","59a801616c613b0251691de0","no","no","0","f","f","space","NA","space","space","f","1090","1880","18846","NA","12924","14909","1090","2","legacy","1024","1","44100","-16","experiment","npal","2","0","0","0","1","English","21","","odd","4004808","3985447","NA","NA","4006689","4004805","NA","3315273","4004349","3315273","3315273","3925841","3938769","4062199","4060696","4063290","3957571","3953984","3985447","NA","3882983","3913302","3983797","3953748","4004808","3953988","NA","4062199","4062199","NA","NA","4060692","NAP perception","19","19244","21","yes","1024"
"86.3636363636","yes","86.3636363636","941.590909091","941.590909091","white","no","xpyriment","Ich habe die obigen Informationen gelesen und verstanden.","legacy","legacy","0","uniform","0","0","0","undefined","undefined","0","f","2","1","NA","0","1","0","0","0","0","0","0","0","0","31","31","31","0","0","0","NA","0","0","2","0","0","0","2","31","31","31","31","31","Thu Oct 26 10:45:41 2017","Forced-choice identification task with a practice and an experimental phase","yes","NAP_GER_AA_4blocks_noglides.osexp","/Users/aviadalbert/Documents/Academisch/UoC/Dissertation/Experiment/OpenSesame/NAP-FC/NAP_GER_AA_4blocks_noglides","yes","no","sans","no","20","no","black","no","Weiter","yes","768","legacy","21","9","0","/Users/aviadalbert/Documents/Academisch/UoC/Dissertation/Experiment/OpenSesame/NAP-FC/NAP_GER_AA_4blocks_noglides/subject-21.csv","xpyriment","Jazzy James","3.1.9","yes","yes","59a800d99ad5a1025d81bb03","59a801616c613b0251691de0","no","no","0","j","f","space","NA","space","space","j","1471","1880","18846","NA","12924","14909","1471","2","legacy","1024","1","44100","-16","experiment","lfal","2","0","0","0","1","English","21","","odd","4004808","3985447","NA","NA","4006689","4004805","NA","3315273","4004349","3315273","3315273","3925841","3938769","4065084","4063581","4066556","3957571","3953984","3985447","NA","3882983","3913302","3983797","3953748","4004808","3953988","NA","4065084","4065084","NA","NA","4063577","NAP perception","19","20715","22","yes","1024"
"86.9565217391","yes","86.9565217391","945.47826087","945.47826087","white","no","xpyriment","Ich habe die obigen Informationen gelesen und verstanden.","legacy","legacy","0","uniform","1","0","0","undefined","undefined","1","f","2","1","NA","0","1","0","0","0","0","0","0","0","0","32","32","32","0","0","0","NA","0","0","2","0","0","0","2","32","32","32","32","32","Thu Oct 26 10:45:41 2017","Forced-choice identification task with a practice and an experimental phase","yes","NAP_GER_AA_4blocks_noglides.osexp","/Users/aviadalbert/Documents/Academisch/UoC/Dissertation/Experiment/OpenSesame/NAP-FC/NAP_GER_AA_4blocks_noglides","yes","no","sans","no","20","no","black","no","Weiter","yes","768","legacy","22","9","0","/Users/aviadalbert/Documents/Academisch/UoC/Dissertation/Experiment/OpenSesame/NAP-FC/NAP_GER_AA_4blocks_noglides/subject-21.csv","xpyriment","Jazzy James","3.1.9","yes","yes","59a800d99ad5a1025d81bb03","59a801616c613b0251691de0","no","no","0","f","f","space","NA","space","space","f","1031","1880","18846","NA","12924","14909","1031","2","legacy","1024","1","44100","-16","experiment","fnal","2","0","0","0","1","English","21","","odd","4004808","3985447","NA","NA","4006689","4004805","NA","3315273","4004349","3315273","3315273","3925841","3938769","4068335","4066832","4069367","3957571","3953984","3985447","NA","3882983","3913302","3983797","3953748","4004808","3953988","NA","4068335","4068335","NA","NA","4066828","NAP perception","20","21746","23","yes","1024"
"87.5","yes","87.5","943.083333333","943.083333333","white","no","xpyriment","Ich habe die obigen Informationen gelesen und verstanden.","legacy","legacy","0","uniform","1","0","0","undefined","undefined","1","f","2","1","NA","0","1","0","0","0","0","0","0","0","0","33","33","33","0","0","0","NA","0","0","2","0","0","0","2","33","33","33","33","33","Thu Oct 26 10:45:41 2017","Forced-choice identification task with a practice and an experimental phase","yes","NAP_GER_AA_4blocks_noglides.osexp","/Users/aviadalbert/Documents/Academisch/UoC/Dissertation/Experiment/OpenSesame/NAP-FC/NAP_GER_AA_4blocks_noglides","yes","no","sans","no","20","no","black","no","Weiter","yes","768","legacy","23","9","0","/Users/aviadalbert/Documents/Academisch/UoC/Dissertation/Experiment/OpenSesame/NAP-FC/NAP_GER_AA_4blocks_noglides/subject-21.csv","xpyriment","Jazzy James","3.1.9","yes","yes","59a800d99ad5a1025d81bb03","59a801616c613b0251691de0","no","no","0","f","f","space","NA","space","space","f","888","1880","18846","NA","12924","14909","888","2","legacy","1024","1","44100","-16","experiment","vzal","2","0","0","0","1","English","21","","odd","4004808","3985447","NA","NA","4006689","4004805","NA","3315273","4004349","3315273","3315273","3925841","3938769","4071155","4069649","4072044","3957571","3953984","3985447","NA","3882983","3913302","3983797","3953748","4004808","3953988","NA","4071154","4071154","NA","NA","4069645","NAP perception","21","22634","24","yes","1024"
"88","yes","88","955","955","white","no","xpyriment","Ich habe die obigen Informationen gelesen und verstanden.","legacy","legacy","0","uniform","1","0","0","undefined","undefined","1","j","2","1","NA","0","1","0","0","0","0","0","0","0","0","34","34","34","0","0","0","NA","0","0","2","0","0","0","2","34","34","34","34","34","Thu Oct 26 10:45:41 2017","Forced-choice identification task with a practice and an experimental phase","yes","NAP_GER_AA_4blocks_noglides.osexp","/Users/aviadalbert/Documents/Academisch/UoC/Dissertation/Experiment/OpenSesame/NAP-FC/NAP_GER_AA_4blocks_noglides","yes","no","sans","no","20","no","black","no","Weiter","yes","768","legacy","24","9","0","/Users/aviadalbert/Documents/Academisch/UoC/Dissertation/Experiment/OpenSesame/NAP-FC/NAP_GER_AA_4blocks_noglides/subject-21.csv","xpyriment","Jazzy James","3.1.9","yes","yes","59a800d99ad5a1025d81bb03","59a801616c613b0251691de0","no","no","0","j","f","space","NA","space","space","j","1241","1880","18846","NA","12924","14909","1241","2","legacy","1024","1","44100","-16","experiment","nepal","2","0","0","0","1","English","21","","odd","4004808","3985447","NA","NA","4006689","4004805","NA","3315273","4004349","3315273","3315273","3925841","3938769","4073822","4072315","4075064","3957571","3953984","3985447","NA","3882983","3913302","3983797","3953748","4004808","3953988","NA","4073822","4073822","NA","NA","4072311","NAP perception","22","23875","25","yes","1024"
"84.6153846154","yes","84.6153846154","963","963","white","no","xpyriment","Ich habe die obigen Informationen gelesen und verstanden.","legacy","legacy","0","uniform","0","0","0","undefined","undefined","0","j","2","1","NA","0","1","0","0","0","0","0","0","0","0","35","35","35","0","0","0","NA","0","0","2","0","0","0","2","35","35","35","35","35","Thu Oct 26 10:45:41 2017","Forced-choice identification task with a practice and an experimental phase","yes","NAP_GER_AA_4blocks_noglides.osexp","/Users/aviadalbert/Documents/Academisch/UoC/Dissertation/Experiment/OpenSesame/NAP-FC/NAP_GER_AA_4blocks_noglides","yes","no","sans","no","20","no","black","no","Weiter","yes","768","legacy","25","9","0","/Users/aviadalbert/Documents/Academisch/UoC/Dissertation/Experiment/OpenSesame/NAP-FC/NAP_GER_AA_4blocks_noglides/subject-21.csv","xpyriment","Jazzy James","3.1.9","yes","yes","59a800d99ad5a1025d81bb03","59a801616c613b0251691de0","no","no","0","f","f","space","NA","space","space","f","1163","1880","18846","NA","12924","14909","1163","2","legacy","1024","1","44100","-16","experiment","emsal","2","0","0","0","1","English","21","","odd","4004808","3985447","NA","NA","4006689","4004805","NA","3315273","4004349","3315273","3315273","3925841","3938769","4076848","4075345","4078012","3957571","3953984","3985447","NA","3882983","3913302","3983797","3953748","4004808","3953988","NA","4076848","4076848","NA","NA","4075341","NAP perception","22","25038","26","yes","1024"
"85.1851851852","yes","85.1851851852","956","956","white","no","xpyriment","Ich habe die obigen Informationen gelesen und verstanden.","legacy","legacy","0","uniform","1","0","0","undefined","undefined","1","j","2","1","NA","0","1","0","0","0","0","0","0","0","0","36","36","36","0","0","0","NA","0","0","2","0","0","0","2","36","36","36","36","36","Thu Oct 26 10:45:41 2017","Forced-choice identification task with a practice and an experimental phase","yes","NAP_GER_AA_4blocks_noglides.osexp","/Users/aviadalbert/Documents/Academisch/UoC/Dissertation/Experiment/OpenSesame/NAP-FC/NAP_GER_AA_4blocks_noglides","yes","no","sans","no","20","no","black","no","Weiter","yes","768","legacy","26","9","0","/Users/aviadalbert/Documents/Academisch/UoC/Dissertation/Experiment/OpenSesame/NAP-FC/NAP_GER_AA_4blocks_noglides/subject-21.csv","xpyriment","Jazzy James","3.1.9","yes","yes","59a800d99ad5a1025d81bb03","59a801616c613b0251691de0","no","no","0","j","f","space","NA","space","space","j","774","1880","18846","NA","12924","14909","774","2","legacy","1024","1","44100","-16","experiment","neval","2","0","0","0","1","English","21","","odd","4004808","3985447","NA","NA","4006689","4004805","NA","3315273","4004349","3315273","3315273","3925841","3938769","4079806","4078300","4080581","3957571","3953984","3985447","NA","3882983","3913302","3983797","3953748","4004808","3953988","NA","4079806","4079806","NA","NA","4078296","NAP perception","23","25812","27","yes","1024"
"85.7142857143","yes","85.7142857143","957.25","957.25","white","no","xpyriment","Ich habe die obigen Informationen gelesen und verstanden.","legacy","legacy","0","uniform","1","0","0","undefined","undefined","1","f","2","1","NA","0","1","0","0","0","0","0","0","0","0","37","37","37","0","0","0","NA","0","0","2","0","0","0","2","37","37","37","37","37","Thu Oct 26 10:45:41 2017","Forced-choice identification task with a practice and an experimental phase","yes","NAP_GER_AA_4blocks_noglides.osexp","/Users/aviadalbert/Documents/Academisch/UoC/Dissertation/Experiment/OpenSesame/NAP-FC/NAP_GER_AA_4blocks_noglides","yes","no","sans","no","20","no","black","no","Weiter","yes","768","legacy","27","9","0","/Users/aviadalbert/Documents/Academisch/UoC/Dissertation/Experiment/OpenSesame/NAP-FC/NAP_GER_AA_4blocks_noglides/subject-21.csv","xpyriment","Jazzy James","3.1.9","yes","yes","59a800d99ad5a1025d81bb03","59a801616c613b0251691de0","no","no","0","f","f","space","NA","space","space","f","991","1880","18846","NA","12924","14909","991","2","legacy","1024","1","44100","-16","experiment","nfal","2","0","0","0","1","English","21","","odd","4004808","3985447","NA","NA","4006689","4004805","NA","3315273","4004349","3315273","3315273","3925841","3938769","4082371","4080867","4083363","3957571","3953984","3985447","NA","3882983","3913302","3983797","3953748","4004808","3953988","NA","4082370","4082371","NA","NA","4080863","NAP perception","24","26803","28","yes","1024"
"86.2068965517","yes","86.2068965517","952.103448276","952.103448276","white","no","xpyriment","Ich habe die obigen Informationen gelesen und verstanden.","legacy","legacy","0","uniform","1","0","0","undefined","undefined","1","j","2","1","NA","0","1","0","0","0","0","0","0","0","0","38","38","38","0","0","0","NA","0","0","2","0","0","0","2","38","38","38","38","38","Thu Oct 26 10:45:41 2017","Forced-choice identification task with a practice and an experimental phase","yes","NAP_GER_AA_4blocks_noglides.osexp","/Users/aviadalbert/Documents/Academisch/UoC/Dissertation/Experiment/OpenSesame/NAP-FC/NAP_GER_AA_4blocks_noglides","yes","no","sans","no","20","no","black","no","Weiter","yes","768","legacy","28","9","0","/Users/aviadalbert/Documents/Academisch/UoC/Dissertation/Experiment/OpenSesame/NAP-FC/NAP_GER_AA_4blocks_noglides/subject-21.csv","xpyriment","Jazzy James","3.1.9","yes","yes","59a800d99ad5a1025d81bb03","59a801616c613b0251691de0","no","no","0","j","f","space","NA","space","space","j","808","1880","18846","NA","12924","14909","808","2","legacy","1024","1","44100","-16","experiment","venal","2","0","0","0","1","English","21","","odd","4004808","3985447","NA","NA","4006689","4004805","NA","3315273","4004349","3315273","3315273","3925841","3938769","4085168","4083662","4085978","3957571","3953984","3985447","NA","3882983","3913302","3983797","3953748","4004808","3953988","NA","4085168","4085168","NA","NA","4083659","NAP perception","25","27611","29","yes","1024"
"86.6666666667","yes","86.6666666667","950.733333333","950.733333333","white","no","xpyriment","Ich habe die obigen Informationen gelesen und verstanden.","legacy","legacy","0","uniform","1","0","0","undefined","undefined","1","j","2","1","NA","0","1","0","0","0","0","0","0","0","0","39","39","39","0","0","0","NA","0","0","2","0","0","0","2","39","39","39","39","39","Thu Oct 26 10:45:41 2017","Forced-choice identification task with a practice and an experimental phase","yes","NAP_GER_AA_4blocks_noglides.osexp","/Users/aviadalbert/Documents/Academisch/UoC/Dissertation/Experiment/OpenSesame/NAP-FC/NAP_GER_AA_4blocks_noglides","yes","no","sans","no","20","no","black","no","Weiter","yes","768","legacy","29","9","0","/Users/aviadalbert/Documents/Academisch/UoC/Dissertation/Experiment/OpenSesame/NAP-FC/NAP_GER_AA_4blocks_noglides/subject-21.csv","xpyriment","Jazzy James","3.1.9","yes","yes","59a800d99ad5a1025d81bb03","59a801616c613b0251691de0","no","no","0","j","f","space","NA","space","space","j","911","1880","18846","NA","12924","14909","911","2","legacy","1024","1","44100","-16","experiment","enval","2","0","0","0","1","English","21","","odd","4004808","3985447","NA","NA","4006689","4004805","NA","3315273","4004349","3315273","3315273","3925841","3938769","4087759","4086255","4088672","3957571","3953984","3985447","NA","3882983","3913302","3983797","3953748","4004808","3953988","NA","4087759","4087759","NA","NA","4086251","NAP perception","26","28522","30","yes","1024"
"87.0967741935","yes","87.0967741935","948.193548387","948.193548387","white","no","xpyriment","Ich habe die obigen Informationen gelesen und verstanden.","legacy","legacy","0","uniform","1","0","0","undefined","undefined","1","f","2","1","NA","0","1","0","0","0","0","0","0","0","0","40","40","40","0","0","0","NA","0","0","2","0","0","0","2","40","40","40","40","40","Thu Oct 26 10:45:41 2017","Forced-choice identification task with a practice and an experimental phase","yes","NAP_GER_AA_4blocks_noglides.osexp","/Users/aviadalbert/Documents/Academisch/UoC/Dissertation/Experiment/OpenSesame/NAP-FC/NAP_GER_AA_4blocks_noglides","yes","no","sans","no","20","no","black","no","Weiter","yes","768","legacy","30","9","0","/Users/aviadalbert/Documents/Academisch/UoC/Dissertation/Experiment/OpenSesame/NAP-FC/NAP_GER_AA_4blocks_noglides/subject-21.csv","xpyriment","Jazzy James","3.1.9","yes","yes","59a800d99ad5a1025d81bb03","59a801616c613b0251691de0","no","no","0","f","f","space","NA","space","space","f","872","1880","18846","NA","12924","14909","872","2","legacy","1024","1","44100","-16","experiment","mlal","2","0","0","0","1","English","21","","odd","4004808","3985447","NA","NA","4006689","4004805","NA","3315273","4004349","3315273","3315273","3925841","3938769","4090468","4088964","4091342","3957571","3953984","3985447","NA","3882983","3913302","3983797","3953748","4004808","3953988","NA","4090467","4090467","NA","NA","4088960","NAP perception","27","29394","31","yes","1024"
"87.5","yes","87.5","942.34375","942.34375","white","no","xpyriment","Ich habe die obigen Informationen gelesen und verstanden.","legacy","legacy","0","uniform","1","0","0","undefined","undefined","1","j","2","1","NA","0","1","0","0","0","0","0","0","0","0","41","41","41","0","0","0","NA","0","0","2","0","0","0","2","41","41","41","41","41","Thu Oct 26 10:45:41 2017","Forced-choice identification task with a practice and an experimental phase","yes","NAP_GER_AA_4blocks_noglides.osexp","/Users/aviadalbert/Documents/Academisch/UoC/Dissertation/Experiment/OpenSesame/NAP-FC/NAP_GER_AA_4blocks_noglides","yes","no","sans","no","20","no","black","no","Weiter","yes","768","legacy","31","9","0","/Users/aviadalbert/Documents/Academisch/UoC/Dissertation/Experiment/OpenSesame/NAP-FC/NAP_GER_AA_4blocks_noglides/subject-21.csv","xpyriment","Jazzy James","3.1.9","yes","yes","59a800d99ad5a1025d81bb03","59a801616c613b0251691de0","no","no","0","j","f","space","NA","space","space","j","761","1880","18846","NA","12924","14909","761","2","legacy","1024","1","44100","-16","experiment","elfal","2","0","0","0","1","English","21","","odd","4004808","3985447","NA","NA","4006689","4004805","NA","3315273","4004349","3315273","3315273","3925841","3938769","4093125","4091621","4093888","3957571","3953984","3985447","NA","3882983","3913302","3983797","3953748","4004808","3953988","NA","4093124","4093125","NA","NA","4091617","NAP perception","28","30155","32","yes","1024"
"87.8787878788","yes","87.8787878788","969.303030303","969.303030303","white","no","xpyriment","Ich habe die obigen Informationen gelesen und verstanden.","legacy","legacy","0","uniform","1","0","0","undefined","undefined","1","j","2","1","NA","0","1","0","0","0","0","0","0","0","0","42","42","42","0","0","0","NA","0","0","2","0","0","0","2","42","42","42","42","42","Thu Oct 26 10:45:41 2017","Forced-choice identification task with a practice and an experimental phase","yes","NAP_GER_AA_4blocks_noglides.osexp","/Users/aviadalbert/Documents/Academisch/UoC/Dissertation/Experiment/OpenSesame/NAP-FC/NAP_GER_AA_4blocks_noglides","yes","no","sans","no","20","no","black","no","Weiter","yes","768","legacy","32","9","0","/Users/aviadalbert/Documents/Academisch/UoC/Dissertation/Experiment/OpenSesame/NAP-FC/NAP_GER_AA_4blocks_noglides/subject-21.csv","xpyriment","Jazzy James","3.1.9","yes","yes","59a800d99ad5a1025d81bb03","59a801616c613b0251691de0","no","no","0","j","f","space","NA","space","space","j","1832","1880","18846","NA","12924","14909","1832","2","legacy","1024","1","44100","-16","experiment","sefal","2","0","0","0","1","English","21","","odd","4004808","3985447","NA","NA","4006689","4004805","NA","3315273","4004349","3315273","3315273","3925841","3938769","4095677","4094171","4097511","3957571","3953984","3985447","NA","3882983","3913302","3983797","3953748","4004808","3953988","NA","4095677","4095677","NA","NA","4094166","NAP perception","29","31987","33","yes","1024"
"88.2352941176","yes","88.2352941176","967.382352941","967.382352941","white","no","xpyriment","Ich habe die obigen Informationen gelesen und verstanden.","legacy","legacy","0","uniform","1","0","0","undefined","undefined","1","f","2","1","NA","0","1","0","0","0","0","0","0","0","0","43","43","43","0","0","0","NA","0","0","2","0","0","0","2","43","43","43","43","43","Thu Oct 26 10:45:41 2017","Forced-choice identification task with a practice and an experimental phase","yes","NAP_GER_AA_4blocks_noglides.osexp","/Users/aviadalbert/Documents/Academisch/UoC/Dissertation/Experiment/OpenSesame/NAP-FC/NAP_GER_AA_4blocks_noglides","yes","no","sans","no","20","no","black","no","Weiter","yes","768","legacy","33","9","0","/Users/aviadalbert/Documents/Academisch/UoC/Dissertation/Experiment/OpenSesame/NAP-FC/NAP_GER_AA_4blocks_noglides/subject-21.csv","xpyriment","Jazzy James","3.1.9","yes","yes","59a800d99ad5a1025d81bb03","59a801616c613b0251691de0","no","no","0","f","f","space","NA","space","space","f","904","1880","18846","NA","12924","14909","904","2","legacy","1024","1","44100","-16","experiment","ʃpal","2","0","0","0","1","English","21","","odd","4004808","3985447","NA","NA","4006689","4004805","NA","3315273","4004349","3315273","3315273","3925841","3938769","4099303","4097800","4100208","3957571","3953984","3985447","NA","3882983","3913302","3983797","3953748","4004808","3953988","NA","4099303","4099303","NA","NA","4097796","NAP perception","30","32891","34","yes","1024"
"88.5714285714","yes","88.5714285714","964.771428571","964.771428571","white","no","xpyriment","Ich habe die obigen Informationen gelesen und verstanden.","legacy","legacy","0","uniform","1","0","0","undefined","undefined","1","f","2","1","NA","0","1","0","0","0","0","0","0","0","0","44","44","44","0","0","0","NA","0","0","2","0","0","0","2","44","44","44","44","44","Thu Oct 26 10:45:41 2017","Forced-choice identification task with a practice and an experimental phase","yes","NAP_GER_AA_4blocks_noglides.osexp","/Users/aviadalbert/Documents/Academisch/UoC/Dissertation/Experiment/OpenSesame/NAP-FC/NAP_GER_AA_4blocks_noglides","yes","no","sans","no","20","no","black","no","Weiter","yes","768","legacy","34","9","0","/Users/aviadalbert/Documents/Academisch/UoC/Dissertation/Experiment/OpenSesame/NAP-FC/NAP_GER_AA_4blocks_noglides/subject-21.csv","xpyriment","Jazzy James","3.1.9","yes","yes","59a800d99ad5a1025d81bb03","59a801616c613b0251691de0","no","no","0","f","f","space","NA","space","space","f","876","1880","18846","NA","12924","14909","876","2","legacy","1024","1","44100","-16","experiment","ftal","2","0","0","0","1","English","21","","odd","4004808","3985447","NA","NA","4006689","4004805","NA","3315273","4004349","3315273","3315273","3925841","3938769","4101976","4100472","4102853","3957571","3953984","3985447","NA","3882983","3913302","3983797","3953748","4004808","3953988","NA","4101976","4101976","NA","NA","4100468","NAP perception","31","33767","35","yes","1024"
"88.8888888889","yes","88.8888888889","960.083333333","960.083333333","white","no","xpyriment","Ich habe die obigen Informationen gelesen und verstanden.","legacy","legacy","0","uniform","1","0","0","undefined","undefined","1","j","2","1","NA","0","1","0","0","0","0","0","0","0","0","45","45","45","0","0","0","NA","0","0","2","0","0","0","2","45","45","45","45","45","Thu Oct 26 10:45:41 2017","Forced-choice identification task with a practice and an experimental phase","yes","NAP_GER_AA_4blocks_noglides.osexp","/Users/aviadalbert/Documents/Academisch/UoC/Dissertation/Experiment/OpenSesame/NAP-FC/NAP_GER_AA_4blocks_noglides","yes","no","sans","no","20","no","black","no","Weiter","yes","768","legacy","35","9","0","/Users/aviadalbert/Documents/Academisch/UoC/Dissertation/Experiment/OpenSesame/NAP-FC/NAP_GER_AA_4blocks_noglides/subject-21.csv","xpyriment","Jazzy James","3.1.9","yes","yes","59a800d99ad5a1025d81bb03","59a801616c613b0251691de0","no","no","0","j","f","space","NA","space","space","j","796","1880","18846","NA","12924","14909","796","2","legacy","1024","1","44100","-16","experiment","fenal","2","0","0","0","1","English","21","","odd","4004808","3985447","NA","NA","4006689","4004805","NA","3315273","4004349","3315273","3315273","3925841","3938769","4104640","4103132","4105437","3957571","3953984","3985447","NA","3882983","3913302","3983797","3953748","4004808","3953988","NA","4104640","4104640","NA","NA","4103128","NAP perception","32","34563","36","yes","1024"
"89.1891891892","yes","89.1891891892","962","962","white","no","xpyriment","Ich habe die obigen Informationen gelesen und verstanden.","legacy","legacy","0","uniform","1","0","0","undefined","undefined","1","f","2","1","NA","0","1","0","0","0","0","0","0","0","0","46","46","46","0","0","0","NA","0","0","2","0","0","0","2","46","46","46","46","46","Thu Oct 26 10:45:41 2017","Forced-choice identification task with a practice and an experimental phase","yes","NAP_GER_AA_4blocks_noglides.osexp","/Users/aviadalbert/Documents/Academisch/UoC/Dissertation/Experiment/OpenSesame/NAP-FC/NAP_GER_AA_4blocks_noglides","yes","no","sans","no","20","no","black","no","Weiter","yes","768","legacy","36","9","0","/Users/aviadalbert/Documents/Academisch/UoC/Dissertation/Experiment/OpenSesame/NAP-FC/NAP_GER_AA_4blocks_noglides/subject-21.csv","xpyriment","Jazzy James","3.1.9","yes","yes","59a800d99ad5a1025d81bb03","59a801616c613b0251691de0","no","no","0","f","f","space","NA","space","space","f","1031","1880","18846","NA","12924","14909","1031","2","legacy","1024","1","44100","-16","experiment","vlal","2","0","0","0","1","English","21","","odd","4004808","3985447","NA","NA","4006689","4004805","NA","3315273","4004349","3315273","3315273","3925841","3938769","4107221","4105718","4108253","3957571","3953984","3985447","NA","3882983","3913302","3983797","3953748","4004808","3953988","NA","4107221","4107221","NA","NA","4105714","NAP perception","33","35594","37","yes","1024"
"89.4736842105","yes","89.4736842105","960.921052632","960.921052632","white","no","xpyriment","Ich habe die obigen Informationen gelesen und verstanden.","legacy","legacy","0","uniform","1","0","0","undefined","undefined","1","j","2","1","NA","0","1","0","0","0","0","0","0","0","0","47","47","47","0","0","0","NA","0","0","2","0","0","0","2","47","47","47","47","47","Thu Oct 26 10:45:41 2017","Forced-choice identification task with a practice and an experimental phase","yes","NAP_GER_AA_4blocks_noglides.osexp","/Users/aviadalbert/Documents/Academisch/UoC/Dissertation/Experiment/OpenSesame/NAP-FC/NAP_GER_AA_4blocks_noglides","yes","no","sans","no","20","no","black","no","Weiter","yes","768","legacy","37","9","0","/Users/aviadalbert/Documents/Academisch/UoC/Dissertation/Experiment/OpenSesame/NAP-FC/NAP_GER_AA_4blocks_noglides/subject-21.csv","xpyriment","Jazzy James","3.1.9","yes","yes","59a800d99ad5a1025d81bb03","59a801616c613b0251691de0","no","no","0","j","f","space","NA","space","space","j","921","1880","18846","NA","12924","14909","921","2","legacy","1024","1","44100","-16","experiment","menal","2","0","0","0","1","English","21","","odd","4004808","3985447","NA","NA","4006689","4004805","NA","3315273","4004349","3315273","3315273","3925841","3938769","4110029","4108526","4110951","3957571","3953984","3985447","NA","3882983","3913302","3983797","3953748","4004808","3953988","NA","4110029","4110029","NA","NA","4108522","NAP perception","34","36515","38","yes","1024"
"89.7435897436","yes","89.7435897436","968.128205128","968.128205128","white","no","xpyriment","Ich habe die obigen Informationen gelesen und verstanden.","legacy","legacy","0","uniform","1","0","0","undefined","undefined","1","j","2","1","NA","0","1","0","0","0","0","0","0","0","0","48","48","48","0","0","0","NA","0","0","2","0","0","0","2","48","48","48","48","48","Thu Oct 26 10:45:41 2017","Forced-choice identification task with a practice and an experimental phase","yes","NAP_GER_AA_4blocks_noglides.osexp","/Users/aviadalbert/Documents/Academisch/UoC/Dissertation/Experiment/OpenSesame/NAP-FC/NAP_GER_AA_4blocks_noglides","yes","no","sans","no","20","no","black","no","Weiter","yes","768","legacy","38","9","0","/Users/aviadalbert/Documents/Academisch/UoC/Dissertation/Experiment/OpenSesame/NAP-FC/NAP_GER_AA_4blocks_noglides/subject-21.csv","xpyriment","Jazzy James","3.1.9","yes","yes","59a800d99ad5a1025d81bb03","59a801616c613b0251691de0","no","no","0","j","f","space","NA","space","space","j","1242","1880","18846","NA","12924","14909","1242","2","legacy","1024","1","44100","-16","experiment","evnal","2","0","0","0","1","English","21","","odd","4004808","3985447","NA","NA","4006689","4004805","NA","3315273","4004349","3315273","3315273","3925841","3938769","4112726","4111220","4113969","3957571","3953984","3985447","NA","3882983","3913302","3983797","3953748","4004808","3953988","NA","4112725","4112725","NA","NA","4111216","NAP perception","35","37757","39","yes","1024"
"90","yes","90","964.5","964.5","white","no","xpyriment","Ich habe die obigen Informationen gelesen und verstanden.","legacy","legacy","0","uniform","1","0","0","undefined","undefined","1","f","2","1","NA","0","1","0","0","0","0","0","0","0","0","49","49","49","0","0","0","NA","0","0","2","0","0","0","2","49","49","49","49","49","Thu Oct 26 10:45:41 2017","Forced-choice identification task with a practice and an experimental phase","yes","NAP_GER_AA_4blocks_noglides.osexp","/Users/aviadalbert/Documents/Academisch/UoC/Dissertation/Experiment/OpenSesame/NAP-FC/NAP_GER_AA_4blocks_noglides","yes","no","sans","no","20","no","black","no","Weiter","yes","768","legacy","39","9","0","/Users/aviadalbert/Documents/Academisch/UoC/Dissertation/Experiment/OpenSesame/NAP-FC/NAP_GER_AA_4blocks_noglides/subject-21.csv","xpyriment","Jazzy James","3.1.9","yes","yes","59a800d99ad5a1025d81bb03","59a801616c613b0251691de0","no","no","0","f","f","space","NA","space","space","f","823","1880","18846","NA","12924","14909","823","2","legacy","1024","1","44100","-16","experiment","lval","2","0","0","0","1","English","21","","odd","4004808","3985447","NA","NA","4006689","4004805","NA","3315273","4004349","3315273","3315273","3925841","3938769","4115752","4114246","4116576","3957571","3953984","3985447","NA","3882983","3913302","3983797","3953748","4004808","3953988","NA","4115752","4115752","NA","NA","4114242","NAP perception","36","38580","40","yes","1024"
"90.243902439","yes","90.243902439","962.926829268","962.926829268","white","no","xpyriment","Ich habe die obigen Informationen gelesen und verstanden.","legacy","legacy","0","uniform","1","0","0","undefined","undefined","1","f","2","1","NA","0","1","0","0","0","0","0","0","0","0","50","50","50","0","0","0","NA","0","0","2","0","0","0","2","50","50","50","50","50","Thu Oct 26 10:45:41 2017","Forced-choice identification task with a practice and an experimental phase","yes","NAP_GER_AA_4blocks_noglides.osexp","/Users/aviadalbert/Documents/Academisch/UoC/Dissertation/Experiment/OpenSesame/NAP-FC/NAP_GER_AA_4blocks_noglides","yes","no","sans","no","20","no","black","no","Weiter","yes","768","legacy","40","9","0","/Users/aviadalbert/Documents/Academisch/UoC/Dissertation/Experiment/OpenSesame/NAP-FC/NAP_GER_AA_4blocks_noglides/subject-21.csv","xpyriment","Jazzy James","3.1.9","yes","yes","59a800d99ad5a1025d81bb03","59a801616c613b0251691de0","no","no","0","f","f","space","NA","space","space","f","900","1880","18846","NA","12924","14909","900","2","legacy","1024","1","44100","-16","experiment","fnal","2","0","0","0","1","English","21","","odd","4004808","3985447","NA","NA","4006689","4004805","NA","3315273","4004349","3315273","3315273","3925841","3938769","4118365","4116861","4119266","3957571","3953984","3985447","NA","3882983","3913302","3983797","3953748","4004808","3953988","NA","4118365","4118365","NA","NA","4116857","NAP perception","37","39480","41","yes","1024"
"90.4761904762","yes","90.4761904762","959.333333333","959.333333333","white","no","xpyriment","Ich habe die obigen Informationen gelesen und verstanden.","legacy","legacy","0","uniform","1","0","0","undefined","undefined","1","j","2","1","NA","0","1","0","0","0","0","0","0","0","0","51","51","51","0","0","0","NA","0","0","2","0","0","0","2","51","51","51","51","51","Thu Oct 26 10:45:41 2017","Forced-choice identification task with a practice and an experimental phase","yes","NAP_GER_AA_4blocks_noglides.osexp","/Users/aviadalbert/Documents/Academisch/UoC/Dissertation/Experiment/OpenSesame/NAP-FC/NAP_GER_AA_4blocks_noglides","yes","no","sans","no","20","no","black","no","Weiter","yes","768","legacy","41","9","0","/Users/aviadalbert/Documents/Academisch/UoC/Dissertation/Experiment/OpenSesame/NAP-FC/NAP_GER_AA_4blocks_noglides/subject-21.csv","xpyriment","Jazzy James","3.1.9","yes","yes","59a800d99ad5a1025d81bb03","59a801616c613b0251691de0","no","no","0","j","f","space","NA","space","space","j","812","1880","18846","NA","12924","14909","812","2","legacy","1024","1","44100","-16","experiment","emzal","2","0","0","0","1","English","21","","odd","4004808","3985447","NA","NA","4006689","4004805","NA","3315273","4004349","3315273","3315273","3925841","3938769","4121040","4119536","4121854","3957571","3953984","3985447","NA","3882983","3913302","3983797","3953748","4004808","3953988","NA","4121040","4121040","NA","NA","4119532","NAP perception","38","40292","42","yes","1024"
"90.6976744186","yes","90.6976744186","971.11627907","971.11627907","white","no","xpyriment","Ich habe die obigen Informationen gelesen und verstanden.","legacy","legacy","0","uniform","1","0","0","undefined","undefined","1","f","2","1","NA","0","1","0","0","0","0","0","0","0","0","52","52","52","0","0","0","NA","0","0","2","0","0","0","2","52","52","52","52","52","Thu Oct 26 10:45:41 2017","Forced-choice identification task with a practice and an experimental phase","yes","NAP_GER_AA_4blocks_noglides.osexp","/Users/aviadalbert/Documents/Academisch/UoC/Dissertation/Experiment/OpenSesame/NAP-FC/NAP_GER_AA_4blocks_noglides","yes","no","sans","no","20","no","black","no","Weiter","yes","768","legacy","42","9","0","/Users/aviadalbert/Documents/Academisch/UoC/Dissertation/Experiment/OpenSesame/NAP-FC/NAP_GER_AA_4blocks_noglides/subject-21.csv","xpyriment","Jazzy James","3.1.9","yes","yes","59a800d99ad5a1025d81bb03","59a801616c613b0251691de0","no","no","0","f","f","space","NA","space","space","f","1466","1880","18846","NA","12924","14909","1466","2","legacy","1024","1","44100","-16","experiment","vnal","2","0","0","0","1","English","21","","odd","4004808","3985447","NA","NA","4006689","4004805","NA","3315273","4004349","3315273","3315273","3925841","3938769","4123634","4122131","4125102","3957571","3953984","3985447","NA","3882983","3913302","3983797","3953748","4004808","3953988","NA","4123634","4123634","NA","NA","4122127","NAP perception","39","41758","43","yes","1024"
"90.9090909091","yes","90.9090909091","973.386363636","973.386363636","white","no","xpyriment","Ich habe die obigen Informationen gelesen und verstanden.","legacy","legacy","0","uniform","1","0","0","undefined","undefined","1","j","2","1","NA","0","1","0","0","0","0","0","0","0","0","53","53","53","0","0","0","NA","0","0","2","0","0","0","2","53","53","53","53","53","Thu Oct 26 10:45:41 2017","Forced-choice identification task with a practice and an experimental phase","yes","NAP_GER_AA_4blocks_noglides.osexp","/Users/aviadalbert/Documents/Academisch/UoC/Dissertation/Experiment/OpenSesame/NAP-FC/NAP_GER_AA_4blocks_noglides","yes","no","sans","no","20","no","black","no","Weiter","yes","768","legacy","43","9","0","/Users/aviadalbert/Documents/Academisch/UoC/Dissertation/Experiment/OpenSesame/NAP-FC/NAP_GER_AA_4blocks_noglides/subject-21.csv","xpyriment","Jazzy James","3.1.9","yes","yes","59a800d99ad5a1025d81bb03","59a801616c613b0251691de0","no","no","0","j","f","space","NA","space","space","j","1071","1880","18846","NA","12924","14909","1071","2","legacy","1024","1","44100","-16","experiment","elval","2","0","0","0","1","English","21","","odd","4004808","3985447","NA","NA","4006689","4004805","NA","3315273","4004349","3315273","3315273","3925841","3938769","4126889","4125384","4127962","3957571","3953984","3985447","NA","3882983","3913302","3983797","3953748","4004808","3953988","NA","4126889","4126889","NA","NA","4125380","NAP perception","40","42829","44","yes","1024"
"91.1111111111","yes","91.1111111111","970.866666667","970.866666667","white","no","xpyriment","Ich habe die obigen Informationen gelesen und verstanden.","legacy","legacy","0","uniform","1","0","0","undefined","undefined","1","f","2","1","NA","0","1","0","0","0","0","0","0","0","0","54","54","54","0","0","0","NA","0","0","2","0","0","0","2","54","54","54","54","54","Thu Oct 26 10:45:41 2017","Forced-choice identification task with a practice and an experimental phase","yes","NAP_GER_AA_4blocks_noglides.osexp","/Users/aviadalbert/Documents/Academisch/UoC/Dissertation/Experiment/OpenSesame/NAP-FC/NAP_GER_AA_4blocks_noglides","yes","no","sans","no","20","no","black","no","Weiter","yes","768","legacy","44","9","0","/Users/aviadalbert/Documents/Academisch/UoC/Dissertation/Experiment/OpenSesame/NAP-FC/NAP_GER_AA_4blocks_noglides/subject-21.csv","xpyriment","Jazzy James","3.1.9","yes","yes","59a800d99ad5a1025d81bb03","59a801616c613b0251691de0","no","no","0","f","f","space","NA","space","space","f","860","1880","18846","NA","12924","14909","860","2","legacy","1024","1","44100","-16","experiment","mzal","2","0","0","0","1","English","21","","odd","4004808","3985447","NA","NA","4006689","4004805","NA","3315273","4004349","3315273","3315273","3925841","3938769","4129747","4128244","4130609","3957571","3953984","3985447","NA","3882983","3913302","3983797","3953748","4004808","3953988","NA","4129747","4129747","NA","NA","4128240","NAP perception","41","43689","45","yes","1024"
"91.3043478261","yes","91.3043478261","970.913043478","970.913043478","white","no","xpyriment","Ich habe die obigen Informationen gelesen und verstanden.","legacy","legacy","0","uniform","1","0","0","undefined","undefined","1","f","2","1","NA","0","1","0","0","0","0","0","0","0","0","55","55","55","0","0","0","NA","0","0","2","0","0","0","2","55","55","55","55","55","Thu Oct 26 10:45:41 2017","Forced-choice identification task with a practice and an experimental phase","yes","NAP_GER_AA_4blocks_noglides.osexp","/Users/aviadalbert/Documents/Academisch/UoC/Dissertation/Experiment/OpenSesame/NAP-FC/NAP_GER_AA_4blocks_noglides","yes","no","sans","no","20","no","black","no","Weiter","yes","768","legacy","45","9","0","/Users/aviadalbert/Documents/Academisch/UoC/Dissertation/Experiment/OpenSesame/NAP-FC/NAP_GER_AA_4blocks_noglides/subject-21.csv","xpyriment","Jazzy James","3.1.9","yes","yes","59a800d99ad5a1025d81bb03","59a801616c613b0251691de0","no","no","0","f","f","space","NA","space","space","f","973","1880","18846","NA","12924","14909","973","2","legacy","1024","1","44100","-16","experiment","mzal","2","0","0","0","1","English","21","","odd","4004808","3985447","NA","NA","4006689","4004805","NA","3315273","4004349","3315273","3315273","3925841","3938769","4132411","4130906","4133386","3957571","3953984","3985447","NA","3882983","3913302","3983797","3953748","4004808","3953988","NA","4132411","4132411","NA","NA","4130902","NAP perception","42","44662","46","yes","1024"
"91.4893617021","yes","91.4893617021","981.957446809","981.957446809","white","no","xpyriment","Ich habe die obigen Informationen gelesen und verstanden.","legacy","legacy","0","uniform","1","0","0","undefined","undefined","1","j","2","1","NA","0","1","0","0","0","0","0","0","0","0","56","56","56","0","0","0","NA","0","0","2","0","0","0","2","56","56","56","56","56","Thu Oct 26 10:45:41 2017","Forced-choice identification task with a practice and an experimental phase","yes","NAP_GER_AA_4blocks_noglides.osexp","/Users/aviadalbert/Documents/Academisch/UoC/Dissertation/Experiment/OpenSesame/NAP-FC/NAP_GER_AA_4blocks_noglides","yes","no","sans","no","20","no","black","no","Weiter","yes","768","legacy","46","9","0","/Users/aviadalbert/Documents/Academisch/UoC/Dissertation/Experiment/OpenSesame/NAP-FC/NAP_GER_AA_4blocks_noglides/subject-21.csv","xpyriment","Jazzy James","3.1.9","yes","yes","59a800d99ad5a1025d81bb03","59a801616c613b0251691de0","no","no","0","j","f","space","NA","space","space","j","1490","1880","18846","NA","12924","14909","1490","2","legacy","1024","1","44100","-16","experiment","evzal","2","0","0","0","1","English","21","","odd","4004808","3985447","NA","NA","4006689","4004805","NA","3315273","4004349","3315273","3315273","3925841","3938769","4135166","4133662","4136658","3957571","3953984","3985447","NA","3882983","3913302","3983797","3953748","4004808","3953988","NA","4135166","4135166","NA","NA","4133659","NAP perception","43","46152","47","yes","1024"
"91.6666666667","yes","91.6666666667","1003.47916667","1003.47916667","white","no","xpyriment","Ich habe die obigen Informationen gelesen und verstanden.","legacy","legacy","0","uniform","1","0","0","undefined","undefined","1","j","2","1","NA","0","1","0","0","0","0","0","0","0","0","57","57","57","0","0","0","NA","0","0","2","0","0","0","2","57","57","57","57","57","Thu Oct 26 10:45:41 2017","Forced-choice identification task with a practice and an experimental phase","yes","NAP_GER_AA_4blocks_noglides.osexp","/Users/aviadalbert/Documents/Academisch/UoC/Dissertation/Experiment/OpenSesame/NAP-FC/NAP_GER_AA_4blocks_noglides","yes","no","sans","no","20","no","black","no","Weiter","yes","768","legacy","47","9","0","/Users/aviadalbert/Documents/Academisch/UoC/Dissertation/Experiment/OpenSesame/NAP-FC/NAP_GER_AA_4blocks_noglides/subject-21.csv","xpyriment","Jazzy James","3.1.9","yes","yes","59a800d99ad5a1025d81bb03","59a801616c613b0251691de0","no","no","0","j","f","space","NA","space","space","j","2015","1880","18846","NA","12924","14909","2015","2","legacy","1024","1","44100","-16","experiment","ezval","2","0","0","0","1","English","21","","odd","4004808","3985447","NA","NA","4006689","4004805","NA","3315273","4004349","3315273","3315273","3925841","3938769","4138437","4136932","4140454","3957571","3953984","3985447","NA","3882983","3913302","3983797","3953748","4004808","3953988","NA","4138437","4138437","NA","NA","4136928","NAP perception","44","48167","48","yes","1024"
"89.7959183673","yes","89.7959183673","1001.93877551","1001.93877551","white","no","xpyriment","Ich habe die obigen Informationen gelesen und verstanden.","legacy","legacy","0","uniform","0","0","0","undefined","undefined","0","j","2","1","NA","0","1","0","0","0","0","0","0","0","0","58","58","58","0","0","0","NA","0","0","2","0","0","0","2","58","58","58","58","58","Thu Oct 26 10:45:41 2017","Forced-choice identification task with a practice and an experimental phase","yes","NAP_GER_AA_4blocks_noglides.osexp","/Users/aviadalbert/Documents/Academisch/UoC/Dissertation/Experiment/OpenSesame/NAP-FC/NAP_GER_AA_4blocks_noglides","yes","no","sans","no","20","no","black","no","Weiter","yes","768","legacy","48","9","0","/Users/aviadalbert/Documents/Academisch/UoC/Dissertation/Experiment/OpenSesame/NAP-FC/NAP_GER_AA_4blocks_noglides/subject-21.csv","xpyriment","Jazzy James","3.1.9","yes","yes","59a800d99ad5a1025d81bb03","59a801616c613b0251691de0","no","no","0","f","f","space","NA","space","space","f","928","1880","18846","NA","12924","14909","928","2","legacy","1024","1","44100","-16","experiment","fesal","2","0","0","0","1","English","21","","odd","4004808","3985447","NA","NA","4006689","4004805","NA","3315273","4004349","3315273","3315273","3925841","3938769","4142245","4140740","4143174","3957571","3953984","3985447","NA","3882983","3913302","3983797","3953748","4004808","3953988","NA","4142245","4142245","NA","NA","4140736","NAP perception","44","49095","49","yes","1024"
"90","yes","90","996.22","996.22","white","no","xpyriment","Ich habe die obigen Informationen gelesen und verstanden.","legacy","legacy","0","uniform","1","0","0","undefined","undefined","1","j","2","1","NA","0","1","0","0","0","0","0","0","0","0","59","59","59","0","0","0","NA","0","0","2","0","0","0","2","59","59","59","59","59","Thu Oct 26 10:45:41 2017","Forced-choice identification task with a practice and an experimental phase","yes","NAP_GER_AA_4blocks_noglides.osexp","/Users/aviadalbert/Documents/Academisch/UoC/Dissertation/Experiment/OpenSesame/NAP-FC/NAP_GER_AA_4blocks_noglides","yes","no","sans","no","20","no","black","no","Weiter","yes","768","legacy","49","9","0","/Users/aviadalbert/Documents/Academisch/UoC/Dissertation/Experiment/OpenSesame/NAP-FC/NAP_GER_AA_4blocks_noglides/subject-21.csv","xpyriment","Jazzy James","3.1.9","yes","yes","59a800d99ad5a1025d81bb03","59a801616c613b0251691de0","no","no","0","j","f","space","NA","space","space","j","716","1880","18846","NA","12924","14909","716","2","legacy","1024","1","44100","-16","experiment","emlal","2","0","0","0","1","English","21","","odd","4004808","3985447","NA","NA","4006689","4004805","NA","3315273","4004349","3315273","3315273","3925841","3938769","4144968","4143465","4145685","3957571","3953984","3985447","NA","3882983","3913302","3983797","3953748","4004808","3953988","NA","4144968","4144968","NA","NA","4143461","NAP perception","45","49811","50","yes","1024"
"90.1960784314","yes","90.1960784314","994.68627451","994.68627451","white","no","xpyriment","Ich habe die obigen Informationen gelesen und verstanden.","legacy","legacy","0","uniform","1","0","0","undefined","undefined","1","f","2","1","NA","0","1","0","0","0","0","0","0","0","0","60","60","60","0","0","0","NA","0","0","2","0","0","0","2","60","60","60","60","60","Thu Oct 26 10:45:41 2017","Forced-choice identification task with a practice and an experimental phase","yes","NAP_GER_AA_4blocks_noglides.osexp","/Users/aviadalbert/Documents/Academisch/UoC/Dissertation/Experiment/OpenSesame/NAP-FC/NAP_GER_AA_4blocks_noglides","yes","no","sans","no","20","no","black","no","Weiter","yes","768","legacy","50","9","0","/Users/aviadalbert/Documents/Academisch/UoC/Dissertation/Experiment/OpenSesame/NAP-FC/NAP_GER_AA_4blocks_noglides/subject-21.csv","xpyriment","Jazzy James","3.1.9","yes","yes","59a800d99ad5a1025d81bb03","59a801616c613b0251691de0","no","no","0","f","f","space","NA","space","space","f","918","1880","18846","NA","12924","14909","918","2","legacy","1024","1","44100","-16","experiment","ʃfal","2","0","0","0","1","English","21","","odd","4004808","3985447","NA","NA","4006689","4004805","NA","3315273","4004349","3315273","3315273","3925841","3938769","4147463","4145960","4148382","3957571","3953984","3985447","NA","3882983","3913302","3983797","3953748","4004808","3953988","NA","4147463","4147463","NA","NA","4145956","NAP perception","46","50729","51","yes","1024"
"90.3846153846","yes","90.3846153846","1006.05769231","1006.05769231","white","no","xpyriment","Ich habe die obigen Informationen gelesen und verstanden.","legacy","legacy","0","uniform","1","0","0","undefined","undefined","1","f","2","1","NA","0","1","0","0","0","0","0","0","0","0","61","61","61","0","0","0","NA","0","0","2","0","0","0","2","61","61","61","61","61","Thu Oct 26 10:45:41 2017","Forced-choice identification task with a practice and an experimental phase","yes","NAP_GER_AA_4blocks_noglides.osexp","/Users/aviadalbert/Documents/Academisch/UoC/Dissertation/Experiment/OpenSesame/NAP-FC/NAP_GER_AA_4blocks_noglides","yes","no","sans","no","20","no","black","no","Weiter","yes","768","legacy","51","9","0","/Users/aviadalbert/Documents/Academisch/UoC/Dissertation/Experiment/OpenSesame/NAP-FC/NAP_GER_AA_4blocks_noglides/subject-21.csv","xpyriment","Jazzy James","3.1.9","yes","yes","59a800d99ad5a1025d81bb03","59a801616c613b0251691de0","no","no","0","f","f","space","NA","space","space","f","1586","1880","18846","NA","12924","14909","1586","2","legacy","1024","1","44100","-16","experiment","msal","2","0","0","0","1","English","21","","odd","4004808","3985447","NA","NA","4006689","4004805","NA","3315273","4004349","3315273","3315273","3925841","3938769","4150174","4148668","4151761","3957571","3953984","3985447","NA","3882983","3913302","3983797","3953748","4004808","3953988","NA","4150174","4150174","NA","NA","4148664","NAP perception","47","52315","52","yes","1024"
"90.5660377358","yes","90.5660377358","1001.90566038","1001.90566038","white","no","xpyriment","Ich habe die obigen Informationen gelesen und verstanden.","legacy","legacy","0","uniform","1","0","0","undefined","undefined","1","j","2","1","NA","0","1","0","0","0","0","0","0","0","0","62","62","62","0","0","0","NA","0","0","2","0","0","0","2","62","62","62","62","62","Thu Oct 26 10:45:41 2017","Forced-choice identification task with a practice and an experimental phase","yes","NAP_GER_AA_4blocks_noglides.osexp","/Users/aviadalbert/Documents/Academisch/UoC/Dissertation/Experiment/OpenSesame/NAP-FC/NAP_GER_AA_4blocks_noglides","yes","no","sans","no","20","no","black","no","Weiter","yes","768","legacy","52","9","0","/Users/aviadalbert/Documents/Academisch/UoC/Dissertation/Experiment/OpenSesame/NAP-FC/NAP_GER_AA_4blocks_noglides/subject-21.csv","xpyriment","Jazzy James","3.1.9","yes","yes","59a800d99ad5a1025d81bb03","59a801616c613b0251691de0","no","no","0","j","f","space","NA","space","space","j","786","1880","18846","NA","12924","14909","786","2","legacy","1024","1","44100","-16","experiment","semal","2","0","0","0","1","English","21","","odd","4004808","3985447","NA","NA","4006689","4004805","NA","3315273","4004349","3315273","3315273","3925841","3938769","4153541","4152038","4154328","3957571","3953984","3985447","NA","3882983","3913302","3983797","3953748","4004808","3953988","NA","4153541","4153541","NA","NA","4152034","NAP perception","48","53101","53","yes","1024"
"90.7407407407","yes","90.7407407407","1002.74074074","1002.74074074","white","no","xpyriment","Ich habe die obigen Informationen gelesen und verstanden.","legacy","legacy","0","uniform","1","0","0","undefined","undefined","1","f","2","1","NA","0","1","0","0","0","0","0","0","0","0","63","63","63","0","0","0","NA","0","0","2","0","0","0","2","63","63","63","63","63","Thu Oct 26 10:45:41 2017","Forced-choice identification task with a practice and an experimental phase","yes","NAP_GER_AA_4blocks_noglides.osexp","/Users/aviadalbert/Documents/Academisch/UoC/Dissertation/Experiment/OpenSesame/NAP-FC/NAP_GER_AA_4blocks_noglides","yes","no","sans","no","20","no","black","no","Weiter","yes","768","legacy","53","9","0","/Users/aviadalbert/Documents/Academisch/UoC/Dissertation/Experiment/OpenSesame/NAP-FC/NAP_GER_AA_4blocks_noglides/subject-21.csv","xpyriment","Jazzy James","3.1.9","yes","yes","59a800d99ad5a1025d81bb03","59a801616c613b0251691de0","no","no","0","f","f","space","NA","space","space","f","1047","1880","18846","NA","12924","14909","1047","2","legacy","1024","1","44100","-16","experiment","nfal","2","0","0","0","1","English","21","","odd","4004808","3985447","NA","NA","4006689","4004805","NA","3315273","4004349","3315273","3315273","3925841","3938769","4156101","4154598","4157149","3957571","3953984","3985447","NA","3882983","3913302","3983797","3953748","4004808","3953988","NA","4156101","4156101","NA","NA","4154594","NAP perception","49","54148","54","yes","1024"
"90.9090909091","yes","90.9090909091","1000.56363636","1000.56363636","white","no","xpyriment","Ich habe die obigen Informationen gelesen und verstanden.","legacy","legacy","0","uniform","1","0","0","undefined","undefined","1","j","2","1","NA","0","1","0","0","0","0","0","0","0","0","64","64","64","0","0","0","NA","0","0","2","0","0","0","2","64","64","64","64","64","Thu Oct 26 10:45:41 2017","Forced-choice identification task with a practice and an experimental phase","yes","NAP_GER_AA_4blocks_noglides.osexp","/Users/aviadalbert/Documents/Academisch/UoC/Dissertation/Experiment/OpenSesame/NAP-FC/NAP_GER_AA_4blocks_noglides","yes","no","sans","no","20","no","black","no","Weiter","yes","768","legacy","54","9","0","/Users/aviadalbert/Documents/Academisch/UoC/Dissertation/Experiment/OpenSesame/NAP-FC/NAP_GER_AA_4blocks_noglides/subject-21.csv","xpyriment","Jazzy James","3.1.9","yes","yes","59a800d99ad5a1025d81bb03","59a801616c613b0251691de0","no","no","0","j","f","space","NA","space","space","j","883","1880","18846","NA","12924","14909","883","2","legacy","1024","1","44100","-16","experiment","mesal","2","0","0","0","1","English","21","","odd","4004808","3985447","NA","NA","4006689","4004805","NA","3315273","4004349","3315273","3315273","3925841","3938769","4158924","4157419","4159808","3957571","3953984","3985447","NA","3882983","3913302","3983797","3953748","4004808","3953988","NA","4158923","4158924","NA","NA","4157415","NAP perception","50","55031","55","yes","1024"
