"acc","accept_status","accuracy","average_response_time","avg_rt","background","bidi","canvas_backend","checkbox_status","clock_backend","color_backend","compensation","coordinates","correct","correct_block_activation","correct_block_exit","correct_instructions_1","correct_instructions_2","correct_keyboard_response","correct_response","count_block_activation","count_block_exit","count_block_info_QA","count_cont_e_block_message","count_e_block_loop","count_e_block_sequence","count_end_of_experiment","count_experiment","count_experimental_loop","count_form_consent","count_info_forms","count_instructions_1","count_instructions_2","count_keyboard_response","count_listen_message","count_logger","count_p_block_loop","count_p_block_sequence","count_p_feedback","count_pause_feedback","count_personal_details_form_1","count_personal_details_form_2","count_post_loop_blank","count_practice_loop","count_pre_e_block_message","count_pre_p_block_message","count_reset_feedback","count_stimulus_image","count_stimulus_sound","count_timeout_message","count_timeout_sound","count_trial_sequence","datetime","description","disable_garbage_collection","experiment_file","experiment_path","expyriment_opengl","font_bold","font_family","font_italic","font_size","font_underline","foreground","form_clicks","form_response","fullscreen","height","keyboard_backend","live_row","live_row_p_block_loop","live_row_practice_loop","logfile","mouse_backend","opensesame_codename","opensesame_version","osf_always_upload_data","osf_always_upload_experiment","osf_datanode_id","osf_id","practice","pygame_doublebuf","repeat_cycle","response","response_block_activation","response_block_exit","response_block_info_QA","response_instructions_1","response_instructions_2","response_keyboard_response","response_time","response_time_block_activation","response_time_block_exit","response_time_block_info_QA","response_time_instructions_1","response_time_instructions_2","response_time_keyboard_response","round_decimals","sampler_backend","sound_buf_size","sound_channels","sound_freq","sound_sample_size","start","stimulus","subject_age","subject_education","subject_gender","subject_german_native","subject_handedness","subject_language_other","subject_nr","subject_other_native_lang","subject_parity","time_block_activation","time_block_exit","time_block_info_QA","time_cont_e_block_message","time_e_block_loop","time_e_block_sequence","time_end_of_experiment","time_experiment","time_experimental_loop","time_form_consent","time_info_forms","time_instructions_1","time_instructions_2","time_keyboard_response","time_listen_message","time_logger","time_p_block_loop","time_p_block_sequence","time_p_feedback","time_pause_feedback","time_personal_details_form_1","time_personal_details_form_2","time_post_loop_blank","time_practice_loop","time_pre_e_block_message","time_pre_p_block_message","time_reset_feedback","time_stimulus_image","time_stimulus_sound","time_timeout_message","time_timeout_sound","time_trial_sequence","title","total_correct","total_response_time","total_responses","uniform_coordinates","width"
"100","yes","100","1937","1937","white","no","xpyriment","Ich habe die obigen Informationen gelesen und verstanden.","legacy","legacy","0","uniform","1","0","NA","undefined","undefined","1","f","0","0","NA","NA","NA","NA","NA","0","0","0","0","0","0","0","0","0","0","0","NA","NA","0","0","0","0","NA","0","0","0","0","0","0","0","Sat Nov 11 20:31:30 2017","Forced-choice identification task with a practice and an experimental phase","yes","NAP_GER_AA_4blocks_noglides.osexp","/Users/aviadalbert/Documents/Academisch/UoC/Dissertation/Experiment/OpenSesame/NAP-FC/NAP_GER_AA_4blocks_noglides","yes","no","sans","no","20","no","black","no","Weiter","yes","768","legacy","0","0","0","/Users/aviadalbert/Documents/Academisch/UoC/Dissertation/Experiment/OpenSesame/NAP-FC/NAP_GER_AA_4blocks_noglides/subject-48.csv","xpyriment","Jazzy James","3.1.9","yes","yes","59a800d99ad5a1025d81bb03","59a801616c613b0251691de0","yes","no","0","f","f","NA","NA","space","space","f","1937","3309","NA","NA","39029","7297","1937","2","legacy","1024","1","44100","-16","experiment","flal","3","0","1","0","1","englisch","48","","even","4407683","NA","NA","NA","NA","NA","NA","4265382","NA","4265382","4265382","4361041","4400074","4412697","4411192","4414635","4410993","4407679","NA","NA","4291701","4337340","NA","4407439","NA","4407683","NA","4412697","4412697","NA","NA","4411188","NAP perception","1","1937","1","yes","1024"
"100","yes","100","1501","1501","white","no","xpyriment","Ich habe die obigen Informationen gelesen und verstanden.","legacy","legacy","0","uniform","1","0","NA","undefined","undefined","1","j","0","0","NA","NA","NA","NA","NA","0","0","0","0","0","0","1","1","1","0","0","NA","NA","0","0","0","0","NA","0","0","1","1","1","1","1","Sat Nov 11 20:31:30 2017","Forced-choice identification task with a practice and an experimental phase","yes","NAP_GER_AA_4blocks_noglides.osexp","/Users/aviadalbert/Documents/Academisch/UoC/Dissertation/Experiment/OpenSesame/NAP-FC/NAP_GER_AA_4blocks_noglides","yes","no","sans","no","20","no","black","no","Weiter","yes","768","legacy","1","1","0","/Users/aviadalbert/Documents/Academisch/UoC/Dissertation/Experiment/OpenSesame/NAP-FC/NAP_GER_AA_4blocks_noglides/subject-48.csv","xpyriment","Jazzy James","3.1.9","yes","yes","59a800d99ad5a1025d81bb03","59a801616c613b0251691de0","yes","no","0","j","f","NA","NA","space","space","j","1065","3309","NA","NA","39029","7297","1065","2","legacy","1024","1","44100","-16","experiment","lepal","3","0","1","0","1","englisch","48","","even","4407683","NA","NA","NA","NA","NA","NA","4265382","NA","4265382","4265382","4361041","4400074","4416420","4414916","4417486","4410993","4407679","NA","NA","4291701","4337340","NA","4407439","NA","4407683","NA","4416420","4416420","NA","NA","4414913","NAP perception","2","3002","2","yes","1024"
"100","yes","100","1339.33333333","1339.33333333","white","no","xpyriment","Ich habe die obigen Informationen gelesen und verstanden.","legacy","legacy","0","uniform","1","0","NA","undefined","undefined","1","j","0","0","NA","NA","NA","NA","NA","0","0","0","0","0","0","2","2","2","0","0","NA","NA","0","0","0","0","NA","0","0","2","2","2","2","2","Sat Nov 11 20:31:30 2017","Forced-choice identification task with a practice and an experimental phase","yes","NAP_GER_AA_4blocks_noglides.osexp","/Users/aviadalbert/Documents/Academisch/UoC/Dissertation/Experiment/OpenSesame/NAP-FC/NAP_GER_AA_4blocks_noglides","yes","no","sans","no","20","no","black","no","Weiter","yes","768","legacy","2","2","0","/Users/aviadalbert/Documents/Academisch/UoC/Dissertation/Experiment/OpenSesame/NAP-FC/NAP_GER_AA_4blocks_noglides/subject-48.csv","xpyriment","Jazzy James","3.1.9","yes","yes","59a800d99ad5a1025d81bb03","59a801616c613b0251691de0","yes","no","0","j","f","NA","NA","space","space","j","1016","3309","NA","NA","39029","7297","1016","2","legacy","1024","1","44100","-16","experiment","emtal","3","0","1","0","1","englisch","48","","even","4407683","NA","NA","NA","NA","NA","NA","4265382","NA","4265382","4265382","4361041","4400074","4419263","4417760","4420280","4410993","4407679","NA","NA","4291701","4337340","NA","4407439","NA","4407683","NA","4419263","4419263","NA","NA","4417755","NAP perception","3","4018","3","yes","1024"
"100","yes","100","1281","1281","white","no","xpyriment","Ich habe die obigen Informationen gelesen und verstanden.","legacy","legacy","0","uniform","1","0","NA","undefined","undefined","1","f","0","0","NA","NA","NA","NA","NA","0","0","0","0","0","0","3","3","3","0","0","NA","NA","0","0","0","0","NA","0","0","3","3","3","3","3","Sat Nov 11 20:31:30 2017","Forced-choice identification task with a practice and an experimental phase","yes","NAP_GER_AA_4blocks_noglides.osexp","/Users/aviadalbert/Documents/Academisch/UoC/Dissertation/Experiment/OpenSesame/NAP-FC/NAP_GER_AA_4blocks_noglides","yes","no","sans","no","20","no","black","no","Weiter","yes","768","legacy","3","3","0","/Users/aviadalbert/Documents/Academisch/UoC/Dissertation/Experiment/OpenSesame/NAP-FC/NAP_GER_AA_4blocks_noglides/subject-48.csv","xpyriment","Jazzy James","3.1.9","yes","yes","59a800d99ad5a1025d81bb03","59a801616c613b0251691de0","yes","no","0","f","f","NA","NA","space","space","f","1106","3309","NA","NA","39029","7297","1106","2","legacy","1024","1","44100","-16","experiment","ʃpal","3","0","1","0","1","englisch","48","","even","4407683","NA","NA","NA","NA","NA","NA","4265382","NA","4265382","4265382","4361041","4400074","4422050","4420547","4423157","4410993","4407679","NA","NA","4291701","4337340","NA","4407439","NA","4407683","NA","4422050","4422050","NA","NA","4420543","NAP perception","4","5124","4","yes","1024"
"100","yes","100","1227","1227","white","no","xpyriment","Ich habe die obigen Informationen gelesen und verstanden.","legacy","legacy","0","uniform","1","0","NA","undefined","undefined","1","j","0","0","NA","NA","NA","NA","NA","0","0","0","0","0","0","4","4","4","0","0","NA","NA","0","0","0","0","NA","0","0","4","4","4","4","4","Sat Nov 11 20:31:30 2017","Forced-choice identification task with a practice and an experimental phase","yes","NAP_GER_AA_4blocks_noglides.osexp","/Users/aviadalbert/Documents/Academisch/UoC/Dissertation/Experiment/OpenSesame/NAP-FC/NAP_GER_AA_4blocks_noglides","yes","no","sans","no","20","no","black","no","Weiter","yes","768","legacy","4","4","0","/Users/aviadalbert/Documents/Academisch/UoC/Dissertation/Experiment/OpenSesame/NAP-FC/NAP_GER_AA_4blocks_noglides/subject-48.csv","xpyriment","Jazzy James","3.1.9","yes","yes","59a800d99ad5a1025d81bb03","59a801616c613b0251691de0","yes","no","0","j","f","NA","NA","space","space","j","1011","3309","NA","NA","39029","7297","1011","2","legacy","1024","1","44100","-16","experiment","nefal","3","0","1","0","1","englisch","48","","even","4407683","NA","NA","NA","NA","NA","NA","4265382","NA","4265382","4265382","4361041","4400074","4424950","4423443","4425962","4410993","4407679","NA","NA","4291701","4337340","NA","4407439","NA","4407683","NA","4424950","4424950","NA","NA","4423439","NAP perception","5","6135","5","yes","1024"
"100","yes","100","1252","1252","white","no","xpyriment","Ich habe die obigen Informationen gelesen und verstanden.","legacy","legacy","0","uniform","1","0","NA","undefined","undefined","1","f","0","0","NA","NA","NA","NA","NA","0","0","0","0","0","0","5","5","5","0","0","NA","NA","0","0","0","0","NA","0","0","5","5","5","5","5","Sat Nov 11 20:31:30 2017","Forced-choice identification task with a practice and an experimental phase","yes","NAP_GER_AA_4blocks_noglides.osexp","/Users/aviadalbert/Documents/Academisch/UoC/Dissertation/Experiment/OpenSesame/NAP-FC/NAP_GER_AA_4blocks_noglides","yes","no","sans","no","20","no","black","no","Weiter","yes","768","legacy","5","5","0","/Users/aviadalbert/Documents/Academisch/UoC/Dissertation/Experiment/OpenSesame/NAP-FC/NAP_GER_AA_4blocks_noglides/subject-48.csv","xpyriment","Jazzy James","3.1.9","yes","yes","59a800d99ad5a1025d81bb03","59a801616c613b0251691de0","yes","no","0","f","f","NA","NA","space","space","f","1377","3309","NA","NA","39029","7297","1377","2","legacy","1024","1","44100","-16","experiment","sfal","3","0","1","0","1","englisch","48","","even","4407683","NA","NA","NA","NA","NA","NA","4265382","NA","4265382","4265382","4361041","4400074","4427748","4426244","4429126","4410993","4407679","NA","NA","4291701","4337340","NA","4407439","NA","4407683","NA","4427748","4427748","NA","NA","4426240","NAP perception","6","7512","6","yes","1024"
"100","yes","100","1226.57142857","1226.57142857","white","no","xpyriment","Ich habe die obigen Informationen gelesen und verstanden.","legacy","legacy","0","uniform","1","0","NA","undefined","undefined","1","f","0","0","NA","NA","NA","NA","NA","0","0","0","0","0","0","6","6","6","0","0","NA","NA","0","0","0","0","NA","0","0","6","6","6","6","6","Sat Nov 11 20:31:30 2017","Forced-choice identification task with a practice and an experimental phase","yes","NAP_GER_AA_4blocks_noglides.osexp","/Users/aviadalbert/Documents/Academisch/UoC/Dissertation/Experiment/OpenSesame/NAP-FC/NAP_GER_AA_4blocks_noglides","yes","no","sans","no","20","no","black","no","Weiter","yes","768","legacy","6","6","0","/Users/aviadalbert/Documents/Academisch/UoC/Dissertation/Experiment/OpenSesame/NAP-FC/NAP_GER_AA_4blocks_noglides/subject-48.csv","xpyriment","Jazzy James","3.1.9","yes","yes","59a800d99ad5a1025d81bb03","59a801616c613b0251691de0","yes","no","0","f","f","NA","NA","space","space","f","1074","3309","NA","NA","39029","7297","1074","2","legacy","1024","1","44100","-16","experiment","zmal","3","0","1","0","1","englisch","48","","even","4407683","NA","NA","NA","NA","NA","NA","4265382","NA","4265382","4265382","4361041","4400074","4430903","4429397","4431979","4410993","4407679","NA","NA","4291701","4337340","NA","4407439","NA","4407683","NA","4430903","4430903","NA","NA","4429393","NAP perception","7","8586","7","yes","1024"
"100","yes","100","1199","1199","white","no","xpyriment","Ich habe die obigen Informationen gelesen und verstanden.","legacy","legacy","0","uniform","1","0","NA","undefined","undefined","1","j","0","0","NA","NA","NA","NA","NA","0","0","0","0","0","0","7","7","7","0","0","NA","NA","0","0","0","0","NA","0","0","7","7","7","7","7","Sat Nov 11 20:31:30 2017","Forced-choice identification task with a practice and an experimental phase","yes","NAP_GER_AA_4blocks_noglides.osexp","/Users/aviadalbert/Documents/Academisch/UoC/Dissertation/Experiment/OpenSesame/NAP-FC/NAP_GER_AA_4blocks_noglides","yes","no","sans","no","20","no","black","no","Weiter","yes","768","legacy","7","7","0","/Users/aviadalbert/Documents/Academisch/UoC/Dissertation/Experiment/OpenSesame/NAP-FC/NAP_GER_AA_4blocks_noglides/subject-48.csv","xpyriment","Jazzy James","3.1.9","yes","yes","59a800d99ad5a1025d81bb03","59a801616c613b0251691de0","yes","no","0","j","f","NA","NA","space","space","j","1006","3309","NA","NA","39029","7297","1006","2","legacy","1024","1","44100","-16","experiment","mesal","3","0","1","0","1","englisch","48","","even","4407683","NA","NA","NA","NA","NA","NA","4265382","NA","4265382","4265382","4361041","4400074","4433751","4432247","4434758","4410993","4407679","NA","NA","4291701","4337340","NA","4407439","NA","4407683","NA","4433751","4433751","NA","NA","4432243","NAP perception","8","9592","8","yes","1024"
"100","yes","100","1176","1176","white","no","xpyriment","Ich habe die obigen Informationen gelesen und verstanden.","legacy","legacy","0","uniform","1","0","NA","undefined","undefined","1","j","0","0","NA","NA","NA","NA","NA","0","0","0","0","0","0","8","8","8","0","0","NA","NA","0","0","0","0","NA","0","0","8","8","8","8","8","Sat Nov 11 20:31:30 2017","Forced-choice identification task with a practice and an experimental phase","yes","NAP_GER_AA_4blocks_noglides.osexp","/Users/aviadalbert/Documents/Academisch/UoC/Dissertation/Experiment/OpenSesame/NAP-FC/NAP_GER_AA_4blocks_noglides","yes","no","sans","no","20","no","black","no","Weiter","yes","768","legacy","8","8","0","/Users/aviadalbert/Documents/Academisch/UoC/Dissertation/Experiment/OpenSesame/NAP-FC/NAP_GER_AA_4blocks_noglides/subject-48.csv","xpyriment","Jazzy James","3.1.9","yes","yes","59a800d99ad5a1025d81bb03","59a801616c613b0251691de0","yes","no","0","j","f","NA","NA","space","space","j","992","3309","NA","NA","39029","7297","992","2","legacy","1024","1","44100","-16","experiment","enval","3","0","1","0","1","englisch","48","","even","4407683","NA","NA","NA","NA","NA","NA","4265382","NA","4265382","4265382","4361041","4400074","4436531","4435027","4437525","4410993","4407679","NA","NA","4291701","4337340","NA","4407439","NA","4407683","NA","4436531","4436531","NA","NA","4435023","NAP perception","9","10584","9","yes","1024"
"100","yes","100","1164.5","1164.5","white","no","xpyriment","Ich habe die obigen Informationen gelesen und verstanden.","legacy","legacy","0","uniform","1","0","NA","undefined","undefined","1","f","0","0","NA","NA","NA","NA","NA","0","0","0","0","0","0","9","9","9","0","0","NA","NA","0","0","0","0","NA","0","0","9","9","9","9","9","Sat Nov 11 20:31:30 2017","Forced-choice identification task with a practice and an experimental phase","yes","NAP_GER_AA_4blocks_noglides.osexp","/Users/aviadalbert/Documents/Academisch/UoC/Dissertation/Experiment/OpenSesame/NAP-FC/NAP_GER_AA_4blocks_noglides","yes","no","sans","no","20","no","black","no","Weiter","yes","768","legacy","9","9","0","/Users/aviadalbert/Documents/Academisch/UoC/Dissertation/Experiment/OpenSesame/NAP-FC/NAP_GER_AA_4blocks_noglides/subject-48.csv","xpyriment","Jazzy James","3.1.9","yes","yes","59a800d99ad5a1025d81bb03","59a801616c613b0251691de0","yes","no","0","f","f","NA","NA","space","space","f","1061","3309","NA","NA","39029","7297","1061","2","legacy","1024","1","44100","-16","experiment","vlal","3","0","1","0","1","englisch","48","","even","4407683","NA","NA","NA","NA","NA","NA","4265382","NA","4265382","4265382","4361041","4400074","4439309","4437805","4440371","4410993","4407679","NA","NA","4291701","4337340","NA","4407439","NA","4407683","NA","4439308","4439308","NA","NA","4437801","NAP perception","10","11645","10","yes","1024"
"100","yes","100","1039","1039","white","no","xpyriment","Ich habe die obigen Informationen gelesen und verstanden.","legacy","legacy","0","uniform","1","0","0","undefined","undefined","1","j","2","1","NA","0","1","0","0","0","0","0","0","0","0","10","10","10","0","0","0","NA","0","0","2","0","0","0","2","10","10","10","10","10","Sat Nov 11 20:31:30 2017","Forced-choice identification task with a practice and an experimental phase","yes","NAP_GER_AA_4blocks_noglides.osexp","/Users/aviadalbert/Documents/Academisch/UoC/Dissertation/Experiment/OpenSesame/NAP-FC/NAP_GER_AA_4blocks_noglides","yes","no","sans","no","20","no","black","no","Weiter","yes","768","legacy","0","9","0","/Users/aviadalbert/Documents/Academisch/UoC/Dissertation/Experiment/OpenSesame/NAP-FC/NAP_GER_AA_4blocks_noglides/subject-48.csv","xpyriment","Jazzy James","3.1.9","yes","yes","59a800d99ad5a1025d81bb03","59a801616c613b0251691de0","no","no","0","j","j","space","NA","space","space","j","1039","2715","41781","NA","39029","7297","1039","2","legacy","1024","1","44100","-16","experiment","fesal","3","0","1","0","1","englisch","48","","even","4484396","4442088","NA","NA","4487112","4484393","NA","4265382","4483925","4265382","4265382","4361041","4400074","4488824","4487320","4489864","4410993","4407679","4442087","NA","4291701","4337340","4440433","4407439","4484396","4407683","NA","4488824","4488824","NA","NA","4487317","NAP perception","1","1039","1","yes","1024"
"100","yes","100","1223","1223","white","no","xpyriment","Ich habe die obigen Informationen gelesen und verstanden.","legacy","legacy","0","uniform","1","0","0","undefined","undefined","1","f","2","1","NA","0","1","0","0","0","0","0","0","0","0","11","11","11","0","0","0","NA","0","0","2","0","0","0","2","11","11","11","11","11","Sat Nov 11 20:31:30 2017","Forced-choice identification task with a practice and an experimental phase","yes","NAP_GER_AA_4blocks_noglides.osexp","/Users/aviadalbert/Documents/Academisch/UoC/Dissertation/Experiment/OpenSesame/NAP-FC/NAP_GER_AA_4blocks_noglides","yes","no","sans","no","20","no","black","no","Weiter","yes","768","legacy","1","9","0","/Users/aviadalbert/Documents/Academisch/UoC/Dissertation/Experiment/OpenSesame/NAP-FC/NAP_GER_AA_4blocks_noglides/subject-48.csv","xpyriment","Jazzy James","3.1.9","yes","yes","59a800d99ad5a1025d81bb03","59a801616c613b0251691de0","no","no","0","f","j","space","NA","space","space","f","1407","2715","41781","NA","39029","7297","1407","2","legacy","1024","1","44100","-16","experiment","npal","3","0","1","0","1","englisch","48","","even","4484396","4442088","NA","NA","4487112","4484393","NA","4265382","4483925","4265382","4265382","4361041","4400074","4491653","4490150","4493061","4410993","4407679","4442087","NA","4291701","4337340","4440433","4407439","4484396","4407683","NA","4491653","4491653","NA","NA","4490146","NAP perception","2","2446","2","yes","1024"
"100","yes","100","1454","1454","white","no","xpyriment","Ich habe die obigen Informationen gelesen und verstanden.","legacy","legacy","0","uniform","1","0","0","undefined","undefined","1","f","2","1","NA","0","1","0","0","0","0","0","0","0","0","12","12","12","0","0","0","NA","0","0","2","0","0","0","2","12","12","12","12","12","Sat Nov 11 20:31:30 2017","Forced-choice identification task with a practice and an experimental phase","yes","NAP_GER_AA_4blocks_noglides.osexp","/Users/aviadalbert/Documents/Academisch/UoC/Dissertation/Experiment/OpenSesame/NAP-FC/NAP_GER_AA_4blocks_noglides","yes","no","sans","no","20","no","black","no","Weiter","yes","768","legacy","2","9","0","/Users/aviadalbert/Documents/Academisch/UoC/Dissertation/Experiment/OpenSesame/NAP-FC/NAP_GER_AA_4blocks_noglides/subject-48.csv","xpyriment","Jazzy James","3.1.9","yes","yes","59a800d99ad5a1025d81bb03","59a801616c613b0251691de0","no","no","0","f","j","space","NA","space","space","f","1916","2715","41781","NA","39029","7297","1916","2","legacy","1024","1","44100","-16","experiment","nfal","3","0","1","0","1","englisch","48","","even","4484396","4442088","NA","NA","4487112","4484393","NA","4265382","4483925","4265382","4265382","4361041","4400074","4494826","4493322","4496744","4410993","4407679","4442087","NA","4291701","4337340","4440433","4407439","4484396","4407683","NA","4494825","4494825","NA","NA","4493318","NAP perception","3","4362","3","yes","1024"
"100","yes","100","1382.5","1382.5","white","no","xpyriment","Ich habe die obigen Informationen gelesen und verstanden.","legacy","legacy","0","uniform","1","0","0","undefined","undefined","1","f","2","1","NA","0","1","0","0","0","0","0","0","0","0","13","13","13","0","0","0","NA","0","0","2","0","0","0","2","13","13","13","13","13","Sat Nov 11 20:31:30 2017","Forced-choice identification task with a practice and an experimental phase","yes","NAP_GER_AA_4blocks_noglides.osexp","/Users/aviadalbert/Documents/Academisch/UoC/Dissertation/Experiment/OpenSesame/NAP-FC/NAP_GER_AA_4blocks_noglides","yes","no","sans","no","20","no","black","no","Weiter","yes","768","legacy","3","9","0","/Users/aviadalbert/Documents/Academisch/UoC/Dissertation/Experiment/OpenSesame/NAP-FC/NAP_GER_AA_4blocks_noglides/subject-48.csv","xpyriment","Jazzy James","3.1.9","yes","yes","59a800d99ad5a1025d81bb03","59a801616c613b0251691de0","no","no","0","f","j","space","NA","space","space","f","1168","2715","41781","NA","39029","7297","1168","2","legacy","1024","1","44100","-16","experiment","zval","3","0","1","0","1","englisch","48","","even","4484396","4442088","NA","NA","4487112","4484393","NA","4265382","4483925","4265382","4265382","4361041","4400074","4498526","4497019","4499695","4410993","4407679","4442087","NA","4291701","4337340","4440433","4407439","4484396","4407683","NA","4498526","4498526","NA","NA","4497015","NAP perception","4","5530","4","yes","1024"
"100","yes","100","1288.6","1288.6","white","no","xpyriment","Ich habe die obigen Informationen gelesen und verstanden.","legacy","legacy","0","uniform","1","0","0","undefined","undefined","1","j","2","1","NA","0","1","0","0","0","0","0","0","0","0","14","14","14","0","0","0","NA","0","0","2","0","0","0","2","14","14","14","14","14","Sat Nov 11 20:31:30 2017","Forced-choice identification task with a practice and an experimental phase","yes","NAP_GER_AA_4blocks_noglides.osexp","/Users/aviadalbert/Documents/Academisch/UoC/Dissertation/Experiment/OpenSesame/NAP-FC/NAP_GER_AA_4blocks_noglides","yes","no","sans","no","20","no","black","no","Weiter","yes","768","legacy","4","9","0","/Users/aviadalbert/Documents/Academisch/UoC/Dissertation/Experiment/OpenSesame/NAP-FC/NAP_GER_AA_4blocks_noglides/subject-48.csv","xpyriment","Jazzy James","3.1.9","yes","yes","59a800d99ad5a1025d81bb03","59a801616c613b0251691de0","no","no","0","j","j","space","NA","space","space","j","913","2715","41781","NA","39029","7297","913","2","legacy","1024","1","44100","-16","experiment","ʃefal","3","0","1","0","1","englisch","48","","even","4484396","4442088","NA","NA","4487112","4484393","NA","4265382","4483925","4265382","4265382","4361041","4400074","4501468","4499965","4502382","4410993","4407679","4442087","NA","4291701","4337340","4440433","4407439","4484396","4407683","NA","4501468","4501468","NA","NA","4499961","NAP perception","5","6443","5","yes","1024"
"100","yes","100","1227.66666667","1227.66666667","white","no","xpyriment","Ich habe die obigen Informationen gelesen und verstanden.","legacy","legacy","0","uniform","1","0","0","undefined","undefined","1","j","2","1","NA","0","1","0","0","0","0","0","0","0","0","15","15","15","0","0","0","NA","0","0","2","0","0","0","2","15","15","15","15","15","Sat Nov 11 20:31:30 2017","Forced-choice identification task with a practice and an experimental phase","yes","NAP_GER_AA_4blocks_noglides.osexp","/Users/aviadalbert/Documents/Academisch/UoC/Dissertation/Experiment/OpenSesame/NAP-FC/NAP_GER_AA_4blocks_noglides","yes","no","sans","no","20","no","black","no","Weiter","yes","768","legacy","5","9","0","/Users/aviadalbert/Documents/Academisch/UoC/Dissertation/Experiment/OpenSesame/NAP-FC/NAP_GER_AA_4blocks_noglides/subject-48.csv","xpyriment","Jazzy James","3.1.9","yes","yes","59a800d99ad5a1025d81bb03","59a801616c613b0251691de0","no","no","0","j","j","space","NA","space","space","j","923","2715","41781","NA","39029","7297","923","2","legacy","1024","1","44100","-16","experiment","efsal","3","0","1","0","1","englisch","48","","even","4484396","4442088","NA","NA","4487112","4484393","NA","4265382","4483925","4265382","4265382","4361041","4400074","4504157","4502651","4505081","4410993","4407679","4442087","NA","4291701","4337340","4440433","4407439","4484396","4407683","NA","4504157","4504157","NA","NA","4502647","NAP perception","6","7366","6","yes","1024"
"100","yes","100","1184.71428571","1184.71428571","white","no","xpyriment","Ich habe die obigen Informationen gelesen und verstanden.","legacy","legacy","0","uniform","1","0","0","undefined","undefined","1","j","2","1","NA","0","1","0","0","0","0","0","0","0","0","16","16","16","0","0","0","NA","0","0","2","0","0","0","2","16","16","16","16","16","Sat Nov 11 20:31:30 2017","Forced-choice identification task with a practice and an experimental phase","yes","NAP_GER_AA_4blocks_noglides.osexp","/Users/aviadalbert/Documents/Academisch/UoC/Dissertation/Experiment/OpenSesame/NAP-FC/NAP_GER_AA_4blocks_noglides","yes","no","sans","no","20","no","black","no","Weiter","yes","768","legacy","6","9","0","/Users/aviadalbert/Documents/Academisch/UoC/Dissertation/Experiment/OpenSesame/NAP-FC/NAP_GER_AA_4blocks_noglides/subject-48.csv","xpyriment","Jazzy James","3.1.9","yes","yes","59a800d99ad5a1025d81bb03","59a801616c613b0251691de0","no","no","0","j","j","space","NA","space","space","j","927","2715","41781","NA","39029","7297","927","2","legacy","1024","1","44100","-16","experiment","melal","3","0","1","0","1","englisch","48","","even","4484396","4442088","NA","NA","4487112","4484393","NA","4265382","4483925","4265382","4265382","4361041","4400074","4506856","4505353","4507784","4410993","4407679","4442087","NA","4291701","4337340","4440433","4407439","4484396","4407683","NA","4506856","4506856","NA","NA","4505349","NAP perception","7","8293","7","yes","1024"
"100","yes","100","1150.5","1150.5","white","no","xpyriment","Ich habe die obigen Informationen gelesen und verstanden.","legacy","legacy","0","uniform","1","0","0","undefined","undefined","1","j","2","1","NA","0","1","0","0","0","0","0","0","0","0","17","17","17","0","0","0","NA","0","0","2","0","0","0","2","17","17","17","17","17","Sat Nov 11 20:31:30 2017","Forced-choice identification task with a practice and an experimental phase","yes","NAP_GER_AA_4blocks_noglides.osexp","/Users/aviadalbert/Documents/Academisch/UoC/Dissertation/Experiment/OpenSesame/NAP-FC/NAP_GER_AA_4blocks_noglides","yes","no","sans","no","20","no","black","no","Weiter","yes","768","legacy","7","9","0","/Users/aviadalbert/Documents/Academisch/UoC/Dissertation/Experiment/OpenSesame/NAP-FC/NAP_GER_AA_4blocks_noglides/subject-48.csv","xpyriment","Jazzy James","3.1.9","yes","yes","59a800d99ad5a1025d81bb03","59a801616c613b0251691de0","no","no","0","j","j","space","NA","space","space","j","911","2715","41781","NA","39029","7297","911","2","legacy","1024","1","44100","-16","experiment","eftal","3","0","1","0","1","englisch","48","","even","4484396","4442088","NA","NA","4487112","4484393","NA","4265382","4483925","4265382","4265382","4361041","4400074","4509572","4508069","4510484","4410993","4407679","4442087","NA","4291701","4337340","4440433","4407439","4484396","4407683","NA","4509572","4509572","NA","NA","4508065","NAP perception","8","9204","8","yes","1024"
"100","yes","100","1119.11111111","1119.11111111","white","no","xpyriment","Ich habe die obigen Informationen gelesen und verstanden.","legacy","legacy","0","uniform","1","0","0","undefined","undefined","1","j","2","1","NA","0","1","0","0","0","0","0","0","0","0","18","18","18","0","0","0","NA","0","0","2","0","0","0","2","18","18","18","18","18","Sat Nov 11 20:31:30 2017","Forced-choice identification task with a practice and an experimental phase","yes","NAP_GER_AA_4blocks_noglides.osexp","/Users/aviadalbert/Documents/Academisch/UoC/Dissertation/Experiment/OpenSesame/NAP-FC/NAP_GER_AA_4blocks_noglides","yes","no","sans","no","20","no","black","no","Weiter","yes","768","legacy","8","9","0","/Users/aviadalbert/Documents/Academisch/UoC/Dissertation/Experiment/OpenSesame/NAP-FC/NAP_GER_AA_4blocks_noglides/subject-48.csv","xpyriment","Jazzy James","3.1.9","yes","yes","59a800d99ad5a1025d81bb03","59a801616c613b0251691de0","no","no","0","j","j","space","NA","space","space","j","868","2715","41781","NA","39029","7297","868","2","legacy","1024","1","44100","-16","experiment","emsal","3","0","1","0","1","englisch","48","","even","4484396","4442088","NA","NA","4487112","4484393","NA","4265382","4483925","4265382","4265382","4361041","4400074","4512262","4510759","4513131","4410993","4407679","4442087","NA","4291701","4337340","4440433","4407439","4484396","4407683","NA","4512262","4512262","NA","NA","4510755","NAP perception","9","10072","9","yes","1024"
"100","yes","100","1096.2","1096.2","white","no","xpyriment","Ich habe die obigen Informationen gelesen und verstanden.","legacy","legacy","0","uniform","1","0","0","undefined","undefined","1","j","2","1","NA","0","1","0","0","0","0","0","0","0","0","19","19","19","0","0","0","NA","0","0","2","0","0","0","2","19","19","19","19","19","Sat Nov 11 20:31:30 2017","Forced-choice identification task with a practice and an experimental phase","yes","NAP_GER_AA_4blocks_noglides.osexp","/Users/aviadalbert/Documents/Academisch/UoC/Dissertation/Experiment/OpenSesame/NAP-FC/NAP_GER_AA_4blocks_noglides","yes","no","sans","no","20","no","black","no","Weiter","yes","768","legacy","9","9","0","/Users/aviadalbert/Documents/Academisch/UoC/Dissertation/Experiment/OpenSesame/NAP-FC/NAP_GER_AA_4blocks_noglides/subject-48.csv","xpyriment","Jazzy James","3.1.9","yes","yes","59a800d99ad5a1025d81bb03","59a801616c613b0251691de0","no","no","0","j","j","space","NA","space","space","j","890","2715","41781","NA","39029","7297","890","2","legacy","1024","1","44100","-16","experiment","enpal","3","0","1","0","1","englisch","48","","even","4484396","4442088","NA","NA","4487112","4484393","NA","4265382","4483925","4265382","4265382","4361041","4400074","4514911","4513407","4515802","4410993","4407679","4442087","NA","4291701","4337340","4440433","4407439","4484396","4407683","NA","4514911","4514911","NA","NA","4513403","NAP perception","10","10962","10","yes","1024"
"90.9090909091","yes","90.9090909091","1080.36363636","1080.36363636","white","no","xpyriment","Ich habe die obigen Informationen gelesen und verstanden.","legacy","legacy","0","uniform","0","0","0","undefined","undefined","0","f","2","1","NA","0","1","0","0","0","0","0","0","0","0","20","20","20","0","0","0","NA","0","0","2","0","0","0","2","20","20","20","20","20","Sat Nov 11 20:31:30 2017","Forced-choice identification task with a practice and an experimental phase","yes","NAP_GER_AA_4blocks_noglides.osexp","/Users/aviadalbert/Documents/Academisch/UoC/Dissertation/Experiment/OpenSesame/NAP-FC/NAP_GER_AA_4blocks_noglides","yes","no","sans","no","20","no","black","no","Weiter","yes","768","legacy","10","9","0","/Users/aviadalbert/Documents/Academisch/UoC/Dissertation/Experiment/OpenSesame/NAP-FC/NAP_GER_AA_4blocks_noglides/subject-48.csv","xpyriment","Jazzy James","3.1.9","yes","yes","59a800d99ad5a1025d81bb03","59a801616c613b0251691de0","no","no","0","j","j","space","NA","space","space","j","922","2715","41781","NA","39029","7297","922","2","legacy","1024","1","44100","-16","experiment","nmal","3","0","1","0","1","englisch","48","","even","4484396","4442088","NA","NA","4487112","4484393","NA","4265382","4483925","4265382","4265382","4361041","4400074","4517566","4516060","4518489","4410993","4407679","4442087","NA","4291701","4337340","4440433","4407439","4484396","4407683","NA","4517566","4517566","NA","NA","4516056","NAP perception","10","11884","11","yes","1024"
"91.6666666667","yes","91.6666666667","1058.5","1058.5","white","no","xpyriment","Ich habe die obigen Informationen gelesen und verstanden.","legacy","legacy","0","uniform","1","0","0","undefined","undefined","1","j","2","1","NA","0","1","0","0","0","0","0","0","0","0","21","21","21","0","0","0","NA","0","0","2","0","0","0","2","21","21","21","21","21","Sat Nov 11 20:31:30 2017","Forced-choice identification task with a practice and an experimental phase","yes","NAP_GER_AA_4blocks_noglides.osexp","/Users/aviadalbert/Documents/Academisch/UoC/Dissertation/Experiment/OpenSesame/NAP-FC/NAP_GER_AA_4blocks_noglides","yes","no","sans","no","20","no","black","no","Weiter","yes","768","legacy","11","9","0","/Users/aviadalbert/Documents/Academisch/UoC/Dissertation/Experiment/OpenSesame/NAP-FC/NAP_GER_AA_4blocks_noglides/subject-48.csv","xpyriment","Jazzy James","3.1.9","yes","yes","59a800d99ad5a1025d81bb03","59a801616c613b0251691de0","no","no","0","j","j","space","NA","space","space","j","818","2715","41781","NA","39029","7297","818","2","legacy","1024","1","44100","-16","experiment","emlal","3","0","1","0","1","englisch","48","","even","4484396","4442088","NA","NA","4487112","4484393","NA","4265382","4483925","4265382","4265382","4361041","4400074","4520263","4518759","4521082","4410993","4407679","4442087","NA","4291701","4337340","4440433","4407439","4484396","4407683","NA","4520262","4520263","NA","NA","4518755","NAP perception","11","12702","12","yes","1024"
"92.3076923077","yes","92.3076923077","1041","1041","white","no","xpyriment","Ich habe die obigen Informationen gelesen und verstanden.","legacy","legacy","0","uniform","1","0","0","undefined","undefined","1","j","2","1","NA","0","1","0","0","0","0","0","0","0","0","22","22","22","0","0","0","NA","0","0","2","0","0","0","2","22","22","22","22","22","Sat Nov 11 20:31:30 2017","Forced-choice identification task with a practice and an experimental phase","yes","NAP_GER_AA_4blocks_noglides.osexp","/Users/aviadalbert/Documents/Academisch/UoC/Dissertation/Experiment/OpenSesame/NAP-FC/NAP_GER_AA_4blocks_noglides","yes","no","sans","no","20","no","black","no","Weiter","yes","768","legacy","12","9","0","/Users/aviadalbert/Documents/Academisch/UoC/Dissertation/Experiment/OpenSesame/NAP-FC/NAP_GER_AA_4blocks_noglides/subject-48.csv","xpyriment","Jazzy James","3.1.9","yes","yes","59a800d99ad5a1025d81bb03","59a801616c613b0251691de0","no","no","0","j","j","space","NA","space","space","j","831","2715","41781","NA","39029","7297","831","2","legacy","1024","1","44100","-16","experiment","enfal","3","0","1","0","1","englisch","48","","even","4484396","4442088","NA","NA","4487112","4484393","NA","4265382","4483925","4265382","4265382","4361041","4400074","4522853","4521348","4523685","4410993","4407679","4442087","NA","4291701","4337340","4440433","4407439","4484396","4407683","NA","4522852","4522853","NA","NA","4521344","NAP perception","12","13533","13","yes","1024"
"92.8571428571","yes","92.8571428571","1019.64285714","1019.64285714","white","no","xpyriment","Ich habe die obigen Informationen gelesen und verstanden.","legacy","legacy","0","uniform","1","0","0","undefined","undefined","1","j","2","1","NA","0","1","0","0","0","0","0","0","0","0","23","23","23","0","0","0","NA","0","0","2","0","0","0","2","23","23","23","23","23","Sat Nov 11 20:31:30 2017","Forced-choice identification task with a practice and an experimental phase","yes","NAP_GER_AA_4blocks_noglides.osexp","/Users/aviadalbert/Documents/Academisch/UoC/Dissertation/Experiment/OpenSesame/NAP-FC/NAP_GER_AA_4blocks_noglides","yes","no","sans","no","20","no","black","no","Weiter","yes","768","legacy","13","9","0","/Users/aviadalbert/Documents/Academisch/UoC/Dissertation/Experiment/OpenSesame/NAP-FC/NAP_GER_AA_4blocks_noglides/subject-48.csv","xpyriment","Jazzy James","3.1.9","yes","yes","59a800d99ad5a1025d81bb03","59a801616c613b0251691de0","no","no","0","j","j","space","NA","space","space","j","742","2715","41781","NA","39029","7297","742","2","legacy","1024","1","44100","-16","experiment","emtal","3","0","1","0","1","englisch","48","","even","4484396","4442088","NA","NA","4487112","4484393","NA","4265382","4483925","4265382","4265382","4361041","4400074","4525455","4523952","4526198","4410993","4407679","4442087","NA","4291701","4337340","4440433","4407439","4484396","4407683","NA","4525455","4525455","NA","NA","4523948","NAP perception","13","14275","14","yes","1024"
"93.3333333333","yes","93.3333333333","1012.86666667","1012.86666667","white","no","xpyriment","Ich habe die obigen Informationen gelesen und verstanden.","legacy","legacy","0","uniform","1","0","0","undefined","undefined","1","f","2","1","NA","0","1","0","0","0","0","0","0","0","0","24","24","24","0","0","0","NA","0","0","2","0","0","0","2","24","24","24","24","24","Sat Nov 11 20:31:30 2017","Forced-choice identification task with a practice and an experimental phase","yes","NAP_GER_AA_4blocks_noglides.osexp","/Users/aviadalbert/Documents/Academisch/UoC/Dissertation/Experiment/OpenSesame/NAP-FC/NAP_GER_AA_4blocks_noglides","yes","no","sans","no","20","no","black","no","Weiter","yes","768","legacy","14","9","0","/Users/aviadalbert/Documents/Academisch/UoC/Dissertation/Experiment/OpenSesame/NAP-FC/NAP_GER_AA_4blocks_noglides/subject-48.csv","xpyriment","Jazzy James","3.1.9","yes","yes","59a800d99ad5a1025d81bb03","59a801616c613b0251691de0","no","no","0","f","j","space","NA","space","space","f","918","2715","41781","NA","39029","7297","918","2","legacy","1024","1","44100","-16","experiment","ftal","3","0","1","0","1","englisch","48","","even","4484396","4442088","NA","NA","4487112","4484393","NA","4265382","4483925","4265382","4265382","4361041","4400074","4527978","4526473","4528897","4410993","4407679","4442087","NA","4291701","4337340","4440433","4407439","4484396","4407683","NA","4527978","4527978","NA","NA","4526469","NAP perception","14","15193","15","yes","1024"
"93.75","yes","93.75","999.1875","999.1875","white","no","xpyriment","Ich habe die obigen Informationen gelesen und verstanden.","legacy","legacy","0","uniform","1","0","0","undefined","undefined","1","j","2","1","NA","0","1","0","0","0","0","0","0","0","0","25","25","25","0","0","0","NA","0","0","2","0","0","0","2","25","25","25","25","25","Sat Nov 11 20:31:30 2017","Forced-choice identification task with a practice and an experimental phase","yes","NAP_GER_AA_4blocks_noglides.osexp","/Users/aviadalbert/Documents/Academisch/UoC/Dissertation/Experiment/OpenSesame/NAP-FC/NAP_GER_AA_4blocks_noglides","yes","no","sans","no","20","no","black","no","Weiter","yes","768","legacy","15","9","0","/Users/aviadalbert/Documents/Academisch/UoC/Dissertation/Experiment/OpenSesame/NAP-FC/NAP_GER_AA_4blocks_noglides/subject-48.csv","xpyriment","Jazzy James","3.1.9","yes","yes","59a800d99ad5a1025d81bb03","59a801616c613b0251691de0","no","no","0","j","j","space","NA","space","space","j","794","2715","41781","NA","39029","7297","794","2","legacy","1024","1","44100","-16","experiment","metal","3","0","1","0","1","englisch","48","","even","4484396","4442088","NA","NA","4487112","4484393","NA","4265382","4483925","4265382","4265382","4361041","4400074","4530681","4529177","4531476","4410993","4407679","4442087","NA","4291701","4337340","4440433","4407439","4484396","4407683","NA","4530681","4530681","NA","NA","4529173","NAP perception","15","15987","16","yes","1024"
"94.1176470588","yes","94.1176470588","996.647058824","996.647058824","white","no","xpyriment","Ich habe die obigen Informationen gelesen und verstanden.","legacy","legacy","0","uniform","1","0","0","undefined","undefined","1","f","2","1","NA","0","1","0","0","0","0","0","0","0","0","26","26","26","0","0","0","NA","0","0","2","0","0","0","2","26","26","26","26","26","Sat Nov 11 20:31:30 2017","Forced-choice identification task with a practice and an experimental phase","yes","NAP_GER_AA_4blocks_noglides.osexp","/Users/aviadalbert/Documents/Academisch/UoC/Dissertation/Experiment/OpenSesame/NAP-FC/NAP_GER_AA_4blocks_noglides","yes","no","sans","no","20","no","black","no","Weiter","yes","768","legacy","16","9","0","/Users/aviadalbert/Documents/Academisch/UoC/Dissertation/Experiment/OpenSesame/NAP-FC/NAP_GER_AA_4blocks_noglides/subject-48.csv","xpyriment","Jazzy James","3.1.9","yes","yes","59a800d99ad5a1025d81bb03","59a801616c613b0251691de0","no","no","0","f","j","space","NA","space","space","f","956","2715","41781","NA","39029","7297","956","2","legacy","1024","1","44100","-16","experiment","lval","3","0","1","0","1","englisch","48","","even","4484396","4442088","NA","NA","4487112","4484393","NA","4265382","4483925","4265382","4265382","4361041","4400074","4533264","4531758","4534221","4410993","4407679","4442087","NA","4291701","4337340","4440433","4407439","4484396","4407683","NA","4533264","4533264","NA","NA","4531754","NAP perception","16","16943","17","yes","1024"
"94.4444444444","yes","94.4444444444","990.277777778","990.277777778","white","no","xpyriment","Ich habe die obigen Informationen gelesen und verstanden.","legacy","legacy","0","uniform","1","0","0","undefined","undefined","1","j","2","1","NA","0","1","0","0","0","0","0","0","0","0","27","27","27","0","0","0","NA","0","0","2","0","0","0","2","27","27","27","27","27","Sat Nov 11 20:31:30 2017","Forced-choice identification task with a practice and an experimental phase","yes","NAP_GER_AA_4blocks_noglides.osexp","/Users/aviadalbert/Documents/Academisch/UoC/Dissertation/Experiment/OpenSesame/NAP-FC/NAP_GER_AA_4blocks_noglides","yes","no","sans","no","20","no","black","no","Weiter","yes","768","legacy","17","9","0","/Users/aviadalbert/Documents/Academisch/UoC/Dissertation/Experiment/OpenSesame/NAP-FC/NAP_GER_AA_4blocks_noglides/subject-48.csv","xpyriment","Jazzy James","3.1.9","yes","yes","59a800d99ad5a1025d81bb03","59a801616c613b0251691de0","no","no","0","j","j","space","NA","space","space","j","882","2715","41781","NA","39029","7297","882","2","legacy","1024","1","44100","-16","experiment","nepal","3","0","1","0","1","englisch","48","","even","4484396","4442088","NA","NA","4487112","4484393","NA","4265382","4483925","4265382","4265382","4361041","4400074","4535993","4534486","4536876","4410993","4407679","4442087","NA","4291701","4337340","4440433","4407439","4484396","4407683","NA","4535993","4535993","NA","NA","4534482","NAP perception","17","17825","18","yes","1024"
"94.7368421053","yes","94.7368421053","987.526315789","987.526315789","white","no","xpyriment","Ich habe die obigen Informationen gelesen und verstanden.","legacy","legacy","0","uniform","1","0","0","undefined","undefined","1","f","2","1","NA","0","1","0","0","0","0","0","0","0","0","28","28","28","0","0","0","NA","0","0","2","0","0","0","2","28","28","28","28","28","Sat Nov 11 20:31:30 2017","Forced-choice identification task with a practice and an experimental phase","yes","NAP_GER_AA_4blocks_noglides.osexp","/Users/aviadalbert/Documents/Academisch/UoC/Dissertation/Experiment/OpenSesame/NAP-FC/NAP_GER_AA_4blocks_noglides","yes","no","sans","no","20","no","black","no","Weiter","yes","768","legacy","18","9","0","/Users/aviadalbert/Documents/Academisch/UoC/Dissertation/Experiment/OpenSesame/NAP-FC/NAP_GER_AA_4blocks_noglides/subject-48.csv","xpyriment","Jazzy James","3.1.9","yes","yes","59a800d99ad5a1025d81bb03","59a801616c613b0251691de0","no","no","0","f","j","space","NA","space","space","f","938","2715","41781","NA","39029","7297","938","2","legacy","1024","1","44100","-16","experiment","vlal","3","0","1","0","1","englisch","48","","even","4484396","4442088","NA","NA","4487112","4484393","NA","4265382","4483925","4265382","4265382","4361041","4400074","4538651","4537146","4539590","4410993","4407679","4442087","NA","4291701","4337340","4440433","4407439","4484396","4407683","NA","4538651","4538651","NA","NA","4537142","NAP perception","18","18763","19","yes","1024"
"95","yes","95","988.6","988.6","white","no","xpyriment","Ich habe die obigen Informationen gelesen und verstanden.","legacy","legacy","0","uniform","1","0","0","undefined","undefined","1","j","2","1","NA","0","1","0","0","0","0","0","0","0","0","29","29","29","0","0","0","NA","0","0","2","0","0","0","2","29","29","29","29","29","Sat Nov 11 20:31:30 2017","Forced-choice identification task with a practice and an experimental phase","yes","NAP_GER_AA_4blocks_noglides.osexp","/Users/aviadalbert/Documents/Academisch/UoC/Dissertation/Experiment/OpenSesame/NAP-FC/NAP_GER_AA_4blocks_noglides","yes","no","sans","no","20","no","black","no","Weiter","yes","768","legacy","19","9","0","/Users/aviadalbert/Documents/Academisch/UoC/Dissertation/Experiment/OpenSesame/NAP-FC/NAP_GER_AA_4blocks_noglides/subject-48.csv","xpyriment","Jazzy James","3.1.9","yes","yes","59a800d99ad5a1025d81bb03","59a801616c613b0251691de0","no","no","0","j","j","space","NA","space","space","j","1009","2715","41781","NA","39029","7297","1009","2","legacy","1024","1","44100","-16","experiment","zeval","3","0","1","0","1","englisch","48","","even","4484396","4442088","NA","NA","4487112","4484393","NA","4265382","4483925","4265382","4265382","4361041","4400074","4541369","4539865","4542379","4410993","4407679","4442087","NA","4291701","4337340","4440433","4407439","4484396","4407683","NA","4541368","4541369","NA","NA","4539861","NAP perception","19","19772","20","yes","1024"
"95.2380952381","yes","95.2380952381","981","981","white","no","xpyriment","Ich habe die obigen Informationen gelesen und verstanden.","legacy","legacy","0","uniform","1","0","0","undefined","undefined","1","j","2","1","NA","0","1","0","0","0","0","0","0","0","0","30","30","30","0","0","0","NA","0","0","2","0","0","0","2","30","30","30","30","30","Sat Nov 11 20:31:30 2017","Forced-choice identification task with a practice and an experimental phase","yes","NAP_GER_AA_4blocks_noglides.osexp","/Users/aviadalbert/Documents/Academisch/UoC/Dissertation/Experiment/OpenSesame/NAP-FC/NAP_GER_AA_4blocks_noglides","yes","no","sans","no","20","no","black","no","Weiter","yes","768","legacy","20","9","0","/Users/aviadalbert/Documents/Academisch/UoC/Dissertation/Experiment/OpenSesame/NAP-FC/NAP_GER_AA_4blocks_noglides/subject-48.csv","xpyriment","Jazzy James","3.1.9","yes","yes","59a800d99ad5a1025d81bb03","59a801616c613b0251691de0","no","no","0","j","j","space","NA","space","space","j","829","2715","41781","NA","39029","7297","829","2","legacy","1024","1","44100","-16","experiment","elval","3","0","1","0","1","englisch","48","","even","4484396","4442088","NA","NA","4487112","4484393","NA","4265382","4483925","4265382","4265382","4361041","4400074","4544154","4542651","4544985","4410993","4407679","4442087","NA","4291701","4337340","4440433","4407439","4484396","4407683","NA","4544154","4544154","NA","NA","4542647","NAP perception","20","20601","21","yes","1024"
"95.4545454545","yes","95.4545454545","993.181818182","993.181818182","white","no","xpyriment","Ich habe die obigen Informationen gelesen und verstanden.","legacy","legacy","0","uniform","1","0","0","undefined","undefined","1","f","2","1","NA","0","1","0","0","0","0","0","0","0","0","31","31","31","0","0","0","NA","0","0","2","0","0","0","2","31","31","31","31","31","Sat Nov 11 20:31:30 2017","Forced-choice identification task with a practice and an experimental phase","yes","NAP_GER_AA_4blocks_noglides.osexp","/Users/aviadalbert/Documents/Academisch/UoC/Dissertation/Experiment/OpenSesame/NAP-FC/NAP_GER_AA_4blocks_noglides","yes","no","sans","no","20","no","black","no","Weiter","yes","768","legacy","21","9","0","/Users/aviadalbert/Documents/Academisch/UoC/Dissertation/Experiment/OpenSesame/NAP-FC/NAP_GER_AA_4blocks_noglides/subject-48.csv","xpyriment","Jazzy James","3.1.9","yes","yes","59a800d99ad5a1025d81bb03","59a801616c613b0251691de0","no","no","0","f","j","space","NA","space","space","f","1249","2715","41781","NA","39029","7297","1249","2","legacy","1024","1","44100","-16","experiment","nfal","3","0","1","0","1","englisch","48","","even","4484396","4442088","NA","NA","4487112","4484393","NA","4265382","4483925","4265382","4265382","4361041","4400074","4546756","4545250","4548007","4410993","4407679","4442087","NA","4291701","4337340","4440433","4407439","4484396","4407683","NA","4546755","4546755","NA","NA","4545246","NAP perception","21","21850","22","yes","1024"
"95.652173913","yes","95.652173913","992.130434783","992.130434783","white","no","xpyriment","Ich habe die obigen Informationen gelesen und verstanden.","legacy","legacy","0","uniform","1","0","0","undefined","undefined","1","j","2","1","NA","0","1","0","0","0","0","0","0","0","0","32","32","32","0","0","0","NA","0","0","2","0","0","0","2","32","32","32","32","32","Sat Nov 11 20:31:30 2017","Forced-choice identification task with a practice and an experimental phase","yes","NAP_GER_AA_4blocks_noglides.osexp","/Users/aviadalbert/Documents/Academisch/UoC/Dissertation/Experiment/OpenSesame/NAP-FC/NAP_GER_AA_4blocks_noglides","yes","no","sans","no","20","no","black","no","Weiter","yes","768","legacy","22","9","0","/Users/aviadalbert/Documents/Academisch/UoC/Dissertation/Experiment/OpenSesame/NAP-FC/NAP_GER_AA_4blocks_noglides/subject-48.csv","xpyriment","Jazzy James","3.1.9","yes","yes","59a800d99ad5a1025d81bb03","59a801616c613b0251691de0","no","no","0","j","j","space","NA","space","space","j","969","2715","41781","NA","39029","7297","969","2","legacy","1024","1","44100","-16","experiment","elkal","3","0","1","0","1","englisch","48","","even","4484396","4442088","NA","NA","4487112","4484393","NA","4265382","4483925","4265382","4265382","4361041","4400074","4549787","4548284","4550758","4410993","4407679","4442087","NA","4291701","4337340","4440433","4407439","4484396","4407683","NA","4549787","4549787","NA","NA","4548280","NAP perception","22","22819","23","yes","1024"
"95.8333333333","yes","95.8333333333","990","990","white","no","xpyriment","Ich habe die obigen Informationen gelesen und verstanden.","legacy","legacy","0","uniform","1","0","0","undefined","undefined","1","f","2","1","NA","0","1","0","0","0","0","0","0","0","0","33","33","33","0","0","0","NA","0","0","2","0","0","0","2","33","33","33","33","33","Sat Nov 11 20:31:30 2017","Forced-choice identification task with a practice and an experimental phase","yes","NAP_GER_AA_4blocks_noglides.osexp","/Users/aviadalbert/Documents/Academisch/UoC/Dissertation/Experiment/OpenSesame/NAP-FC/NAP_GER_AA_4blocks_noglides","yes","no","sans","no","20","no","black","no","Weiter","yes","768","legacy","23","9","0","/Users/aviadalbert/Documents/Academisch/UoC/Dissertation/Experiment/OpenSesame/NAP-FC/NAP_GER_AA_4blocks_noglides/subject-48.csv","xpyriment","Jazzy James","3.1.9","yes","yes","59a800d99ad5a1025d81bb03","59a801616c613b0251691de0","no","no","0","f","j","space","NA","space","space","f","941","2715","41781","NA","39029","7297","941","2","legacy","1024","1","44100","-16","experiment","nval","3","0","1","0","1","englisch","48","","even","4484396","4442088","NA","NA","4487112","4484393","NA","4265382","4483925","4265382","4265382","4361041","4400074","4552541","4551035","4553484","4410993","4407679","4442087","NA","4291701","4337340","4440433","4407439","4484396","4407683","NA","4552541","4552541","NA","NA","4551031","NAP perception","23","23760","24","yes","1024"
"96","yes","96","983.72","983.72","white","no","xpyriment","Ich habe die obigen Informationen gelesen und verstanden.","legacy","legacy","0","uniform","1","0","0","undefined","undefined","1","j","2","1","NA","0","1","0","0","0","0","0","0","0","0","34","34","34","0","0","0","NA","0","0","2","0","0","0","2","34","34","34","34","34","Sat Nov 11 20:31:30 2017","Forced-choice identification task with a practice and an experimental phase","yes","NAP_GER_AA_4blocks_noglides.osexp","/Users/aviadalbert/Documents/Academisch/UoC/Dissertation/Experiment/OpenSesame/NAP-FC/NAP_GER_AA_4blocks_noglides","yes","no","sans","no","20","no","black","no","Weiter","yes","768","legacy","24","9","0","/Users/aviadalbert/Documents/Academisch/UoC/Dissertation/Experiment/OpenSesame/NAP-FC/NAP_GER_AA_4blocks_noglides/subject-48.csv","xpyriment","Jazzy James","3.1.9","yes","yes","59a800d99ad5a1025d81bb03","59a801616c613b0251691de0","no","no","0","j","j","space","NA","space","space","j","833","2715","41781","NA","39029","7297","833","2","legacy","1024","1","44100","-16","experiment","lemal","3","0","1","0","1","englisch","48","","even","4484396","4442088","NA","NA","4487112","4484393","NA","4265382","4483925","4265382","4265382","4361041","4400074","4555255","4553751","4556090","4410993","4407679","4442087","NA","4291701","4337340","4440433","4407439","4484396","4407683","NA","4555255","4555255","NA","NA","4553747","NAP perception","24","24593","25","yes","1024"
"96.1538461538","yes","96.1538461538","983.730769231","983.730769231","white","no","xpyriment","Ich habe die obigen Informationen gelesen und verstanden.","legacy","legacy","0","uniform","1","0","0","undefined","undefined","1","f","2","1","NA","0","1","0","0","0","0","0","0","0","0","35","35","35","0","0","0","NA","0","0","2","0","0","0","2","35","35","35","35","35","Sat Nov 11 20:31:30 2017","Forced-choice identification task with a practice and an experimental phase","yes","NAP_GER_AA_4blocks_noglides.osexp","/Users/aviadalbert/Documents/Academisch/UoC/Dissertation/Experiment/OpenSesame/NAP-FC/NAP_GER_AA_4blocks_noglides","yes","no","sans","no","20","no","black","no","Weiter","yes","768","legacy","25","9","0","/Users/aviadalbert/Documents/Academisch/UoC/Dissertation/Experiment/OpenSesame/NAP-FC/NAP_GER_AA_4blocks_noglides/subject-48.csv","xpyriment","Jazzy James","3.1.9","yes","yes","59a800d99ad5a1025d81bb03","59a801616c613b0251691de0","no","no","0","f","j","space","NA","space","space","f","984","2715","41781","NA","39029","7297","984","2","legacy","1024","1","44100","-16","experiment","sfal","3","0","1","0","1","englisch","48","","even","4484396","4442088","NA","NA","4487112","4484393","NA","4265382","4483925","4265382","4265382","4361041","4400074","4557857","4556353","4558843","4410993","4407679","4442087","NA","4291701","4337340","4440433","4407439","4484396","4407683","NA","4557857","4557857","NA","NA","4556349","NAP perception","25","25577","26","yes","1024"
"96.2962962963","yes","96.2962962963","980.962962963","980.962962963","white","no","xpyriment","Ich habe die obigen Informationen gelesen und verstanden.","legacy","legacy","0","uniform","1","0","0","undefined","undefined","1","j","2","1","NA","0","1","0","0","0","0","0","0","0","0","36","36","36","0","0","0","NA","0","0","2","0","0","0","2","36","36","36","36","36","Sat Nov 11 20:31:30 2017","Forced-choice identification task with a practice and an experimental phase","yes","NAP_GER_AA_4blocks_noglides.osexp","/Users/aviadalbert/Documents/Academisch/UoC/Dissertation/Experiment/OpenSesame/NAP-FC/NAP_GER_AA_4blocks_noglides","yes","no","sans","no","20","no","black","no","Weiter","yes","768","legacy","26","9","0","/Users/aviadalbert/Documents/Academisch/UoC/Dissertation/Experiment/OpenSesame/NAP-FC/NAP_GER_AA_4blocks_noglides/subject-48.csv","xpyriment","Jazzy James","3.1.9","yes","yes","59a800d99ad5a1025d81bb03","59a801616c613b0251691de0","no","no","0","j","j","space","NA","space","space","j","909","2715","41781","NA","39029","7297","909","2","legacy","1024","1","44100","-16","experiment","zemal","3","0","1","0","1","englisch","48","","even","4484396","4442088","NA","NA","4487112","4484393","NA","4265382","4483925","4265382","4265382","4361041","4400074","4560619","4559114","4561530","4410993","4407679","4442087","NA","4291701","4337340","4440433","4407439","4484396","4407683","NA","4560618","4560618","NA","NA","4559110","NAP perception","26","26486","27","yes","1024"
"96.4285714286","yes","96.4285714286","980.464285714","980.464285714","white","no","xpyriment","Ich habe die obigen Informationen gelesen und verstanden.","legacy","legacy","0","uniform","1","0","0","undefined","undefined","1","f","2","1","NA","0","1","0","0","0","0","0","0","0","0","37","37","37","0","0","0","NA","0","0","2","0","0","0","2","37","37","37","37","37","Sat Nov 11 20:31:30 2017","Forced-choice identification task with a practice and an experimental phase","yes","NAP_GER_AA_4blocks_noglides.osexp","/Users/aviadalbert/Documents/Academisch/UoC/Dissertation/Experiment/OpenSesame/NAP-FC/NAP_GER_AA_4blocks_noglides","yes","no","sans","no","20","no","black","no","Weiter","yes","768","legacy","27","9","0","/Users/aviadalbert/Documents/Academisch/UoC/Dissertation/Experiment/OpenSesame/NAP-FC/NAP_GER_AA_4blocks_noglides/subject-48.csv","xpyriment","Jazzy James","3.1.9","yes","yes","59a800d99ad5a1025d81bb03","59a801616c613b0251691de0","no","no","0","f","j","space","NA","space","space","f","967","2715","41781","NA","39029","7297","967","2","legacy","1024","1","44100","-16","experiment","ftal","3","0","1","0","1","englisch","48","","even","4484396","4442088","NA","NA","4487112","4484393","NA","4265382","4483925","4265382","4265382","4361041","4400074","4563312","4561806","4564281","4410993","4407679","4442087","NA","4291701","4337340","4440433","4407439","4484396","4407683","NA","4563312","4563312","NA","NA","4561802","NAP perception","27","27453","28","yes","1024"
"96.5517241379","yes","96.5517241379","978.793103448","978.793103448","white","no","xpyriment","Ich habe die obigen Informationen gelesen und verstanden.","legacy","legacy","0","uniform","1","0","0","undefined","undefined","1","f","2","1","NA","0","1","0","0","0","0","0","0","0","0","38","38","38","0","0","0","NA","0","0","2","0","0","0","2","38","38","38","38","38","Sat Nov 11 20:31:30 2017","Forced-choice identification task with a practice and an experimental phase","yes","NAP_GER_AA_4blocks_noglides.osexp","/Users/aviadalbert/Documents/Academisch/UoC/Dissertation/Experiment/OpenSesame/NAP-FC/NAP_GER_AA_4blocks_noglides","yes","no","sans","no","20","no","black","no","Weiter","yes","768","legacy","28","9","0","/Users/aviadalbert/Documents/Academisch/UoC/Dissertation/Experiment/OpenSesame/NAP-FC/NAP_GER_AA_4blocks_noglides/subject-48.csv","xpyriment","Jazzy James","3.1.9","yes","yes","59a800d99ad5a1025d81bb03","59a801616c613b0251691de0","no","no","0","f","j","space","NA","space","space","f","932","2715","41781","NA","39029","7297","932","2","legacy","1024","1","44100","-16","experiment","smal","3","0","1","0","1","englisch","48","","even","4484396","4442088","NA","NA","4487112","4484393","NA","4265382","4483925","4265382","4265382","4361041","4400074","4566053","4564548","4566987","4410993","4407679","4442087","NA","4291701","4337340","4440433","4407439","4484396","4407683","NA","4566053","4566053","NA","NA","4564544","NAP perception","28","28385","29","yes","1024"
"96.6666666667","yes","96.6666666667","976.066666667","976.066666667","white","no","xpyriment","Ich habe die obigen Informationen gelesen und verstanden.","legacy","legacy","0","uniform","1","0","0","undefined","undefined","1","f","2","1","NA","0","1","0","0","0","0","0","0","0","0","39","39","39","0","0","0","NA","0","0","2","0","0","0","2","39","39","39","39","39","Sat Nov 11 20:31:30 2017","Forced-choice identification task with a practice and an experimental phase","yes","NAP_GER_AA_4blocks_noglides.osexp","/Users/aviadalbert/Documents/Academisch/UoC/Dissertation/Experiment/OpenSesame/NAP-FC/NAP_GER_AA_4blocks_noglides","yes","no","sans","no","20","no","black","no","Weiter","yes","768","legacy","29","9","0","/Users/aviadalbert/Documents/Academisch/UoC/Dissertation/Experiment/OpenSesame/NAP-FC/NAP_GER_AA_4blocks_noglides/subject-48.csv","xpyriment","Jazzy James","3.1.9","yes","yes","59a800d99ad5a1025d81bb03","59a801616c613b0251691de0","no","no","0","f","j","space","NA","space","space","f","897","2715","41781","NA","39029","7297","897","2","legacy","1024","1","44100","-16","experiment","mlal","3","0","1","0","1","englisch","48","","even","4484396","4442088","NA","NA","4487112","4484393","NA","4265382","4483925","4265382","4265382","4361041","4400074","4568753","4567250","4569652","4410993","4407679","4442087","NA","4291701","4337340","4440433","4407439","4484396","4407683","NA","4568753","4568753","NA","NA","4567246","NAP perception","29","29282","30","yes","1024"
"96.7741935484","yes","96.7741935484","1006.41935484","1006.41935484","white","no","xpyriment","Ich habe die obigen Informationen gelesen und verstanden.","legacy","legacy","0","uniform","1","0","0","undefined","undefined","1","j","2","1","NA","0","1","0","0","0","0","0","0","0","0","40","40","40","0","0","0","NA","0","0","2","0","0","0","2","40","40","40","40","40","Sat Nov 11 20:31:30 2017","Forced-choice identification task with a practice and an experimental phase","yes","NAP_GER_AA_4blocks_noglides.osexp","/Users/aviadalbert/Documents/Academisch/UoC/Dissertation/Experiment/OpenSesame/NAP-FC/NAP_GER_AA_4blocks_noglides","yes","no","sans","no","20","no","black","no","Weiter","yes","768","legacy","30","9","0","/Users/aviadalbert/Documents/Academisch/UoC/Dissertation/Experiment/OpenSesame/NAP-FC/NAP_GER_AA_4blocks_noglides/subject-48.csv","xpyriment","Jazzy James","3.1.9","yes","yes","59a800d99ad5a1025d81bb03","59a801616c613b0251691de0","no","no","0","j","j","space","NA","space","space","j","1917","2715","41781","NA","39029","7297","1917","2","legacy","1024","1","44100","-16","experiment","nefal","3","0","1","0","1","englisch","48","","even","4484396","4442088","NA","NA","4487112","4484393","NA","4265382","4483925","4265382","4265382","4361041","4400074","4571440","4569934","4573359","4410993","4407679","4442087","NA","4291701","4337340","4440433","4407439","4484396","4407683","NA","4571439","4571439","NA","NA","4569930","NAP perception","30","31199","31","yes","1024"
"93.75","yes","93.75","1029.75","1029.75","white","no","xpyriment","Ich habe die obigen Informationen gelesen und verstanden.","legacy","legacy","0","uniform","0","0","0","undefined","undefined","0","f","2","1","NA","0","1","0","0","0","0","0","0","0","0","41","41","41","0","0","0","NA","0","0","2","0","0","0","2","41","41","41","41","41","Sat Nov 11 20:31:30 2017","Forced-choice identification task with a practice and an experimental phase","yes","NAP_GER_AA_4blocks_noglides.osexp","/Users/aviadalbert/Documents/Academisch/UoC/Dissertation/Experiment/OpenSesame/NAP-FC/NAP_GER_AA_4blocks_noglides","yes","no","sans","no","20","no","black","no","Weiter","yes","768","legacy","31","9","0","/Users/aviadalbert/Documents/Academisch/UoC/Dissertation/Experiment/OpenSesame/NAP-FC/NAP_GER_AA_4blocks_noglides/subject-48.csv","xpyriment","Jazzy James","3.1.9","yes","yes","59a800d99ad5a1025d81bb03","59a801616c613b0251691de0","no","no","0","j","j","space","NA","space","space","j","1753","2715","41781","NA","39029","7297","1753","2","legacy","1024","1","44100","-16","experiment","lfal","3","0","1","0","1","englisch","48","","even","4484396","4442088","NA","NA","4487112","4484393","NA","4265382","4483925","4265382","4265382","4361041","4400074","4575132","4573625","4576887","4410993","4407679","4442087","NA","4291701","4337340","4440433","4407439","4484396","4407683","NA","4575132","4575132","NA","NA","4573621","NAP perception","30","32952","32","yes","1024"
"93.9393939394","yes","93.9393939394","1035.75757576","1035.75757576","white","no","xpyriment","Ich habe die obigen Informationen gelesen und verstanden.","legacy","legacy","0","uniform","1","0","0","undefined","undefined","1","f","2","1","NA","0","1","0","0","0","0","0","0","0","0","42","42","42","0","0","0","NA","0","0","2","0","0","0","2","42","42","42","42","42","Sat Nov 11 20:31:30 2017","Forced-choice identification task with a practice and an experimental phase","yes","NAP_GER_AA_4blocks_noglides.osexp","/Users/aviadalbert/Documents/Academisch/UoC/Dissertation/Experiment/OpenSesame/NAP-FC/NAP_GER_AA_4blocks_noglides","yes","no","sans","no","20","no","black","no","Weiter","yes","768","legacy","32","9","0","/Users/aviadalbert/Documents/Academisch/UoC/Dissertation/Experiment/OpenSesame/NAP-FC/NAP_GER_AA_4blocks_noglides/subject-48.csv","xpyriment","Jazzy James","3.1.9","yes","yes","59a800d99ad5a1025d81bb03","59a801616c613b0251691de0","no","no","0","f","j","space","NA","space","space","f","1228","2715","41781","NA","39029","7297","1228","2","legacy","1024","1","44100","-16","experiment","msal","3","0","1","0","1","englisch","48","","even","4484396","4442088","NA","NA","4487112","4484393","NA","4265382","4483925","4265382","4265382","4361041","4400074","4578662","4577155","4579892","4410993","4407679","4442087","NA","4291701","4337340","4440433","4407439","4484396","4407683","NA","4578662","4578662","NA","NA","4577152","NAP perception","31","34180","33","yes","1024"
"94.1176470588","yes","94.1176470588","1037.55882353","1037.55882353","white","no","xpyriment","Ich habe die obigen Informationen gelesen und verstanden.","legacy","legacy","0","uniform","1","0","0","undefined","undefined","1","f","2","1","NA","0","1","0","0","0","0","0","0","0","0","43","43","43","0","0","0","NA","0","0","2","0","0","0","2","43","43","43","43","43","Sat Nov 11 20:31:30 2017","Forced-choice identification task with a practice and an experimental phase","yes","NAP_GER_AA_4blocks_noglides.osexp","/Users/aviadalbert/Documents/Academisch/UoC/Dissertation/Experiment/OpenSesame/NAP-FC/NAP_GER_AA_4blocks_noglides","yes","no","sans","no","20","no","black","no","Weiter","yes","768","legacy","33","9","0","/Users/aviadalbert/Documents/Academisch/UoC/Dissertation/Experiment/OpenSesame/NAP-FC/NAP_GER_AA_4blocks_noglides/subject-48.csv","xpyriment","Jazzy James","3.1.9","yes","yes","59a800d99ad5a1025d81bb03","59a801616c613b0251691de0","no","no","0","f","j","space","NA","space","space","f","1097","2715","41781","NA","39029","7297","1097","2","legacy","1024","1","44100","-16","experiment","msal","3","0","1","0","1","englisch","48","","even","4484396","4442088","NA","NA","4487112","4484393","NA","4265382","4483925","4265382","4265382","4361041","4400074","4581671","4580168","4582770","4410993","4407679","4442087","NA","4291701","4337340","4440433","4407439","4484396","4407683","NA","4581671","4581671","NA","NA","4580165","NAP perception","32","35277","34","yes","1024"
"94.2857142857","yes","94.2857142857","1040.4","1040.4","white","no","xpyriment","Ich habe die obigen Informationen gelesen und verstanden.","legacy","legacy","0","uniform","1","0","0","undefined","undefined","1","f","2","1","NA","0","1","0","0","0","0","0","0","0","0","44","44","44","0","0","0","NA","0","0","2","0","0","0","2","44","44","44","44","44","Sat Nov 11 20:31:30 2017","Forced-choice identification task with a practice and an experimental phase","yes","NAP_GER_AA_4blocks_noglides.osexp","/Users/aviadalbert/Documents/Academisch/UoC/Dissertation/Experiment/OpenSesame/NAP-FC/NAP_GER_AA_4blocks_noglides","yes","no","sans","no","20","no","black","no","Weiter","yes","768","legacy","34","9","0","/Users/aviadalbert/Documents/Academisch/UoC/Dissertation/Experiment/OpenSesame/NAP-FC/NAP_GER_AA_4blocks_noglides/subject-48.csv","xpyriment","Jazzy James","3.1.9","yes","yes","59a800d99ad5a1025d81bb03","59a801616c613b0251691de0","no","no","0","f","j","space","NA","space","space","f","1137","2715","41781","NA","39029","7297","1137","2","legacy","1024","1","44100","-16","experiment","fsal","3","0","1","0","1","englisch","48","","even","4484396","4442088","NA","NA","4487112","4484393","NA","4265382","4483925","4265382","4265382","4361041","4400074","4584543","4583040","4585683","4410993","4407679","4442087","NA","4291701","4337340","4440433","4407439","4484396","4407683","NA","4584543","4584543","NA","NA","4583036","NAP perception","33","36414","35","yes","1024"
"94.4444444444","yes","94.4444444444","1046.69444444","1046.69444444","white","no","xpyriment","Ich habe die obigen Informationen gelesen und verstanden.","legacy","legacy","0","uniform","1","0","0","undefined","undefined","1","f","2","1","NA","0","1","0","0","0","0","0","0","0","0","45","45","45","0","0","0","NA","0","0","2","0","0","0","2","45","45","45","45","45","Sat Nov 11 20:31:30 2017","Forced-choice identification task with a practice and an experimental phase","yes","NAP_GER_AA_4blocks_noglides.osexp","/Users/aviadalbert/Documents/Academisch/UoC/Dissertation/Experiment/OpenSesame/NAP-FC/NAP_GER_AA_4blocks_noglides","yes","no","sans","no","20","no","black","no","Weiter","yes","768","legacy","35","9","0","/Users/aviadalbert/Documents/Academisch/UoC/Dissertation/Experiment/OpenSesame/NAP-FC/NAP_GER_AA_4blocks_noglides/subject-48.csv","xpyriment","Jazzy James","3.1.9","yes","yes","59a800d99ad5a1025d81bb03","59a801616c613b0251691de0","no","no","0","f","j","space","NA","space","space","f","1267","2715","41781","NA","39029","7297","1267","2","legacy","1024","1","44100","-16","experiment","ʃpal","3","0","1","0","1","englisch","48","","even","4484396","4442088","NA","NA","4487112","4484393","NA","4265382","4483925","4265382","4265382","4361041","4400074","4587466","4585963","4588735","4410993","4407679","4442087","NA","4291701","4337340","4440433","4407439","4484396","4407683","NA","4587466","4587466","NA","NA","4585959","NAP perception","34","37681","36","yes","1024"
"94.5945945946","yes","94.5945945946","1044.56756757","1044.56756757","white","no","xpyriment","Ich habe die obigen Informationen gelesen und verstanden.","legacy","legacy","0","uniform","1","0","0","undefined","undefined","1","j","2","1","NA","0","1","0","0","0","0","0","0","0","0","46","46","46","0","0","0","NA","0","0","2","0","0","0","2","46","46","46","46","46","Sat Nov 11 20:31:30 2017","Forced-choice identification task with a practice and an experimental phase","yes","NAP_GER_AA_4blocks_noglides.osexp","/Users/aviadalbert/Documents/Academisch/UoC/Dissertation/Experiment/OpenSesame/NAP-FC/NAP_GER_AA_4blocks_noglides","yes","no","sans","no","20","no","black","no","Weiter","yes","768","legacy","36","9","0","/Users/aviadalbert/Documents/Academisch/UoC/Dissertation/Experiment/OpenSesame/NAP-FC/NAP_GER_AA_4blocks_noglides/subject-48.csv","xpyriment","Jazzy James","3.1.9","yes","yes","59a800d99ad5a1025d81bb03","59a801616c613b0251691de0","no","no","0","j","j","space","NA","space","space","j","968","2715","41781","NA","39029","7297","968","2","legacy","1024","1","44100","-16","experiment","fetal","3","0","1","0","1","englisch","48","","even","4484396","4442088","NA","NA","4487112","4484393","NA","4265382","4483925","4265382","4265382","4361041","4400074","4590512","4589007","4591482","4410993","4407679","4442087","NA","4291701","4337340","4440433","4407439","4484396","4407683","NA","4590511","4590511","NA","NA","4589003","NAP perception","35","38649","37","yes","1024"
"94.7368421053","yes","94.7368421053","1042.07894737","1042.07894737","white","no","xpyriment","Ich habe die obigen Informationen gelesen und verstanden.","legacy","legacy","0","uniform","1","0","0","undefined","undefined","1","f","2","1","NA","0","1","0","0","0","0","0","0","0","0","47","47","47","0","0","0","NA","0","0","2","0","0","0","2","47","47","47","47","47","Sat Nov 11 20:31:30 2017","Forced-choice identification task with a practice and an experimental phase","yes","NAP_GER_AA_4blocks_noglides.osexp","/Users/aviadalbert/Documents/Academisch/UoC/Dissertation/Experiment/OpenSesame/NAP-FC/NAP_GER_AA_4blocks_noglides","yes","no","sans","no","20","no","black","no","Weiter","yes","768","legacy","37","9","0","/Users/aviadalbert/Documents/Academisch/UoC/Dissertation/Experiment/OpenSesame/NAP-FC/NAP_GER_AA_4blocks_noglides/subject-48.csv","xpyriment","Jazzy James","3.1.9","yes","yes","59a800d99ad5a1025d81bb03","59a801616c613b0251691de0","no","no","0","f","j","space","NA","space","space","f","950","2715","41781","NA","39029","7297","950","2","legacy","1024","1","44100","-16","experiment","flal","3","0","1","0","1","englisch","48","","even","4484396","4442088","NA","NA","4487112","4484393","NA","4265382","4483925","4265382","4265382","4361041","4400074","4593258","4591755","4594210","4410993","4407679","4442087","NA","4291701","4337340","4440433","4407439","4484396","4407683","NA","4593258","4593258","NA","NA","4591751","NAP perception","36","39599","38","yes","1024"
"94.8717948718","yes","94.8717948718","1040.17948718","1040.17948718","white","no","xpyriment","Ich habe die obigen Informationen gelesen und verstanden.","legacy","legacy","0","uniform","1","0","0","undefined","undefined","1","j","2","1","NA","0","1","0","0","0","0","0","0","0","0","48","48","48","0","0","0","NA","0","0","2","0","0","0","2","48","48","48","48","48","Sat Nov 11 20:31:30 2017","Forced-choice identification task with a practice and an experimental phase","yes","NAP_GER_AA_4blocks_noglides.osexp","/Users/aviadalbert/Documents/Academisch/UoC/Dissertation/Experiment/OpenSesame/NAP-FC/NAP_GER_AA_4blocks_noglides","yes","no","sans","no","20","no","black","no","Weiter","yes","768","legacy","38","9","0","/Users/aviadalbert/Documents/Academisch/UoC/Dissertation/Experiment/OpenSesame/NAP-FC/NAP_GER_AA_4blocks_noglides/subject-48.csv","xpyriment","Jazzy James","3.1.9","yes","yes","59a800d99ad5a1025d81bb03","59a801616c613b0251691de0","no","no","0","j","j","space","NA","space","space","j","968","2715","41781","NA","39029","7297","968","2","legacy","1024","1","44100","-16","experiment","fenal","3","0","1","0","1","englisch","48","","even","4484396","4442088","NA","NA","4487112","4484393","NA","4265382","4483925","4265382","4265382","4361041","4400074","4595979","4594475","4596949","4410993","4407679","4442087","NA","4291701","4337340","4440433","4407439","4484396","4407683","NA","4595979","4595979","NA","NA","4594471","NAP perception","37","40567","39","yes","1024"
"92.5","yes","92.5","1062.025","1062.025","white","no","xpyriment","Ich habe die obigen Informationen gelesen und verstanden.","legacy","legacy","0","uniform","0","0","0","undefined","undefined","0","f","2","1","NA","0","1","0","0","0","0","0","0","0","0","49","49","49","0","0","0","NA","0","0","2","0","0","0","2","49","49","49","49","49","Sat Nov 11 20:31:30 2017","Forced-choice identification task with a practice and an experimental phase","yes","NAP_GER_AA_4blocks_noglides.osexp","/Users/aviadalbert/Documents/Academisch/UoC/Dissertation/Experiment/OpenSesame/NAP-FC/NAP_GER_AA_4blocks_noglides","yes","no","sans","no","20","no","black","no","Weiter","yes","768","legacy","39","9","0","/Users/aviadalbert/Documents/Academisch/UoC/Dissertation/Experiment/OpenSesame/NAP-FC/NAP_GER_AA_4blocks_noglides/subject-48.csv","xpyriment","Jazzy James","3.1.9","yes","yes","59a800d99ad5a1025d81bb03","59a801616c613b0251691de0","no","no","0","j","j","space","NA","space","space","j","1914","2715","41781","NA","39029","7297","1914","2","legacy","1024","1","44100","-16","experiment","mnal","3","0","1","0","1","englisch","48","","even","4484396","4442088","NA","NA","4487112","4484393","NA","4265382","4483925","4265382","4265382","4361041","4400074","4598730","4597226","4600646","4410993","4407679","4442087","NA","4291701","4337340","4440433","4407439","4484396","4407683","NA","4598730","4598730","NA","NA","4597222","NAP perception","37","42481","40","yes","1024"
"92.6829268293","yes","92.6829268293","1067.46341463","1067.46341463","white","no","xpyriment","Ich habe die obigen Informationen gelesen und verstanden.","legacy","legacy","0","uniform","1","0","0","undefined","undefined","1","f","2","1","NA","0","1","0","0","0","0","0","0","0","0","50","50","50","0","0","0","NA","0","0","2","0","0","0","2","50","50","50","50","50","Sat Nov 11 20:31:30 2017","Forced-choice identification task with a practice and an experimental phase","yes","NAP_GER_AA_4blocks_noglides.osexp","/Users/aviadalbert/Documents/Academisch/UoC/Dissertation/Experiment/OpenSesame/NAP-FC/NAP_GER_AA_4blocks_noglides","yes","no","sans","no","20","no","black","no","Weiter","yes","768","legacy","40","9","0","/Users/aviadalbert/Documents/Academisch/UoC/Dissertation/Experiment/OpenSesame/NAP-FC/NAP_GER_AA_4blocks_noglides/subject-48.csv","xpyriment","Jazzy James","3.1.9","yes","yes","59a800d99ad5a1025d81bb03","59a801616c613b0251691de0","no","no","0","f","j","space","NA","space","space","f","1285","2715","41781","NA","39029","7297","1285","2","legacy","1024","1","44100","-16","experiment","vzal","3","0","1","0","1","englisch","48","","even","4484396","4442088","NA","NA","4487112","4484393","NA","4265382","4483925","4265382","4265382","4361041","4400074","4602416","4600913","4603703","4410993","4407679","4442087","NA","4291701","4337340","4440433","4407439","4484396","4407683","NA","4602416","4602416","NA","NA","4600909","NAP perception","38","43766","41","yes","1024"
"92.8571428571","yes","92.8571428571","1059.33333333","1059.33333333","white","no","xpyriment","Ich habe die obigen Informationen gelesen und verstanden.","legacy","legacy","0","uniform","1","0","0","undefined","undefined","1","j","2","1","NA","0","1","0","0","0","0","0","0","0","0","51","51","51","0","0","0","NA","0","0","2","0","0","0","2","51","51","51","51","51","Sat Nov 11 20:31:30 2017","Forced-choice identification task with a practice and an experimental phase","yes","NAP_GER_AA_4blocks_noglides.osexp","/Users/aviadalbert/Documents/Academisch/UoC/Dissertation/Experiment/OpenSesame/NAP-FC/NAP_GER_AA_4blocks_noglides","yes","no","sans","no","20","no","black","no","Weiter","yes","768","legacy","41","9","0","/Users/aviadalbert/Documents/Academisch/UoC/Dissertation/Experiment/OpenSesame/NAP-FC/NAP_GER_AA_4blocks_noglides/subject-48.csv","xpyriment","Jazzy James","3.1.9","yes","yes","59a800d99ad5a1025d81bb03","59a801616c613b0251691de0","no","no","0","j","j","space","NA","space","space","j","726","2715","41781","NA","39029","7297","726","2","legacy","1024","1","44100","-16","experiment","velal","3","0","1","0","1","englisch","48","","even","4484396","4442088","NA","NA","4487112","4484393","NA","4265382","4483925","4265382","4265382","4361041","4400074","4605495","4603989","4606223","4410993","4407679","4442087","NA","4291701","4337340","4440433","4407439","4484396","4407683","NA","4605494","4605495","NA","NA","4603985","NAP perception","39","44492","42","yes","1024"
"93.023255814","yes","93.023255814","1069.72093023","1069.72093023","white","no","xpyriment","Ich habe die obigen Informationen gelesen und verstanden.","legacy","legacy","0","uniform","1","0","0","undefined","undefined","1","f","2","1","NA","0","1","0","0","0","0","0","0","0","0","52","52","52","0","0","0","NA","0","0","2","0","0","0","2","52","52","52","52","52","Sat Nov 11 20:31:30 2017","Forced-choice identification task with a practice and an experimental phase","yes","NAP_GER_AA_4blocks_noglides.osexp","/Users/aviadalbert/Documents/Academisch/UoC/Dissertation/Experiment/OpenSesame/NAP-FC/NAP_GER_AA_4blocks_noglides","yes","no","sans","no","20","no","black","no","Weiter","yes","768","legacy","42","9","0","/Users/aviadalbert/Documents/Academisch/UoC/Dissertation/Experiment/OpenSesame/NAP-FC/NAP_GER_AA_4blocks_noglides/subject-48.csv","xpyriment","Jazzy James","3.1.9","yes","yes","59a800d99ad5a1025d81bb03","59a801616c613b0251691de0","no","no","0","f","j","space","NA","space","space","f","1506","2715","41781","NA","39029","7297","1506","2","legacy","1024","1","44100","-16","experiment","fnal","3","0","1","0","1","englisch","48","","even","4484396","4442088","NA","NA","4487112","4484393","NA","4265382","4483925","4265382","4265382","4361041","4400074","4608002","4606498","4609510","4410993","4407679","4442087","NA","4291701","4337340","4440433","4407439","4484396","4407683","NA","4608002","4608002","NA","NA","4606494","NAP perception","40","45998","43","yes","1024"
"93.1818181818","yes","93.1818181818","1087.75","1087.75","white","no","xpyriment","Ich habe die obigen Informationen gelesen und verstanden.","legacy","legacy","0","uniform","1","0","0","undefined","undefined","1","j","2","1","NA","0","1","0","0","0","0","0","0","0","0","53","53","53","0","0","0","NA","0","0","2","0","0","0","2","53","53","53","53","53","Sat Nov 11 20:31:30 2017","Forced-choice identification task with a practice and an experimental phase","yes","NAP_GER_AA_4blocks_noglides.osexp","/Users/aviadalbert/Documents/Academisch/UoC/Dissertation/Experiment/OpenSesame/NAP-FC/NAP_GER_AA_4blocks_noglides","yes","no","sans","no","20","no","black","no","Weiter","yes","768","legacy","43","9","0","/Users/aviadalbert/Documents/Academisch/UoC/Dissertation/Experiment/OpenSesame/NAP-FC/NAP_GER_AA_4blocks_noglides/subject-48.csv","xpyriment","Jazzy James","3.1.9","yes","yes","59a800d99ad5a1025d81bb03","59a801616c613b0251691de0","no","no","0","j","j","space","NA","space","space","j","1863","2715","41781","NA","39029","7297","1863","2","legacy","1024","1","44100","-16","experiment","evzal","3","0","1","0","1","englisch","48","","even","4484396","4442088","NA","NA","4487112","4484393","NA","4265382","4483925","4265382","4265382","4361041","4400074","4611282","4609779","4613147","4410993","4407679","4442087","NA","4291701","4337340","4440433","4407439","4484396","4407683","NA","4611282","4611282","NA","NA","4609774","NAP perception","41","47861","44","yes","1024"
"93.3333333333","yes","93.3333333333","1115.33333333","1115.33333333","white","no","xpyriment","Ich habe die obigen Informationen gelesen und verstanden.","legacy","legacy","0","uniform","1","0","0","undefined","undefined","1","f","2","1","NA","0","1","0","0","0","0","0","0","0","0","54","54","54","0","0","0","NA","0","0","2","0","0","0","2","54","54","54","54","54","Sat Nov 11 20:31:30 2017","Forced-choice identification task with a practice and an experimental phase","yes","NAP_GER_AA_4blocks_noglides.osexp","/Users/aviadalbert/Documents/Academisch/UoC/Dissertation/Experiment/OpenSesame/NAP-FC/NAP_GER_AA_4blocks_noglides","yes","no","sans","no","20","no","black","no","Weiter","yes","768","legacy","44","9","0","/Users/aviadalbert/Documents/Academisch/UoC/Dissertation/Experiment/OpenSesame/NAP-FC/NAP_GER_AA_4blocks_noglides/subject-48.csv","xpyriment","Jazzy James","3.1.9","yes","yes","59a800d99ad5a1025d81bb03","59a801616c613b0251691de0","no","no","0","f","j","space","NA","space","space","f","2329","2715","41781","NA","39029","7297","2329","2","legacy","1024","1","44100","-16","experiment","nmal","3","0","1","0","1","englisch","48","","even","4484396","4442088","NA","NA","4487112","4484393","NA","4265382","4483925","4265382","4265382","4361041","4400074","4614933","4613425","4617265","4410993","4407679","4442087","NA","4291701","4337340","4440433","4407439","4484396","4407683","NA","4614933","4614933","NA","NA","4613421","NAP perception","42","50190","45","yes","1024"
"93.4782608696","yes","93.4782608696","1117.56521739","1117.56521739","white","no","xpyriment","Ich habe die obigen Informationen gelesen und verstanden.","legacy","legacy","0","uniform","1","0","0","undefined","undefined","1","f","2","1","NA","0","1","0","0","0","0","0","0","0","0","55","55","55","0","0","0","NA","0","0","2","0","0","0","2","55","55","55","55","55","Sat Nov 11 20:31:30 2017","Forced-choice identification task with a practice and an experimental phase","yes","NAP_GER_AA_4blocks_noglides.osexp","/Users/aviadalbert/Documents/Academisch/UoC/Dissertation/Experiment/OpenSesame/NAP-FC/NAP_GER_AA_4blocks_noglides","yes","no","sans","no","20","no","black","no","Weiter","yes","768","legacy","45","9","0","/Users/aviadalbert/Documents/Academisch/UoC/Dissertation/Experiment/OpenSesame/NAP-FC/NAP_GER_AA_4blocks_noglides/subject-48.csv","xpyriment","Jazzy James","3.1.9","yes","yes","59a800d99ad5a1025d81bb03","59a801616c613b0251691de0","no","no","0","f","j","space","NA","space","space","f","1218","2715","41781","NA","39029","7297","1218","2","legacy","1024","1","44100","-16","experiment","mzal","3","0","1","0","1","englisch","48","","even","4484396","4442088","NA","NA","4487112","4484393","NA","4265382","4483925","4265382","4265382","4361041","4400074","4619054","4617547","4620274","4410993","4407679","4442087","NA","4291701","4337340","4440433","4407439","4484396","4407683","NA","4619054","4619054","NA","NA","4617543","NAP perception","43","51408","46","yes","1024"
"93.6170212766","yes","93.6170212766","1122.27659574","1122.27659574","white","no","xpyriment","Ich habe die obigen Informationen gelesen und verstanden.","legacy","legacy","0","uniform","1","0","0","undefined","undefined","1","f","2","1","NA","0","1","0","0","0","0","0","0","0","0","56","56","56","0","0","0","NA","0","0","2","0","0","0","2","56","56","56","56","56","Sat Nov 11 20:31:30 2017","Forced-choice identification task with a practice and an experimental phase","yes","NAP_GER_AA_4blocks_noglides.osexp","/Users/aviadalbert/Documents/Academisch/UoC/Dissertation/Experiment/OpenSesame/NAP-FC/NAP_GER_AA_4blocks_noglides","yes","no","sans","no","20","no","black","no","Weiter","yes","768","legacy","46","9","0","/Users/aviadalbert/Documents/Academisch/UoC/Dissertation/Experiment/OpenSesame/NAP-FC/NAP_GER_AA_4blocks_noglides/subject-48.csv","xpyriment","Jazzy James","3.1.9","yes","yes","59a800d99ad5a1025d81bb03","59a801616c613b0251691de0","no","no","0","f","j","space","NA","space","space","f","1339","2715","41781","NA","39029","7297","1339","2","legacy","1024","1","44100","-16","experiment","mtal","3","0","1","0","1","englisch","48","","even","4484396","4442088","NA","NA","4487112","4484393","NA","4265382","4483925","4265382","4265382","4361041","4400074","4622038","4620532","4623379","4410993","4407679","4442087","NA","4291701","4337340","4440433","4407439","4484396","4407683","NA","4622038","4622038","NA","NA","4620528","NAP perception","44","52747","47","yes","1024"
"93.75","yes","93.75","1131.5625","1131.5625","white","no","xpyriment","Ich habe die obigen Informationen gelesen und verstanden.","legacy","legacy","0","uniform","1","0","0","undefined","undefined","1","f","2","1","NA","0","1","0","0","0","0","0","0","0","0","57","57","57","0","0","0","NA","0","0","2","0","0","0","2","57","57","57","57","57","Sat Nov 11 20:31:30 2017","Forced-choice identification task with a practice and an experimental phase","yes","NAP_GER_AA_4blocks_noglides.osexp","/Users/aviadalbert/Documents/Academisch/UoC/Dissertation/Experiment/OpenSesame/NAP-FC/NAP_GER_AA_4blocks_noglides","yes","no","sans","no","20","no","black","no","Weiter","yes","768","legacy","47","9","0","/Users/aviadalbert/Documents/Academisch/UoC/Dissertation/Experiment/OpenSesame/NAP-FC/NAP_GER_AA_4blocks_noglides/subject-48.csv","xpyriment","Jazzy James","3.1.9","yes","yes","59a800d99ad5a1025d81bb03","59a801616c613b0251691de0","no","no","0","f","j","space","NA","space","space","f","1568","2715","41781","NA","39029","7297","1568","2","legacy","1024","1","44100","-16","experiment","vnal","3","0","1","0","1","englisch","48","","even","4484396","4442088","NA","NA","4487112","4484393","NA","4265382","4483925","4265382","4265382","4361041","4400074","4625167","4623664","4626737","4410993","4407679","4442087","NA","4291701","4337340","4440433","4407439","4484396","4407683","NA","4625167","4625167","NA","NA","4623660","NAP perception","45","54315","48","yes","1024"
"93.8775510204","yes","93.8775510204","1124.59183673","1124.59183673","white","no","xpyriment","Ich habe die obigen Informationen gelesen und verstanden.","legacy","legacy","0","uniform","1","0","0","undefined","undefined","1","j","2","1","NA","0","1","0","0","0","0","0","0","0","0","58","58","58","0","0","0","NA","0","0","2","0","0","0","2","58","58","58","58","58","Sat Nov 11 20:31:30 2017","Forced-choice identification task with a practice and an experimental phase","yes","NAP_GER_AA_4blocks_noglides.osexp","/Users/aviadalbert/Documents/Academisch/UoC/Dissertation/Experiment/OpenSesame/NAP-FC/NAP_GER_AA_4blocks_noglides","yes","no","sans","no","20","no","black","no","Weiter","yes","768","legacy","48","9","0","/Users/aviadalbert/Documents/Academisch/UoC/Dissertation/Experiment/OpenSesame/NAP-FC/NAP_GER_AA_4blocks_noglides/subject-48.csv","xpyriment","Jazzy James","3.1.9","yes","yes","59a800d99ad5a1025d81bb03","59a801616c613b0251691de0","no","no","0","j","j","space","NA","space","space","j","790","2715","41781","NA","39029","7297","790","2","legacy","1024","1","44100","-16","experiment","enval","3","0","1","0","1","englisch","48","","even","4484396","4442088","NA","NA","4487112","4484393","NA","4265382","4483925","4265382","4265382","4361041","4400074","4628519","4627016","4629311","4410993","4407679","4442087","NA","4291701","4337340","4440433","4407439","4484396","4407683","NA","4628519","4628519","NA","NA","4627012","NAP perception","46","55105","49","yes","1024"
"94","yes","94","1120.16","1120.16","white","no","xpyriment","Ich habe die obigen Informationen gelesen und verstanden.","legacy","legacy","0","uniform","1","0","0","undefined","undefined","1","j","2","1","NA","0","1","0","0","0","0","0","0","0","0","59","59","59","0","0","0","NA","0","0","2","0","0","0","2","59","59","59","59","59","Sat Nov 11 20:31:30 2017","Forced-choice identification task with a practice and an experimental phase","yes","NAP_GER_AA_4blocks_noglides.osexp","/Users/aviadalbert/Documents/Academisch/UoC/Dissertation/Experiment/OpenSesame/NAP-FC/NAP_GER_AA_4blocks_noglides","yes","no","sans","no","20","no","black","no","Weiter","yes","768","legacy","49","9","0","/Users/aviadalbert/Documents/Academisch/UoC/Dissertation/Experiment/OpenSesame/NAP-FC/NAP_GER_AA_4blocks_noglides/subject-48.csv","xpyriment","Jazzy James","3.1.9","yes","yes","59a800d99ad5a1025d81bb03","59a801616c613b0251691de0","no","no","0","j","j","space","NA","space","space","j","903","2715","41781","NA","39029","7297","903","2","legacy","1024","1","44100","-16","experiment","elmal","3","0","1","0","1","englisch","48","","even","4484396","4442088","NA","NA","4487112","4484393","NA","4265382","4483925","4265382","4265382","4361041","4400074","4631101","4629597","4632006","4410993","4407679","4442087","NA","4291701","4337340","4440433","4407439","4484396","4407683","NA","4631100","4631101","NA","NA","4629593","NAP perception","47","56008","50","yes","1024"
"94.1176470588","yes","94.1176470588","1118.37254902","1118.37254902","white","no","xpyriment","Ich habe die obigen Informationen gelesen und verstanden.","legacy","legacy","0","uniform","1","0","0","undefined","undefined","1","j","2","1","NA","0","1","0","0","0","0","0","0","0","0","60","60","60","0","0","0","NA","0","0","2","0","0","0","2","60","60","60","60","60","Sat Nov 11 20:31:30 2017","Forced-choice identification task with a practice and an experimental phase","yes","NAP_GER_AA_4blocks_noglides.osexp","/Users/aviadalbert/Documents/Academisch/UoC/Dissertation/Experiment/OpenSesame/NAP-FC/NAP_GER_AA_4blocks_noglides","yes","no","sans","no","20","no","black","no","Weiter","yes","768","legacy","50","9","0","/Users/aviadalbert/Documents/Academisch/UoC/Dissertation/Experiment/OpenSesame/NAP-FC/NAP_GER_AA_4blocks_noglides/subject-48.csv","xpyriment","Jazzy James","3.1.9","yes","yes","59a800d99ad5a1025d81bb03","59a801616c613b0251691de0","no","no","0","j","j","space","NA","space","space","j","1029","2715","41781","NA","39029","7297","1029","2","legacy","1024","1","44100","-16","experiment","ʃepal","3","0","1","0","1","englisch","48","","even","4484396","4442088","NA","NA","4487112","4484393","NA","4265382","4483925","4265382","4265382","4361041","4400074","4633777","4632274","4634808","4410993","4407679","4442087","NA","4291701","4337340","4440433","4407439","4484396","4407683","NA","4633777","4633777","NA","NA","4632270","NAP perception","48","57037","51","yes","1024"
"94.2307692308","yes","94.2307692308","1117.76923077","1117.76923077","white","no","xpyriment","Ich habe die obigen Informationen gelesen und verstanden.","legacy","legacy","0","uniform","1","0","0","undefined","undefined","1","f","2","1","NA","0","1","0","0","0","0","0","0","0","0","61","61","61","0","0","0","NA","0","0","2","0","0","0","2","61","61","61","61","61","Sat Nov 11 20:31:30 2017","Forced-choice identification task with a practice and an experimental phase","yes","NAP_GER_AA_4blocks_noglides.osexp","/Users/aviadalbert/Documents/Academisch/UoC/Dissertation/Experiment/OpenSesame/NAP-FC/NAP_GER_AA_4blocks_noglides","yes","no","sans","no","20","no","black","no","Weiter","yes","768","legacy","51","9","0","/Users/aviadalbert/Documents/Academisch/UoC/Dissertation/Experiment/OpenSesame/NAP-FC/NAP_GER_AA_4blocks_noglides/subject-48.csv","xpyriment","Jazzy James","3.1.9","yes","yes","59a800d99ad5a1025d81bb03","59a801616c613b0251691de0","no","no","0","f","j","space","NA","space","space","f","1087","2715","41781","NA","39029","7297","1087","2","legacy","1024","1","44100","-16","experiment","mlal","3","0","1","0","1","englisch","48","","even","4484396","4442088","NA","NA","4487112","4484393","NA","4265382","4483925","4265382","4265382","4361041","4400074","4636599","4635093","4637688","4410993","4407679","4442087","NA","4291701","4337340","4440433","4407439","4484396","4407683","NA","4636599","4636599","NA","NA","4635089","NAP perception","49","58124","52","yes","1024"
"94.3396226415","yes","94.3396226415","1115.45283019","1115.45283019","white","no","xpyriment","Ich habe die obigen Informationen gelesen und verstanden.","legacy","legacy","0","uniform","1","0","0","undefined","undefined","1","j","2","1","NA","0","1","0","0","0","0","0","0","0","0","62","62","62","0","0","0","NA","0","0","2","0","0","0","2","62","62","62","62","62","Sat Nov 11 20:31:30 2017","Forced-choice identification task with a practice and an experimental phase","yes","NAP_GER_AA_4blocks_noglides.osexp","/Users/aviadalbert/Documents/Academisch/UoC/Dissertation/Experiment/OpenSesame/NAP-FC/NAP_GER_AA_4blocks_noglides","yes","no","sans","no","20","no","black","no","Weiter","yes","768","legacy","52","9","0","/Users/aviadalbert/Documents/Academisch/UoC/Dissertation/Experiment/OpenSesame/NAP-FC/NAP_GER_AA_4blocks_noglides/subject-48.csv","xpyriment","Jazzy James","3.1.9","yes","yes","59a800d99ad5a1025d81bb03","59a801616c613b0251691de0","no","no","0","j","j","space","NA","space","space","j","995","2715","41781","NA","39029","7297","995","2","legacy","1024","1","44100","-16","experiment","menal","3","0","1","0","1","englisch","48","","even","4484396","4442088","NA","NA","4487112","4484393","NA","4265382","4483925","4265382","4265382","4361041","4400074","4639466","4637963","4640463","4410993","4407679","4442087","NA","4291701","4337340","4440433","4407439","4484396","4407683","NA","4639466","4639466","NA","NA","4637959","NAP perception","50","59119","53","yes","1024"
"92.5925925926","yes","92.5925925926","1115.09259259","1115.09259259","white","no","xpyriment","Ich habe die obigen Informationen gelesen und verstanden.","legacy","legacy","0","uniform","0","0","0","undefined","undefined","0","f","2","1","NA","0","1","0","0","0","0","0","0","0","0","63","63","63","0","0","0","NA","0","0","2","0","0","0","2","63","63","63","63","63","Sat Nov 11 20:31:30 2017","Forced-choice identification task with a practice and an experimental phase","yes","NAP_GER_AA_4blocks_noglides.osexp","/Users/aviadalbert/Documents/Academisch/UoC/Dissertation/Experiment/OpenSesame/NAP-FC/NAP_GER_AA_4blocks_noglides","yes","no","sans","no","20","no","black","no","Weiter","yes","768","legacy","53","9","0","/Users/aviadalbert/Documents/Academisch/UoC/Dissertation/Experiment/OpenSesame/NAP-FC/NAP_GER_AA_4blocks_noglides/subject-48.csv","xpyriment","Jazzy James","3.1.9","yes","yes","59a800d99ad5a1025d81bb03","59a801616c613b0251691de0","no","no","0","j","j","space","NA","space","space","j","1096","2715","41781","NA","39029","7297","1096","2","legacy","1024","1","44100","-16","experiment","lfal","3","0","1","0","1","englisch","48","","even","4484396","4442088","NA","NA","4487112","4484393","NA","4265382","4483925","4265382","4265382","4361041","4400074","4642247","4640743","4643345","4410993","4407679","4442087","NA","4291701","4337340","4440433","4407439","4484396","4407683","NA","4642246","4642246","NA","NA","4640739","NAP perception","50","60215","54","yes","1024"
"92.7272727273","yes","92.7272727273","1109.81818182","1109.81818182","white","no","xpyriment","Ich habe die obigen Informationen gelesen und verstanden.","legacy","legacy","0","uniform","1","0","0","undefined","undefined","1","j","2","1","NA","0","1","0","0","0","0","0","0","0","0","64","64","64","0","0","0","NA","0","0","2","0","0","0","2","64","64","64","64","64","Sat Nov 11 20:31:30 2017","Forced-choice identification task with a practice and an experimental phase","yes","NAP_GER_AA_4blocks_noglides.osexp","/Users/aviadalbert/Documents/Academisch/UoC/Dissertation/Experiment/OpenSesame/NAP-FC/NAP_GER_AA_4blocks_noglides","yes","no","sans","no","20","no","black","no","Weiter","yes","768","legacy","54","9","0","/Users/aviadalbert/Documents/Academisch/UoC/Dissertation/Experiment/OpenSesame/NAP-FC/NAP_GER_AA_4blocks_noglides/subject-48.csv","xpyriment","Jazzy James","3.1.9","yes","yes","59a800d99ad5a1025d81bb03","59a801616c613b0251691de0","no","no","0","j","j","space","NA","space","space","j","825","2715","41781","NA","39029","7297","825","2","legacy","1024","1","44100","-16","experiment","emnal","3","0","1","0","1","englisch","48","","even","4484396","4442088","NA","NA","4487112","4484393","NA","4265382","4483925","4265382","4265382","4361041","4400074","4645127","4643622","4645954","4410993","4407679","4442087","NA","4291701","4337340","4440433","4407439","4484396","4407683","NA","4645127","4645127","NA","NA","4643618","NAP perception","51","61040","55","yes","1024"
