"acc","accept_status","accuracy","average_response_time","avg_rt","background","bidi","canvas_backend","checkbox_status","clock_backend","color_backend","compensation","coordinates","correct","correct_block_activation","correct_block_exit","correct_instructions_1","correct_instructions_2","correct_keyboard_response","correct_response","count_block_activation","count_block_exit","count_block_info_QA","count_cont_e_block_message","count_e_block_loop","count_e_block_sequence","count_end_of_experiment","count_experiment","count_experimental_loop","count_form_consent","count_info_forms","count_instructions_1","count_instructions_2","count_keyboard_response","count_listen_message","count_logger","count_p_block_loop","count_p_block_sequence","count_p_feedback","count_pause_feedback","count_personal_details_form_1","count_personal_details_form_2","count_post_loop_blank","count_practice_loop","count_pre_e_block_message","count_pre_p_block_message","count_reset_feedback","count_stimulus_image","count_stimulus_sound","count_timeout_message","count_timeout_sound","count_trial_sequence","datetime","description","disable_garbage_collection","experiment_file","experiment_path","expyriment_opengl","font_bold","font_family","font_italic","font_size","font_underline","foreground","form_clicks","form_response","fullscreen","height","keyboard_backend","live_row","live_row_p_block_loop","live_row_practice_loop","logfile","mouse_backend","opensesame_codename","opensesame_version","osf_always_upload_data","osf_always_upload_experiment","osf_datanode_id","osf_id","practice","pygame_doublebuf","repeat_cycle","response","response_block_activation","response_block_exit","response_block_info_QA","response_instructions_1","response_instructions_2","response_keyboard_response","response_time","response_time_block_activation","response_time_block_exit","response_time_block_info_QA","response_time_instructions_1","response_time_instructions_2","response_time_keyboard_response","round_decimals","sampler_backend","sound_buf_size","sound_channels","sound_freq","sound_sample_size","start","stimulus","subject_age","subject_education","subject_gender","subject_german_native","subject_handedness","subject_language_other","subject_nr","subject_other_native_lang","subject_parity","time_block_activation","time_block_exit","time_block_info_QA","time_cont_e_block_message","time_e_block_loop","time_e_block_sequence","time_end_of_experiment","time_experiment","time_experimental_loop","time_form_consent","time_info_forms","time_instructions_1","time_instructions_2","time_keyboard_response","time_listen_message","time_logger","time_p_block_loop","time_p_block_sequence","time_p_feedback","time_pause_feedback","time_personal_details_form_1","time_personal_details_form_2","time_post_loop_blank","time_practice_loop","time_pre_e_block_message","time_pre_p_block_message","time_reset_feedback","time_stimulus_image","time_stimulus_sound","time_timeout_message","time_timeout_sound","time_trial_sequence","title","total_correct","total_response_time","total_responses","uniform_coordinates","width"
"100","yes","100","1673","1673","white","no","xpyriment","Ich habe die obigen Informationen gelesen und verstanden.","legacy","legacy","0","uniform","1","0","NA","undefined","undefined","1","f","0","0","NA","NA","NA","NA","NA","0","0","0","0","0","0","0","0","0","0","0","NA","NA","0","0","0","0","NA","0","0","0","0","0","0","0","Fri Nov  3 11:14:12 2017","Forced-choice identification task with a practice and an experimental phase","yes","NAP_GER_AA_4blocks_noglides.osexp","/Users/aviadalbert/Documents/Academisch/UoC/Dissertation/Experiment/OpenSesame/NAP-FC/NAP_GER_AA_4blocks_noglides","yes","no","sans","no","20","no","black","no","Weiter","yes","768","legacy","0","0","0","/Users/aviadalbert/Documents/Academisch/UoC/Dissertation/Experiment/OpenSesame/NAP-FC/NAP_GER_AA_4blocks_noglides/subject-39.csv","xpyriment","Jazzy James","3.1.9","yes","yes","59a800d99ad5a1025d81bb03","59a801616c613b0251691de0","yes","no","0","f","f","NA","NA","return","return","f","1673","4676","NA","NA","22362","32485","1673","2","legacy","1024","1","44100","-16","experiment","flal","2","1","1","0","1","eng","39","","odd","4309358","NA","NA","NA","NA","NA","NA","3099262","NA","3099262","3099262","4254200","4276566","4315737","4314229","4317411","4314035","4309354","NA","NA","4211922","4242499","NA","4309119","NA","4309358","NA","4315736","4315736","NA","NA","4314226","NAP perception","1","1673","1","yes","1024"
"100","yes","100","1396","1396","white","no","xpyriment","Ich habe die obigen Informationen gelesen und verstanden.","legacy","legacy","0","uniform","1","0","NA","undefined","undefined","1","j","0","0","NA","NA","NA","NA","NA","0","0","0","0","0","0","1","1","1","0","0","NA","NA","0","0","0","0","NA","0","0","1","1","1","1","1","Fri Nov  3 11:14:12 2017","Forced-choice identification task with a practice and an experimental phase","yes","NAP_GER_AA_4blocks_noglides.osexp","/Users/aviadalbert/Documents/Academisch/UoC/Dissertation/Experiment/OpenSesame/NAP-FC/NAP_GER_AA_4blocks_noglides","yes","no","sans","no","20","no","black","no","Weiter","yes","768","legacy","1","1","0","/Users/aviadalbert/Documents/Academisch/UoC/Dissertation/Experiment/OpenSesame/NAP-FC/NAP_GER_AA_4blocks_noglides/subject-39.csv","xpyriment","Jazzy James","3.1.9","yes","yes","59a800d99ad5a1025d81bb03","59a801616c613b0251691de0","yes","no","0","j","f","NA","NA","return","return","j","1119","4676","NA","NA","22362","32485","1119","2","legacy","1024","1","44100","-16","experiment","lepal","2","1","1","0","1","eng","39","","odd","4309358","NA","NA","NA","NA","NA","NA","3099262","NA","3099262","3099262","4254200","4276566","4319185","4317680","4320305","4314035","4309354","NA","NA","4211922","4242499","NA","4309119","NA","4309358","NA","4319185","4319185","NA","NA","4317676","NAP perception","2","2792","2","yes","1024"
"100","yes","100","1294","1294","white","no","xpyriment","Ich habe die obigen Informationen gelesen und verstanden.","legacy","legacy","0","uniform","1","0","NA","undefined","undefined","1","j","0","0","NA","NA","NA","NA","NA","0","0","0","0","0","0","2","2","2","0","0","NA","NA","0","0","0","0","NA","0","0","2","2","2","2","2","Fri Nov  3 11:14:12 2017","Forced-choice identification task with a practice and an experimental phase","yes","NAP_GER_AA_4blocks_noglides.osexp","/Users/aviadalbert/Documents/Academisch/UoC/Dissertation/Experiment/OpenSesame/NAP-FC/NAP_GER_AA_4blocks_noglides","yes","no","sans","no","20","no","black","no","Weiter","yes","768","legacy","2","2","0","/Users/aviadalbert/Documents/Academisch/UoC/Dissertation/Experiment/OpenSesame/NAP-FC/NAP_GER_AA_4blocks_noglides/subject-39.csv","xpyriment","Jazzy James","3.1.9","yes","yes","59a800d99ad5a1025d81bb03","59a801616c613b0251691de0","yes","no","0","j","f","NA","NA","return","return","j","1090","4676","NA","NA","22362","32485","1090","2","legacy","1024","1","44100","-16","experiment","emtal","2","1","1","0","1","eng","39","","odd","4309358","NA","NA","NA","NA","NA","NA","3099262","NA","3099262","3099262","4254200","4276566","4322089","4320583","4323180","4314035","4309354","NA","NA","4211922","4242499","NA","4309119","NA","4309358","NA","4322089","4322089","NA","NA","4320580","NAP perception","3","3882","3","yes","1024"
"100","yes","100","1171.75","1171.75","white","no","xpyriment","Ich habe die obigen Informationen gelesen und verstanden.","legacy","legacy","0","uniform","1","0","NA","undefined","undefined","1","f","0","0","NA","NA","NA","NA","NA","0","0","0","0","0","0","3","3","3","0","0","NA","NA","0","0","0","0","NA","0","0","3","3","3","3","3","Fri Nov  3 11:14:12 2017","Forced-choice identification task with a practice and an experimental phase","yes","NAP_GER_AA_4blocks_noglides.osexp","/Users/aviadalbert/Documents/Academisch/UoC/Dissertation/Experiment/OpenSesame/NAP-FC/NAP_GER_AA_4blocks_noglides","yes","no","sans","no","20","no","black","no","Weiter","yes","768","legacy","3","3","0","/Users/aviadalbert/Documents/Academisch/UoC/Dissertation/Experiment/OpenSesame/NAP-FC/NAP_GER_AA_4blocks_noglides/subject-39.csv","xpyriment","Jazzy James","3.1.9","yes","yes","59a800d99ad5a1025d81bb03","59a801616c613b0251691de0","yes","no","0","f","f","NA","NA","return","return","f","805","4676","NA","NA","22362","32485","805","2","legacy","1024","1","44100","-16","experiment","ʃpal","2","1","1","0","1","eng","39","","odd","4309358","NA","NA","NA","NA","NA","NA","3099262","NA","3099262","3099262","4254200","4276566","4324959","4323455","4325765","4314035","4309354","NA","NA","4211922","4242499","NA","4309119","NA","4309358","NA","4324959","4324959","NA","NA","4323451","NAP perception","4","4687","4","yes","1024"
"100","yes","100","1121.4","1121.4","white","no","xpyriment","Ich habe die obigen Informationen gelesen und verstanden.","legacy","legacy","0","uniform","1","0","NA","undefined","undefined","1","j","0","0","NA","NA","NA","NA","NA","0","0","0","0","0","0","4","4","4","0","0","NA","NA","0","0","0","0","NA","0","0","4","4","4","4","4","Fri Nov  3 11:14:12 2017","Forced-choice identification task with a practice and an experimental phase","yes","NAP_GER_AA_4blocks_noglides.osexp","/Users/aviadalbert/Documents/Academisch/UoC/Dissertation/Experiment/OpenSesame/NAP-FC/NAP_GER_AA_4blocks_noglides","yes","no","sans","no","20","no","black","no","Weiter","yes","768","legacy","4","4","0","/Users/aviadalbert/Documents/Academisch/UoC/Dissertation/Experiment/OpenSesame/NAP-FC/NAP_GER_AA_4blocks_noglides/subject-39.csv","xpyriment","Jazzy James","3.1.9","yes","yes","59a800d99ad5a1025d81bb03","59a801616c613b0251691de0","yes","no","0","j","f","NA","NA","return","return","j","920","4676","NA","NA","22362","32485","920","2","legacy","1024","1","44100","-16","experiment","nefal","2","1","1","0","1","eng","39","","odd","4309358","NA","NA","NA","NA","NA","NA","3099262","NA","3099262","3099262","4254200","4276566","4327538","4326034","4328459","4314035","4309354","NA","NA","4211922","4242499","NA","4309119","NA","4309358","NA","4327537","4327538","NA","NA","4326030","NAP perception","5","5607","5","yes","1024"
"100","yes","100","1113.16666667","1113.16666667","white","no","xpyriment","Ich habe die obigen Informationen gelesen und verstanden.","legacy","legacy","0","uniform","1","0","NA","undefined","undefined","1","f","0","0","NA","NA","NA","NA","NA","0","0","0","0","0","0","5","5","5","0","0","NA","NA","0","0","0","0","NA","0","0","5","5","5","5","5","Fri Nov  3 11:14:12 2017","Forced-choice identification task with a practice and an experimental phase","yes","NAP_GER_AA_4blocks_noglides.osexp","/Users/aviadalbert/Documents/Academisch/UoC/Dissertation/Experiment/OpenSesame/NAP-FC/NAP_GER_AA_4blocks_noglides","yes","no","sans","no","20","no","black","no","Weiter","yes","768","legacy","5","5","0","/Users/aviadalbert/Documents/Academisch/UoC/Dissertation/Experiment/OpenSesame/NAP-FC/NAP_GER_AA_4blocks_noglides/subject-39.csv","xpyriment","Jazzy James","3.1.9","yes","yes","59a800d99ad5a1025d81bb03","59a801616c613b0251691de0","yes","no","0","f","f","NA","NA","return","return","f","1072","4676","NA","NA","22362","32485","1072","2","legacy","1024","1","44100","-16","experiment","sfal","2","1","1","0","1","eng","39","","odd","4309358","NA","NA","NA","NA","NA","NA","3099262","NA","3099262","3099262","4254200","4276566","4330241","4328738","4331314","4314035","4309354","NA","NA","4211922","4242499","NA","4309119","NA","4309358","NA","4330241","4330241","NA","NA","4328734","NAP perception","6","6679","6","yes","1024"
"85.7142857143","yes","85.7142857143","1150.42857143","1150.42857143","white","no","xpyriment","Ich habe die obigen Informationen gelesen und verstanden.","legacy","legacy","0","uniform","0","0","NA","undefined","undefined","0","f","0","0","NA","NA","NA","NA","NA","0","0","0","0","0","0","6","6","6","0","0","NA","NA","0","0","0","0","NA","0","0","6","6","6","6","6","Fri Nov  3 11:14:12 2017","Forced-choice identification task with a practice and an experimental phase","yes","NAP_GER_AA_4blocks_noglides.osexp","/Users/aviadalbert/Documents/Academisch/UoC/Dissertation/Experiment/OpenSesame/NAP-FC/NAP_GER_AA_4blocks_noglides","yes","no","sans","no","20","no","black","no","Weiter","yes","768","legacy","6","6","0","/Users/aviadalbert/Documents/Academisch/UoC/Dissertation/Experiment/OpenSesame/NAP-FC/NAP_GER_AA_4blocks_noglides/subject-39.csv","xpyriment","Jazzy James","3.1.9","yes","yes","59a800d99ad5a1025d81bb03","59a801616c613b0251691de0","yes","no","0","j","f","NA","NA","return","return","j","1374","4676","NA","NA","22362","32485","1374","2","legacy","1024","1","44100","-16","experiment","zmal","2","1","1","0","1","eng","39","","odd","4309358","NA","NA","NA","NA","NA","NA","3099262","NA","3099262","3099262","4254200","4276566","4333109","4331604","4334484","4314035","4309354","NA","NA","4211922","4242499","NA","4309119","NA","4309358","NA","4333109","4333109","NA","NA","4331600","NAP perception","6","8053","7","yes","1024"
"87.5","yes","87.5","1128.625","1128.625","white","no","xpyriment","Ich habe die obigen Informationen gelesen und verstanden.","legacy","legacy","0","uniform","1","0","NA","undefined","undefined","1","j","0","0","NA","NA","NA","NA","NA","0","0","0","0","0","0","7","7","7","0","0","NA","NA","0","0","0","0","NA","0","0","7","7","7","7","7","Fri Nov  3 11:14:12 2017","Forced-choice identification task with a practice and an experimental phase","yes","NAP_GER_AA_4blocks_noglides.osexp","/Users/aviadalbert/Documents/Academisch/UoC/Dissertation/Experiment/OpenSesame/NAP-FC/NAP_GER_AA_4blocks_noglides","yes","no","sans","no","20","no","black","no","Weiter","yes","768","legacy","7","7","0","/Users/aviadalbert/Documents/Academisch/UoC/Dissertation/Experiment/OpenSesame/NAP-FC/NAP_GER_AA_4blocks_noglides/subject-39.csv","xpyriment","Jazzy James","3.1.9","yes","yes","59a800d99ad5a1025d81bb03","59a801616c613b0251691de0","yes","no","0","j","f","NA","NA","return","return","j","976","4676","NA","NA","22362","32485","976","2","legacy","1024","1","44100","-16","experiment","mesal","2","1","1","0","1","eng","39","","odd","4309358","NA","NA","NA","NA","NA","NA","3099262","NA","3099262","3099262","4254200","4276566","4336257","4334753","4337234","4314035","4309354","NA","NA","4211922","4242499","NA","4309119","NA","4309358","NA","4336256","4336257","NA","NA","4334749","NAP perception","7","9029","8","yes","1024"
"88.8888888889","yes","88.8888888889","1102.66666667","1102.66666667","white","no","xpyriment","Ich habe die obigen Informationen gelesen und verstanden.","legacy","legacy","0","uniform","1","0","NA","undefined","undefined","1","j","0","0","NA","NA","NA","NA","NA","0","0","0","0","0","0","8","8","8","0","0","NA","NA","0","0","0","0","NA","0","0","8","8","8","8","8","Fri Nov  3 11:14:12 2017","Forced-choice identification task with a practice and an experimental phase","yes","NAP_GER_AA_4blocks_noglides.osexp","/Users/aviadalbert/Documents/Academisch/UoC/Dissertation/Experiment/OpenSesame/NAP-FC/NAP_GER_AA_4blocks_noglides","yes","no","sans","no","20","no","black","no","Weiter","yes","768","legacy","8","8","0","/Users/aviadalbert/Documents/Academisch/UoC/Dissertation/Experiment/OpenSesame/NAP-FC/NAP_GER_AA_4blocks_noglides/subject-39.csv","xpyriment","Jazzy James","3.1.9","yes","yes","59a800d99ad5a1025d81bb03","59a801616c613b0251691de0","yes","no","0","j","f","NA","NA","return","return","j","895","4676","NA","NA","22362","32485","895","2","legacy","1024","1","44100","-16","experiment","enval","2","1","1","0","1","eng","39","","odd","4309358","NA","NA","NA","NA","NA","NA","3099262","NA","3099262","3099262","4254200","4276566","4339023","4337519","4339920","4314035","4309354","NA","NA","4211922","4242499","NA","4309119","NA","4309358","NA","4339023","4339023","NA","NA","4337516","NAP perception","8","9924","9","yes","1024"
"90","yes","90","1086.1","1086.1","white","no","xpyriment","Ich habe die obigen Informationen gelesen und verstanden.","legacy","legacy","0","uniform","1","0","NA","undefined","undefined","1","f","0","0","NA","NA","NA","NA","NA","0","0","0","0","0","0","9","9","9","0","0","NA","NA","0","0","0","0","NA","0","0","9","9","9","9","9","Fri Nov  3 11:14:12 2017","Forced-choice identification task with a practice and an experimental phase","yes","NAP_GER_AA_4blocks_noglides.osexp","/Users/aviadalbert/Documents/Academisch/UoC/Dissertation/Experiment/OpenSesame/NAP-FC/NAP_GER_AA_4blocks_noglides","yes","no","sans","no","20","no","black","no","Weiter","yes","768","legacy","9","9","0","/Users/aviadalbert/Documents/Academisch/UoC/Dissertation/Experiment/OpenSesame/NAP-FC/NAP_GER_AA_4blocks_noglides/subject-39.csv","xpyriment","Jazzy James","3.1.9","yes","yes","59a800d99ad5a1025d81bb03","59a801616c613b0251691de0","yes","no","0","f","f","NA","NA","return","return","f","937","4676","NA","NA","22362","32485","937","2","legacy","1024","1","44100","-16","experiment","vlal","2","1","1","0","1","eng","39","","odd","4309358","NA","NA","NA","NA","NA","NA","3099262","NA","3099262","3099262","4254200","4276566","4341689","4340186","4342628","4314035","4309354","NA","NA","4211922","4242499","NA","4309119","NA","4309358","NA","4341689","4341689","NA","NA","4340182","NAP perception","9","10861","10","yes","1024"
"100","yes","100","788","788","white","no","xpyriment","Ich habe die obigen Informationen gelesen und verstanden.","legacy","legacy","0","uniform","1","0","0","undefined","undefined","1","j","2","1","NA","0","1","0","0","0","0","0","0","0","0","10","10","10","0","0","0","NA","0","0","2","0","0","0","2","10","10","10","10","10","Fri Nov  3 11:14:12 2017","Forced-choice identification task with a practice and an experimental phase","yes","NAP_GER_AA_4blocks_noglides.osexp","/Users/aviadalbert/Documents/Academisch/UoC/Dissertation/Experiment/OpenSesame/NAP-FC/NAP_GER_AA_4blocks_noglides","yes","no","sans","no","20","no","black","no","Weiter","yes","768","legacy","0","9","0","/Users/aviadalbert/Documents/Academisch/UoC/Dissertation/Experiment/OpenSesame/NAP-FC/NAP_GER_AA_4blocks_noglides/subject-39.csv","xpyriment","Jazzy James","3.1.9","yes","yes","59a800d99ad5a1025d81bb03","59a801616c613b0251691de0","no","no","0","j","f","space","NA","return","return","j","788","2151","22702","NA","22362","32485","788","2","legacy","1024","1","44100","-16","experiment","zeval","2","1","1","0","1","eng","39","","odd","4367589","4344351","NA","NA","4369741","4367586","NA","3099262","4367113","3099262","3099262","4254200","4276566","4371449","4369946","4372238","4314035","4309354","4344350","NA","4211922","4242499","4342692","4309119","4367589","4309358","NA","4371449","4371449","NA","NA","4369943","NAP perception","1","788","1","yes","1024"
"50","yes","50","950.5","950.5","white","no","xpyriment","Ich habe die obigen Informationen gelesen und verstanden.","legacy","legacy","0","uniform","0","0","0","undefined","undefined","0","f","2","1","NA","0","1","0","0","0","0","0","0","0","0","11","11","11","0","0","0","NA","0","0","2","0","0","0","2","11","11","11","11","11","Fri Nov  3 11:14:12 2017","Forced-choice identification task with a practice and an experimental phase","yes","NAP_GER_AA_4blocks_noglides.osexp","/Users/aviadalbert/Documents/Academisch/UoC/Dissertation/Experiment/OpenSesame/NAP-FC/NAP_GER_AA_4blocks_noglides","yes","no","sans","no","20","no","black","no","Weiter","yes","768","legacy","1","9","0","/Users/aviadalbert/Documents/Academisch/UoC/Dissertation/Experiment/OpenSesame/NAP-FC/NAP_GER_AA_4blocks_noglides/subject-39.csv","xpyriment","Jazzy James","3.1.9","yes","yes","59a800d99ad5a1025d81bb03","59a801616c613b0251691de0","no","no","0","j","f","space","NA","return","return","j","1113","2151","22702","NA","22362","32485","1113","2","legacy","1024","1","44100","-16","experiment","msal","2","1","1","0","1","eng","39","","odd","4367589","4344351","NA","NA","4369741","4367586","NA","3099262","4367113","3099262","3099262","4254200","4276566","4374011","4372505","4375125","4314035","4309354","4344350","NA","4211922","4242499","4342692","4309119","4367589","4309358","NA","4374011","4374011","NA","NA","4372501","NAP perception","1","1901","2","yes","1024"
"66.6666666667","yes","66.6666666667","920","920","white","no","xpyriment","Ich habe die obigen Informationen gelesen und verstanden.","legacy","legacy","0","uniform","1","0","0","undefined","undefined","1","j","2","1","NA","0","1","0","0","0","0","0","0","0","0","12","12","12","0","0","0","NA","0","0","2","0","0","0","2","12","12","12","12","12","Fri Nov  3 11:14:12 2017","Forced-choice identification task with a practice and an experimental phase","yes","NAP_GER_AA_4blocks_noglides.osexp","/Users/aviadalbert/Documents/Academisch/UoC/Dissertation/Experiment/OpenSesame/NAP-FC/NAP_GER_AA_4blocks_noglides","yes","no","sans","no","20","no","black","no","Weiter","yes","768","legacy","2","9","0","/Users/aviadalbert/Documents/Academisch/UoC/Dissertation/Experiment/OpenSesame/NAP-FC/NAP_GER_AA_4blocks_noglides/subject-39.csv","xpyriment","Jazzy James","3.1.9","yes","yes","59a800d99ad5a1025d81bb03","59a801616c613b0251691de0","no","no","0","j","f","space","NA","return","return","j","859","2151","22702","NA","22362","32485","859","2","legacy","1024","1","44100","-16","experiment","enmal","2","1","1","0","1","eng","39","","odd","4367589","4344351","NA","NA","4369741","4367586","NA","3099262","4367113","3099262","3099262","4254200","4276566","4376896","4375391","4377757","4314035","4309354","4344350","NA","4211922","4242499","4342692","4309119","4367589","4309358","NA","4376896","4376896","NA","NA","4375387","NAP perception","2","2760","3","yes","1024"
"75","yes","75","910","910","white","no","xpyriment","Ich habe die obigen Informationen gelesen und verstanden.","legacy","legacy","0","uniform","1","0","0","undefined","undefined","1","j","2","1","NA","0","1","0","0","0","0","0","0","0","0","13","13","13","0","0","0","NA","0","0","2","0","0","0","2","13","13","13","13","13","Fri Nov  3 11:14:12 2017","Forced-choice identification task with a practice and an experimental phase","yes","NAP_GER_AA_4blocks_noglides.osexp","/Users/aviadalbert/Documents/Academisch/UoC/Dissertation/Experiment/OpenSesame/NAP-FC/NAP_GER_AA_4blocks_noglides","yes","no","sans","no","20","no","black","no","Weiter","yes","768","legacy","3","9","0","/Users/aviadalbert/Documents/Academisch/UoC/Dissertation/Experiment/OpenSesame/NAP-FC/NAP_GER_AA_4blocks_noglides/subject-39.csv","xpyriment","Jazzy James","3.1.9","yes","yes","59a800d99ad5a1025d81bb03","59a801616c613b0251691de0","no","no","0","j","f","space","NA","return","return","j","880","2151","22702","NA","22362","32485","880","2","legacy","1024","1","44100","-16","experiment","elval","2","1","1","0","1","eng","39","","odd","4367589","4344351","NA","NA","4369741","4367586","NA","3099262","4367113","3099262","3099262","4254200","4276566","4379531","4378026","4380412","4314035","4309354","4344350","NA","4211922","4242499","4342692","4309119","4367589","4309358","NA","4379531","4379531","NA","NA","4378022","NAP perception","3","3640","4","yes","1024"
"60","yes","60","1017.6","1017.6","white","no","xpyriment","Ich habe die obigen Informationen gelesen und verstanden.","legacy","legacy","0","uniform","0","0","0","undefined","undefined","0","f","2","1","NA","0","1","0","0","0","0","0","0","0","0","14","14","14","0","0","0","NA","0","0","2","0","0","0","2","14","14","14","14","14","Fri Nov  3 11:14:12 2017","Forced-choice identification task with a practice and an experimental phase","yes","NAP_GER_AA_4blocks_noglides.osexp","/Users/aviadalbert/Documents/Academisch/UoC/Dissertation/Experiment/OpenSesame/NAP-FC/NAP_GER_AA_4blocks_noglides","yes","no","sans","no","20","no","black","no","Weiter","yes","768","legacy","4","9","0","/Users/aviadalbert/Documents/Academisch/UoC/Dissertation/Experiment/OpenSesame/NAP-FC/NAP_GER_AA_4blocks_noglides/subject-39.csv","xpyriment","Jazzy James","3.1.9","yes","yes","59a800d99ad5a1025d81bb03","59a801616c613b0251691de0","no","no","0","j","f","space","NA","return","return","j","1448","2151","22702","NA","22362","32485","1448","2","legacy","1024","1","44100","-16","experiment","lfal","2","1","1","0","1","eng","39","","odd","4367589","4344351","NA","NA","4369741","4367586","NA","3099262","4367113","3099262","3099262","4254200","4276566","4382186","4380682","4383636","4314035","4309354","4344350","NA","4211922","4242499","4342692","4309119","4367589","4309358","NA","4382186","4382186","NA","NA","4380679","NAP perception","3","5088","5","yes","1024"
"66.6666666667","yes","66.6666666667","1027.66666667","1027.66666667","white","no","xpyriment","Ich habe die obigen Informationen gelesen und verstanden.","legacy","legacy","0","uniform","1","0","0","undefined","undefined","1","f","2","1","NA","0","1","0","0","0","0","0","0","0","0","15","15","15","0","0","0","NA","0","0","2","0","0","0","2","15","15","15","15","15","Fri Nov  3 11:14:12 2017","Forced-choice identification task with a practice and an experimental phase","yes","NAP_GER_AA_4blocks_noglides.osexp","/Users/aviadalbert/Documents/Academisch/UoC/Dissertation/Experiment/OpenSesame/NAP-FC/NAP_GER_AA_4blocks_noglides","yes","no","sans","no","20","no","black","no","Weiter","yes","768","legacy","5","9","0","/Users/aviadalbert/Documents/Academisch/UoC/Dissertation/Experiment/OpenSesame/NAP-FC/NAP_GER_AA_4blocks_noglides/subject-39.csv","xpyriment","Jazzy James","3.1.9","yes","yes","59a800d99ad5a1025d81bb03","59a801616c613b0251691de0","no","no","0","f","f","space","NA","return","return","f","1078","2151","22702","NA","22362","32485","1078","2","legacy","1024","1","44100","-16","experiment","fnal","2","1","1","0","1","eng","39","","odd","4367589","4344351","NA","NA","4369741","4367586","NA","3099262","4367113","3099262","3099262","4254200","4276566","4385416","4383912","4386495","4314035","4309354","4344350","NA","4211922","4242499","4342692","4309119","4367589","4309358","NA","4385416","4385416","NA","NA","4383908","NAP perception","4","6166","6","yes","1024"
"71.4285714286","yes","71.4285714286","1010.57142857","1010.57142857","white","no","xpyriment","Ich habe die obigen Informationen gelesen und verstanden.","legacy","legacy","0","uniform","1","0","0","undefined","undefined","1","j","2","1","NA","0","1","0","0","0","0","0","0","0","0","16","16","16","0","0","0","NA","0","0","2","0","0","0","2","16","16","16","16","16","Fri Nov  3 11:14:12 2017","Forced-choice identification task with a practice and an experimental phase","yes","NAP_GER_AA_4blocks_noglides.osexp","/Users/aviadalbert/Documents/Academisch/UoC/Dissertation/Experiment/OpenSesame/NAP-FC/NAP_GER_AA_4blocks_noglides","yes","no","sans","no","20","no","black","no","Weiter","yes","768","legacy","6","9","0","/Users/aviadalbert/Documents/Academisch/UoC/Dissertation/Experiment/OpenSesame/NAP-FC/NAP_GER_AA_4blocks_noglides/subject-39.csv","xpyriment","Jazzy James","3.1.9","yes","yes","59a800d99ad5a1025d81bb03","59a801616c613b0251691de0","no","no","0","j","f","space","NA","return","return","j","908","2151","22702","NA","22362","32485","908","2","legacy","1024","1","44100","-16","experiment","esmal","2","1","1","0","1","eng","39","","odd","4367589","4344351","NA","NA","4369741","4367586","NA","3099262","4367113","3099262","3099262","4254200","4276566","4388273","4386769","4389182","4314035","4309354","4344350","NA","4211922","4242499","4342692","4309119","4367589","4309358","NA","4388272","4388273","NA","NA","4386765","NAP perception","5","7074","7","yes","1024"
"75","yes","75","1035.625","1035.625","white","no","xpyriment","Ich habe die obigen Informationen gelesen und verstanden.","legacy","legacy","0","uniform","1","0","0","undefined","undefined","1","j","2","1","NA","0","1","0","0","0","0","0","0","0","0","17","17","17","0","0","0","NA","0","0","2","0","0","0","2","17","17","17","17","17","Fri Nov  3 11:14:12 2017","Forced-choice identification task with a practice and an experimental phase","yes","NAP_GER_AA_4blocks_noglides.osexp","/Users/aviadalbert/Documents/Academisch/UoC/Dissertation/Experiment/OpenSesame/NAP-FC/NAP_GER_AA_4blocks_noglides","yes","no","sans","no","20","no","black","no","Weiter","yes","768","legacy","7","9","0","/Users/aviadalbert/Documents/Academisch/UoC/Dissertation/Experiment/OpenSesame/NAP-FC/NAP_GER_AA_4blocks_noglides/subject-39.csv","xpyriment","Jazzy James","3.1.9","yes","yes","59a800d99ad5a1025d81bb03","59a801616c613b0251691de0","no","no","0","j","f","space","NA","return","return","j","1211","2151","22702","NA","22362","32485","1211","2","legacy","1024","1","44100","-16","experiment","fesal","2","1","1","0","1","eng","39","","odd","4367589","4344351","NA","NA","4369741","4367586","NA","3099262","4367113","3099262","3099262","4254200","4276566","4390950","4389445","4392162","4314035","4309354","4344350","NA","4211922","4242499","4342692","4309119","4367589","4309358","NA","4390950","4390950","NA","NA","4389441","NAP perception","6","8285","8","yes","1024"
"77.7777777778","yes","77.7777777778","1104.22222222","1104.22222222","white","no","xpyriment","Ich habe die obigen Informationen gelesen und verstanden.","legacy","legacy","0","uniform","1","0","0","undefined","undefined","1","f","2","1","NA","0","1","0","0","0","0","0","0","0","0","18","18","18","0","0","0","NA","0","0","2","0","0","0","2","18","18","18","18","18","Fri Nov  3 11:14:12 2017","Forced-choice identification task with a practice and an experimental phase","yes","NAP_GER_AA_4blocks_noglides.osexp","/Users/aviadalbert/Documents/Academisch/UoC/Dissertation/Experiment/OpenSesame/NAP-FC/NAP_GER_AA_4blocks_noglides","yes","no","sans","no","20","no","black","no","Weiter","yes","768","legacy","8","9","0","/Users/aviadalbert/Documents/Academisch/UoC/Dissertation/Experiment/OpenSesame/NAP-FC/NAP_GER_AA_4blocks_noglides/subject-39.csv","xpyriment","Jazzy James","3.1.9","yes","yes","59a800d99ad5a1025d81bb03","59a801616c613b0251691de0","no","no","0","f","f","space","NA","return","return","f","1653","2151","22702","NA","22362","32485","1653","2","legacy","1024","1","44100","-16","experiment","mtal","2","1","1","0","1","eng","39","","odd","4367589","4344351","NA","NA","4369741","4367586","NA","3099262","4367113","3099262","3099262","4254200","4276566","4393934","4392431","4395588","4314035","4309354","4344350","NA","4211922","4242499","4342692","4309119","4367589","4309358","NA","4393934","4393934","NA","NA","4392427","NAP perception","7","9938","9","yes","1024"
"80","yes","80","1085.6","1085.6","white","no","xpyriment","Ich habe die obigen Informationen gelesen und verstanden.","legacy","legacy","0","uniform","1","0","0","undefined","undefined","1","j","2","1","NA","0","1","0","0","0","0","0","0","0","0","19","19","19","0","0","0","NA","0","0","2","0","0","0","2","19","19","19","19","19","Fri Nov  3 11:14:12 2017","Forced-choice identification task with a practice and an experimental phase","yes","NAP_GER_AA_4blocks_noglides.osexp","/Users/aviadalbert/Documents/Academisch/UoC/Dissertation/Experiment/OpenSesame/NAP-FC/NAP_GER_AA_4blocks_noglides","yes","no","sans","no","20","no","black","no","Weiter","yes","768","legacy","9","9","0","/Users/aviadalbert/Documents/Academisch/UoC/Dissertation/Experiment/OpenSesame/NAP-FC/NAP_GER_AA_4blocks_noglides/subject-39.csv","xpyriment","Jazzy James","3.1.9","yes","yes","59a800d99ad5a1025d81bb03","59a801616c613b0251691de0","no","no","0","j","f","space","NA","return","return","j","918","2151","22702","NA","22362","32485","918","2","legacy","1024","1","44100","-16","experiment","nefal","2","1","1","0","1","eng","39","","odd","4367589","4344351","NA","NA","4369741","4367586","NA","3099262","4367113","3099262","3099262","4254200","4276566","4397371","4395867","4398291","4314035","4309354","4344350","NA","4211922","4242499","4342692","4309119","4367589","4309358","NA","4397371","4397371","NA","NA","4395863","NAP perception","8","10856","10","yes","1024"
"81.8181818182","yes","81.8181818182","1076.27272727","1076.27272727","white","no","xpyriment","Ich habe die obigen Informationen gelesen und verstanden.","legacy","legacy","0","uniform","1","0","0","undefined","undefined","1","j","2","1","NA","0","1","0","0","0","0","0","0","0","0","20","20","20","0","0","0","NA","0","0","2","0","0","0","2","20","20","20","20","20","Fri Nov  3 11:14:12 2017","Forced-choice identification task with a practice and an experimental phase","yes","NAP_GER_AA_4blocks_noglides.osexp","/Users/aviadalbert/Documents/Academisch/UoC/Dissertation/Experiment/OpenSesame/NAP-FC/NAP_GER_AA_4blocks_noglides","yes","no","sans","no","20","no","black","no","Weiter","yes","768","legacy","10","9","0","/Users/aviadalbert/Documents/Academisch/UoC/Dissertation/Experiment/OpenSesame/NAP-FC/NAP_GER_AA_4blocks_noglides/subject-39.csv","xpyriment","Jazzy James","3.1.9","yes","yes","59a800d99ad5a1025d81bb03","59a801616c613b0251691de0","no","no","0","j","f","space","NA","return","return","j","983","2151","22702","NA","22362","32485","983","2","legacy","1024","1","44100","-16","experiment","eʃfal","2","1","1","0","1","eng","39","","odd","4367589","4344351","NA","NA","4369741","4367586","NA","3099262","4367113","3099262","3099262","4254200","4276566","4400058","4398554","4401042","4314035","4309354","4344350","NA","4211922","4242499","4342692","4309119","4367589","4309358","NA","4400057","4400058","NA","NA","4398550","NAP perception","9","11839","11","yes","1024"
"83.3333333333","yes","83.3333333333","1073.33333333","1073.33333333","white","no","xpyriment","Ich habe die obigen Informationen gelesen und verstanden.","legacy","legacy","0","uniform","1","0","0","undefined","undefined","1","j","2","1","NA","0","1","0","0","0","0","0","0","0","0","21","21","21","0","0","0","NA","0","0","2","0","0","0","2","21","21","21","21","21","Fri Nov  3 11:14:12 2017","Forced-choice identification task with a practice and an experimental phase","yes","NAP_GER_AA_4blocks_noglides.osexp","/Users/aviadalbert/Documents/Academisch/UoC/Dissertation/Experiment/OpenSesame/NAP-FC/NAP_GER_AA_4blocks_noglides","yes","no","sans","no","20","no","black","no","Weiter","yes","768","legacy","11","9","0","/Users/aviadalbert/Documents/Academisch/UoC/Dissertation/Experiment/OpenSesame/NAP-FC/NAP_GER_AA_4blocks_noglides/subject-39.csv","xpyriment","Jazzy James","3.1.9","yes","yes","59a800d99ad5a1025d81bb03","59a801616c613b0251691de0","no","no","0","j","f","space","NA","return","return","j","1041","2151","22702","NA","22362","32485","1041","2","legacy","1024","1","44100","-16","experiment","enpal","2","1","1","0","1","eng","39","","odd","4367589","4344351","NA","NA","4369741","4367586","NA","3099262","4367113","3099262","3099262","4254200","4276566","4402827","4401323","4403869","4314035","4309354","4344350","NA","4211922","4242499","4342692","4309119","4367589","4309358","NA","4402827","4402827","NA","NA","4401319","NAP perception","10","12880","12","yes","1024"
"84.6153846154","yes","84.6153846154","1066.07692308","1066.07692308","white","no","xpyriment","Ich habe die obigen Informationen gelesen und verstanden.","legacy","legacy","0","uniform","1","0","0","undefined","undefined","1","f","2","1","NA","0","1","0","0","0","0","0","0","0","0","22","22","22","0","0","0","NA","0","0","2","0","0","0","2","22","22","22","22","22","Fri Nov  3 11:14:12 2017","Forced-choice identification task with a practice and an experimental phase","yes","NAP_GER_AA_4blocks_noglides.osexp","/Users/aviadalbert/Documents/Academisch/UoC/Dissertation/Experiment/OpenSesame/NAP-FC/NAP_GER_AA_4blocks_noglides","yes","no","sans","no","20","no","black","no","Weiter","yes","768","legacy","12","9","0","/Users/aviadalbert/Documents/Academisch/UoC/Dissertation/Experiment/OpenSesame/NAP-FC/NAP_GER_AA_4blocks_noglides/subject-39.csv","xpyriment","Jazzy James","3.1.9","yes","yes","59a800d99ad5a1025d81bb03","59a801616c613b0251691de0","no","no","0","f","f","space","NA","return","return","f","979","2151","22702","NA","22362","32485","979","2","legacy","1024","1","44100","-16","experiment","mzal","2","1","1","0","1","eng","39","","odd","4367589","4344351","NA","NA","4369741","4367586","NA","3099262","4367113","3099262","3099262","4254200","4276566","4405632","4404129","4406612","4314035","4309354","4344350","NA","4211922","4242499","4342692","4309119","4367589","4309358","NA","4405632","4405632","NA","NA","4404125","NAP perception","11","13859","13","yes","1024"
"85.7142857143","yes","85.7142857143","1064.42857143","1064.42857143","white","no","xpyriment","Ich habe die obigen Informationen gelesen und verstanden.","legacy","legacy","0","uniform","1","0","0","undefined","undefined","1","j","2","1","NA","0","1","0","0","0","0","0","0","0","0","23","23","23","0","0","0","NA","0","0","2","0","0","0","2","23","23","23","23","23","Fri Nov  3 11:14:12 2017","Forced-choice identification task with a practice and an experimental phase","yes","NAP_GER_AA_4blocks_noglides.osexp","/Users/aviadalbert/Documents/Academisch/UoC/Dissertation/Experiment/OpenSesame/NAP-FC/NAP_GER_AA_4blocks_noglides","yes","no","sans","no","20","no","black","no","Weiter","yes","768","legacy","13","9","0","/Users/aviadalbert/Documents/Academisch/UoC/Dissertation/Experiment/OpenSesame/NAP-FC/NAP_GER_AA_4blocks_noglides/subject-39.csv","xpyriment","Jazzy James","3.1.9","yes","yes","59a800d99ad5a1025d81bb03","59a801616c613b0251691de0","no","no","0","j","f","space","NA","return","return","j","1043","2151","22702","NA","22362","32485","1043","2","legacy","1024","1","44100","-16","experiment","ezval","2","1","1","0","1","eng","39","","odd","4367589","4344351","NA","NA","4369741","4367586","NA","3099262","4367113","3099262","3099262","4254200","4276566","4408389","4406886","4409434","4314035","4309354","4344350","NA","4211922","4242499","4342692","4309119","4367589","4309358","NA","4408389","4408389","NA","NA","4406881","NAP perception","12","14902","14","yes","1024"
"86.6666666667","yes","86.6666666667","1070.4","1070.4","white","no","xpyriment","Ich habe die obigen Informationen gelesen und verstanden.","legacy","legacy","0","uniform","1","0","0","undefined","undefined","1","j","2","1","NA","0","1","0","0","0","0","0","0","0","0","24","24","24","0","0","0","NA","0","0","2","0","0","0","2","24","24","24","24","24","Fri Nov  3 11:14:12 2017","Forced-choice identification task with a practice and an experimental phase","yes","NAP_GER_AA_4blocks_noglides.osexp","/Users/aviadalbert/Documents/Academisch/UoC/Dissertation/Experiment/OpenSesame/NAP-FC/NAP_GER_AA_4blocks_noglides","yes","no","sans","no","20","no","black","no","Weiter","yes","768","legacy","14","9","0","/Users/aviadalbert/Documents/Academisch/UoC/Dissertation/Experiment/OpenSesame/NAP-FC/NAP_GER_AA_4blocks_noglides/subject-39.csv","xpyriment","Jazzy James","3.1.9","yes","yes","59a800d99ad5a1025d81bb03","59a801616c613b0251691de0","no","no","0","j","f","space","NA","return","return","j","1154","2151","22702","NA","22362","32485","1154","2","legacy","1024","1","44100","-16","experiment","sepal","2","1","1","0","1","eng","39","","odd","4367589","4344351","NA","NA","4369741","4367586","NA","3099262","4367113","3099262","3099262","4254200","4276566","4411213","4409709","4412369","4314035","4309354","4344350","NA","4211922","4242499","4342692","4309119","4367589","4309358","NA","4411213","4411213","NA","NA","4409705","NAP perception","13","16056","15","yes","1024"
"87.5","yes","87.5","1056.25","1056.25","white","no","xpyriment","Ich habe die obigen Informationen gelesen und verstanden.","legacy","legacy","0","uniform","1","0","0","undefined","undefined","1","f","2","1","NA","0","1","0","0","0","0","0","0","0","0","25","25","25","0","0","0","NA","0","0","2","0","0","0","2","25","25","25","25","25","Fri Nov  3 11:14:12 2017","Forced-choice identification task with a practice and an experimental phase","yes","NAP_GER_AA_4blocks_noglides.osexp","/Users/aviadalbert/Documents/Academisch/UoC/Dissertation/Experiment/OpenSesame/NAP-FC/NAP_GER_AA_4blocks_noglides","yes","no","sans","no","20","no","black","no","Weiter","yes","768","legacy","15","9","0","/Users/aviadalbert/Documents/Academisch/UoC/Dissertation/Experiment/OpenSesame/NAP-FC/NAP_GER_AA_4blocks_noglides/subject-39.csv","xpyriment","Jazzy James","3.1.9","yes","yes","59a800d99ad5a1025d81bb03","59a801616c613b0251691de0","no","no","0","f","f","space","NA","return","return","f","844","2151","22702","NA","22362","32485","844","2","legacy","1024","1","44100","-16","experiment","fnal","2","1","1","0","1","eng","39","","odd","4367589","4344351","NA","NA","4369741","4367586","NA","3099262","4367113","3099262","3099262","4254200","4276566","4414149","4412646","4414994","4314035","4309354","4344350","NA","4211922","4242499","4342692","4309119","4367589","4309358","NA","4414149","4414149","NA","NA","4412642","NAP perception","14","16900","16","yes","1024"
"88.2352941176","yes","88.2352941176","1066","1066","white","no","xpyriment","Ich habe die obigen Informationen gelesen und verstanden.","legacy","legacy","0","uniform","1","0","0","undefined","undefined","1","f","2","1","NA","0","1","0","0","0","0","0","0","0","0","26","26","26","0","0","0","NA","0","0","2","0","0","0","2","26","26","26","26","26","Fri Nov  3 11:14:12 2017","Forced-choice identification task with a practice and an experimental phase","yes","NAP_GER_AA_4blocks_noglides.osexp","/Users/aviadalbert/Documents/Academisch/UoC/Dissertation/Experiment/OpenSesame/NAP-FC/NAP_GER_AA_4blocks_noglides","yes","no","sans","no","20","no","black","no","Weiter","yes","768","legacy","16","9","0","/Users/aviadalbert/Documents/Academisch/UoC/Dissertation/Experiment/OpenSesame/NAP-FC/NAP_GER_AA_4blocks_noglides/subject-39.csv","xpyriment","Jazzy James","3.1.9","yes","yes","59a800d99ad5a1025d81bb03","59a801616c613b0251691de0","no","no","0","f","f","space","NA","return","return","f","1222","2151","22702","NA","22362","32485","1222","2","legacy","1024","1","44100","-16","experiment","mnal","2","1","1","0","1","eng","39","","odd","4367589","4344351","NA","NA","4369741","4367586","NA","3099262","4367113","3099262","3099262","4254200","4276566","4416772","4415266","4417995","4314035","4309354","4344350","NA","4211922","4242499","4342692","4309119","4367589","4309358","NA","4416772","4416772","NA","NA","4415262","NAP perception","15","18122","17","yes","1024"
"88.8888888889","yes","88.8888888889","1059.44444444","1059.44444444","white","no","xpyriment","Ich habe die obigen Informationen gelesen und verstanden.","legacy","legacy","0","uniform","1","0","0","undefined","undefined","1","j","2","1","NA","0","1","0","0","0","0","0","0","0","0","27","27","27","0","0","0","NA","0","0","2","0","0","0","2","27","27","27","27","27","Fri Nov  3 11:14:12 2017","Forced-choice identification task with a practice and an experimental phase","yes","NAP_GER_AA_4blocks_noglides.osexp","/Users/aviadalbert/Documents/Academisch/UoC/Dissertation/Experiment/OpenSesame/NAP-FC/NAP_GER_AA_4blocks_noglides","yes","no","sans","no","20","no","black","no","Weiter","yes","768","legacy","17","9","0","/Users/aviadalbert/Documents/Academisch/UoC/Dissertation/Experiment/OpenSesame/NAP-FC/NAP_GER_AA_4blocks_noglides/subject-39.csv","xpyriment","Jazzy James","3.1.9","yes","yes","59a800d99ad5a1025d81bb03","59a801616c613b0251691de0","no","no","0","j","f","space","NA","return","return","j","948","2151","22702","NA","22362","32485","948","2","legacy","1024","1","44100","-16","experiment","eʃmal","2","1","1","0","1","eng","39","","odd","4367589","4344351","NA","NA","4369741","4367586","NA","3099262","4367113","3099262","3099262","4254200","4276566","4419767","4418262","4420716","4314035","4309354","4344350","NA","4211922","4242499","4342692","4309119","4367589","4309358","NA","4419767","4419767","NA","NA","4418258","NAP perception","16","19070","18","yes","1024"
"89.4736842105","yes","89.4736842105","1070.68421053","1070.68421053","white","no","xpyriment","Ich habe die obigen Informationen gelesen und verstanden.","legacy","legacy","0","uniform","1","0","0","undefined","undefined","1","j","2","1","NA","0","1","0","0","0","0","0","0","0","0","28","28","28","0","0","0","NA","0","0","2","0","0","0","2","28","28","28","28","28","Fri Nov  3 11:14:12 2017","Forced-choice identification task with a practice and an experimental phase","yes","NAP_GER_AA_4blocks_noglides.osexp","/Users/aviadalbert/Documents/Academisch/UoC/Dissertation/Experiment/OpenSesame/NAP-FC/NAP_GER_AA_4blocks_noglides","yes","no","sans","no","20","no","black","no","Weiter","yes","768","legacy","18","9","0","/Users/aviadalbert/Documents/Academisch/UoC/Dissertation/Experiment/OpenSesame/NAP-FC/NAP_GER_AA_4blocks_noglides/subject-39.csv","xpyriment","Jazzy James","3.1.9","yes","yes","59a800d99ad5a1025d81bb03","59a801616c613b0251691de0","no","no","0","j","f","space","NA","return","return","j","1273","2151","22702","NA","22362","32485","1273","2","legacy","1024","1","44100","-16","experiment","eftal","2","1","1","0","1","eng","39","","odd","4367589","4344351","NA","NA","4369741","4367586","NA","3099262","4367113","3099262","3099262","4254200","4276566","4422491","4420987","4423765","4314035","4309354","4344350","NA","4211922","4242499","4342692","4309119","4367589","4309358","NA","4422491","4422491","NA","NA","4420983","NAP perception","17","20343","19","yes","1024"
"85","yes","85","1075.9","1075.9","white","no","xpyriment","Ich habe die obigen Informationen gelesen und verstanden.","legacy","legacy","0","uniform","0","0","0","undefined","undefined","0","j","2","1","NA","0","1","0","0","0","0","0","0","0","0","29","29","29","0","0","0","NA","0","0","2","0","0","0","2","29","29","29","29","29","Fri Nov  3 11:14:12 2017","Forced-choice identification task with a practice and an experimental phase","yes","NAP_GER_AA_4blocks_noglides.osexp","/Users/aviadalbert/Documents/Academisch/UoC/Dissertation/Experiment/OpenSesame/NAP-FC/NAP_GER_AA_4blocks_noglides","yes","no","sans","no","20","no","black","no","Weiter","yes","768","legacy","19","9","0","/Users/aviadalbert/Documents/Academisch/UoC/Dissertation/Experiment/OpenSesame/NAP-FC/NAP_GER_AA_4blocks_noglides/subject-39.csv","xpyriment","Jazzy James","3.1.9","yes","yes","59a800d99ad5a1025d81bb03","59a801616c613b0251691de0","no","no","0","f","f","space","NA","return","return","f","1175","2151","22702","NA","22362","32485","1175","2","legacy","1024","1","44100","-16","experiment","fenal","2","1","1","0","1","eng","39","","odd","4367589","4344351","NA","NA","4369741","4367586","NA","3099262","4367113","3099262","3099262","4254200","4276566","4425537","4424031","4426713","4314035","4309354","4344350","NA","4211922","4242499","4342692","4309119","4367589","4309358","NA","4425537","4425537","NA","NA","4424027","NAP perception","17","21518","20","yes","1024"
"85.7142857143","yes","85.7142857143","1070.14285714","1070.14285714","white","no","xpyriment","Ich habe die obigen Informationen gelesen und verstanden.","legacy","legacy","0","uniform","1","0","0","undefined","undefined","1","j","2","1","NA","0","1","0","0","0","0","0","0","0","0","30","30","30","0","0","0","NA","0","0","2","0","0","0","2","30","30","30","30","30","Fri Nov  3 11:14:12 2017","Forced-choice identification task with a practice and an experimental phase","yes","NAP_GER_AA_4blocks_noglides.osexp","/Users/aviadalbert/Documents/Academisch/UoC/Dissertation/Experiment/OpenSesame/NAP-FC/NAP_GER_AA_4blocks_noglides","yes","no","sans","no","20","no","black","no","Weiter","yes","768","legacy","20","9","0","/Users/aviadalbert/Documents/Academisch/UoC/Dissertation/Experiment/OpenSesame/NAP-FC/NAP_GER_AA_4blocks_noglides/subject-39.csv","xpyriment","Jazzy James","3.1.9","yes","yes","59a800d99ad5a1025d81bb03","59a801616c613b0251691de0","no","no","0","j","f","space","NA","return","return","j","955","2151","22702","NA","22362","32485","955","2","legacy","1024","1","44100","-16","experiment","ʃepal","2","1","1","0","1","eng","39","","odd","4367589","4344351","NA","NA","4369741","4367586","NA","3099262","4367113","3099262","3099262","4254200","4276566","4428497","4426992","4429453","4314035","4309354","4344350","NA","4211922","4242499","4342692","4309119","4367589","4309358","NA","4428497","4428497","NA","NA","4426988","NAP perception","18","22473","21","yes","1024"
"81.8181818182","yes","81.8181818182","1095.68181818","1095.68181818","white","no","xpyriment","Ich habe die obigen Informationen gelesen und verstanden.","legacy","legacy","0","uniform","0","0","0","undefined","undefined","0","f","2","1","NA","0","1","0","0","0","0","0","0","0","0","31","31","31","0","0","0","NA","0","0","2","0","0","0","2","31","31","31","31","31","Fri Nov  3 11:14:12 2017","Forced-choice identification task with a practice and an experimental phase","yes","NAP_GER_AA_4blocks_noglides.osexp","/Users/aviadalbert/Documents/Academisch/UoC/Dissertation/Experiment/OpenSesame/NAP-FC/NAP_GER_AA_4blocks_noglides","yes","no","sans","no","20","no","black","no","Weiter","yes","768","legacy","21","9","0","/Users/aviadalbert/Documents/Academisch/UoC/Dissertation/Experiment/OpenSesame/NAP-FC/NAP_GER_AA_4blocks_noglides/subject-39.csv","xpyriment","Jazzy James","3.1.9","yes","yes","59a800d99ad5a1025d81bb03","59a801616c613b0251691de0","no","no","0","j","f","space","NA","return","return","j","1632","2151","22702","NA","22362","32485","1632","2","legacy","1024","1","44100","-16","experiment","lmal","2","1","1","0","1","eng","39","","odd","4367589","4344351","NA","NA","4369741","4367586","NA","3099262","4367113","3099262","3099262","4254200","4276566","4431225","4429722","4432858","4314035","4309354","4344350","NA","4211922","4242499","4342692","4309119","4367589","4309358","NA","4431225","4431225","NA","NA","4429718","NAP perception","18","24105","22","yes","1024"
"82.6086956522","yes","82.6086956522","1104.17391304","1104.17391304","white","no","xpyriment","Ich habe die obigen Informationen gelesen und verstanden.","legacy","legacy","0","uniform","1","0","0","undefined","undefined","1","f","2","1","NA","0","1","0","0","0","0","0","0","0","0","32","32","32","0","0","0","NA","0","0","2","0","0","0","2","32","32","32","32","32","Fri Nov  3 11:14:12 2017","Forced-choice identification task with a practice and an experimental phase","yes","NAP_GER_AA_4blocks_noglides.osexp","/Users/aviadalbert/Documents/Academisch/UoC/Dissertation/Experiment/OpenSesame/NAP-FC/NAP_GER_AA_4blocks_noglides","yes","no","sans","no","20","no","black","no","Weiter","yes","768","legacy","22","9","0","/Users/aviadalbert/Documents/Academisch/UoC/Dissertation/Experiment/OpenSesame/NAP-FC/NAP_GER_AA_4blocks_noglides/subject-39.csv","xpyriment","Jazzy James","3.1.9","yes","yes","59a800d99ad5a1025d81bb03","59a801616c613b0251691de0","no","no","0","f","f","space","NA","return","return","f","1291","2151","22702","NA","22362","32485","1291","2","legacy","1024","1","44100","-16","experiment","fsal","2","1","1","0","1","eng","39","","odd","4367589","4344351","NA","NA","4369741","4367586","NA","3099262","4367113","3099262","3099262","4254200","4276566","4434634","4433129","4435926","4314035","4309354","4344350","NA","4211922","4242499","4342692","4309119","4367589","4309358","NA","4434633","4434633","NA","NA","4433125","NAP perception","19","25396","23","yes","1024"
"83.3333333333","yes","83.3333333333","1105.79166667","1105.79166667","white","no","xpyriment","Ich habe die obigen Informationen gelesen und verstanden.","legacy","legacy","0","uniform","1","0","0","undefined","undefined","1","j","2","1","NA","0","1","0","0","0","0","0","0","0","0","33","33","33","0","0","0","NA","0","0","2","0","0","0","2","33","33","33","33","33","Fri Nov  3 11:14:12 2017","Forced-choice identification task with a practice and an experimental phase","yes","NAP_GER_AA_4blocks_noglides.osexp","/Users/aviadalbert/Documents/Academisch/UoC/Dissertation/Experiment/OpenSesame/NAP-FC/NAP_GER_AA_4blocks_noglides","yes","no","sans","no","20","no","black","no","Weiter","yes","768","legacy","23","9","0","/Users/aviadalbert/Documents/Academisch/UoC/Dissertation/Experiment/OpenSesame/NAP-FC/NAP_GER_AA_4blocks_noglides/subject-39.csv","xpyriment","Jazzy James","3.1.9","yes","yes","59a800d99ad5a1025d81bb03","59a801616c613b0251691de0","no","no","0","j","f","space","NA","return","return","j","1143","2151","22702","NA","22362","32485","1143","2","legacy","1024","1","44100","-16","experiment","enval","2","1","1","0","1","eng","39","","odd","4367589","4344351","NA","NA","4369741","4367586","NA","3099262","4367113","3099262","3099262","4254200","4276566","4437716","4436209","4438861","4314035","4309354","4344350","NA","4211922","4242499","4342692","4309119","4367589","4309358","NA","4437716","4437716","NA","NA","4436205","NAP perception","20","26539","24","yes","1024"
"84","yes","84","1101.64","1101.64","white","no","xpyriment","Ich habe die obigen Informationen gelesen und verstanden.","legacy","legacy","0","uniform","1","0","0","undefined","undefined","1","j","2","1","NA","0","1","0","0","0","0","0","0","0","0","34","34","34","0","0","0","NA","0","0","2","0","0","0","2","34","34","34","34","34","Fri Nov  3 11:14:12 2017","Forced-choice identification task with a practice and an experimental phase","yes","NAP_GER_AA_4blocks_noglides.osexp","/Users/aviadalbert/Documents/Academisch/UoC/Dissertation/Experiment/OpenSesame/NAP-FC/NAP_GER_AA_4blocks_noglides","yes","no","sans","no","20","no","black","no","Weiter","yes","768","legacy","24","9","0","/Users/aviadalbert/Documents/Academisch/UoC/Dissertation/Experiment/OpenSesame/NAP-FC/NAP_GER_AA_4blocks_noglides/subject-39.csv","xpyriment","Jazzy James","3.1.9","yes","yes","59a800d99ad5a1025d81bb03","59a801616c613b0251691de0","no","no","0","j","f","space","NA","return","return","j","1002","2151","22702","NA","22362","32485","1002","2","legacy","1024","1","44100","-16","experiment","lefal","2","1","1","0","1","eng","39","","odd","4367589","4344351","NA","NA","4369741","4367586","NA","3099262","4367113","3099262","3099262","4254200","4276566","4440630","4439123","4441634","4314035","4309354","4344350","NA","4211922","4242499","4342692","4309119","4367589","4309358","NA","4440630","4440630","NA","NA","4439119","NAP perception","21","27541","25","yes","1024"
"84.6153846154","yes","84.6153846154","1099.80769231","1099.80769231","white","no","xpyriment","Ich habe die obigen Informationen gelesen und verstanden.","legacy","legacy","0","uniform","1","0","0","undefined","undefined","1","j","2","1","NA","0","1","0","0","0","0","0","0","0","0","35","35","35","0","0","0","NA","0","0","2","0","0","0","2","35","35","35","35","35","Fri Nov  3 11:14:12 2017","Forced-choice identification task with a practice and an experimental phase","yes","NAP_GER_AA_4blocks_noglides.osexp","/Users/aviadalbert/Documents/Academisch/UoC/Dissertation/Experiment/OpenSesame/NAP-FC/NAP_GER_AA_4blocks_noglides","yes","no","sans","no","20","no","black","no","Weiter","yes","768","legacy","25","9","0","/Users/aviadalbert/Documents/Academisch/UoC/Dissertation/Experiment/OpenSesame/NAP-FC/NAP_GER_AA_4blocks_noglides/subject-39.csv","xpyriment","Jazzy James","3.1.9","yes","yes","59a800d99ad5a1025d81bb03","59a801616c613b0251691de0","no","no","0","j","f","space","NA","return","return","j","1054","2151","22702","NA","22362","32485","1054","2","legacy","1024","1","44100","-16","experiment","neval","2","1","1","0","1","eng","39","","odd","4367589","4344351","NA","NA","4369741","4367586","NA","3099262","4367113","3099262","3099262","4254200","4276566","4443405","4441899","4444461","4314035","4309354","4344350","NA","4211922","4242499","4342692","4309119","4367589","4309358","NA","4443405","4443405","NA","NA","4441896","NAP perception","22","28595","26","yes","1024"
"85.1851851852","yes","85.1851851852","1101.07407407","1101.07407407","white","no","xpyriment","Ich habe die obigen Informationen gelesen und verstanden.","legacy","legacy","0","uniform","1","0","0","undefined","undefined","1","j","2","1","NA","0","1","0","0","0","0","0","0","0","0","36","36","36","0","0","0","NA","0","0","2","0","0","0","2","36","36","36","36","36","Fri Nov  3 11:14:12 2017","Forced-choice identification task with a practice and an experimental phase","yes","NAP_GER_AA_4blocks_noglides.osexp","/Users/aviadalbert/Documents/Academisch/UoC/Dissertation/Experiment/OpenSesame/NAP-FC/NAP_GER_AA_4blocks_noglides","yes","no","sans","no","20","no","black","no","Weiter","yes","768","legacy","26","9","0","/Users/aviadalbert/Documents/Academisch/UoC/Dissertation/Experiment/OpenSesame/NAP-FC/NAP_GER_AA_4blocks_noglides/subject-39.csv","xpyriment","Jazzy James","3.1.9","yes","yes","59a800d99ad5a1025d81bb03","59a801616c613b0251691de0","no","no","0","j","f","space","NA","return","return","j","1134","2151","22702","NA","22362","32485","1134","2","legacy","1024","1","44100","-16","experiment","ʃefal","2","1","1","0","1","eng","39","","odd","4367589","4344351","NA","NA","4369741","4367586","NA","3099262","4367113","3099262","3099262","4254200","4276566","4446245","4444741","4447381","4314035","4309354","4344350","NA","4211922","4242499","4342692","4309119","4367589","4309358","NA","4446244","4446245","NA","NA","4444737","NAP perception","23","29729","27","yes","1024"
"85.7142857143","yes","85.7142857143","1098.32142857","1098.32142857","white","no","xpyriment","Ich habe die obigen Informationen gelesen und verstanden.","legacy","legacy","0","uniform","1","0","0","undefined","undefined","1","f","2","1","NA","0","1","0","0","0","0","0","0","0","0","37","37","37","0","0","0","NA","0","0","2","0","0","0","2","37","37","37","37","37","Fri Nov  3 11:14:12 2017","Forced-choice identification task with a practice and an experimental phase","yes","NAP_GER_AA_4blocks_noglides.osexp","/Users/aviadalbert/Documents/Academisch/UoC/Dissertation/Experiment/OpenSesame/NAP-FC/NAP_GER_AA_4blocks_noglides","yes","no","sans","no","20","no","black","no","Weiter","yes","768","legacy","27","9","0","/Users/aviadalbert/Documents/Academisch/UoC/Dissertation/Experiment/OpenSesame/NAP-FC/NAP_GER_AA_4blocks_noglides/subject-39.csv","xpyriment","Jazzy James","3.1.9","yes","yes","59a800d99ad5a1025d81bb03","59a801616c613b0251691de0","no","no","0","f","f","space","NA","return","return","f","1024","2151","22702","NA","22362","32485","1024","2","legacy","1024","1","44100","-16","experiment","sfal","2","1","1","0","1","eng","39","","odd","4367589","4344351","NA","NA","4369741","4367586","NA","3099262","4367113","3099262","3099262","4254200","4276566","4449163","4447657","4450188","4314035","4309354","4344350","NA","4211922","4242499","4342692","4309119","4367589","4309358","NA","4449162","4449163","NA","NA","4447653","NAP perception","24","30753","28","yes","1024"
"82.7586206897","yes","82.7586206897","1112.06896552","1112.06896552","white","no","xpyriment","Ich habe die obigen Informationen gelesen und verstanden.","legacy","legacy","0","uniform","0","0","0","undefined","undefined","0","f","2","1","NA","0","1","0","0","0","0","0","0","0","0","38","38","38","0","0","0","NA","0","0","2","0","0","0","2","38","38","38","38","38","Fri Nov  3 11:14:12 2017","Forced-choice identification task with a practice and an experimental phase","yes","NAP_GER_AA_4blocks_noglides.osexp","/Users/aviadalbert/Documents/Academisch/UoC/Dissertation/Experiment/OpenSesame/NAP-FC/NAP_GER_AA_4blocks_noglides","yes","no","sans","no","20","no","black","no","Weiter","yes","768","legacy","28","9","0","/Users/aviadalbert/Documents/Academisch/UoC/Dissertation/Experiment/OpenSesame/NAP-FC/NAP_GER_AA_4blocks_noglides/subject-39.csv","xpyriment","Jazzy James","3.1.9","yes","yes","59a800d99ad5a1025d81bb03","59a801616c613b0251691de0","no","no","0","j","f","space","NA","return","return","j","1497","2151","22702","NA","22362","32485","1497","2","legacy","1024","1","44100","-16","experiment","lkal","2","1","1","0","1","eng","39","","odd","4367589","4344351","NA","NA","4369741","4367586","NA","3099262","4367113","3099262","3099262","4254200","4276566","4451957","4450454","4453455","4314035","4309354","4344350","NA","4211922","4242499","4342692","4309119","4367589","4309358","NA","4451957","4451957","NA","NA","4450450","NAP perception","24","32250","29","yes","1024"
"80","yes","80","1111.56666667","1111.56666667","white","no","xpyriment","Ich habe die obigen Informationen gelesen und verstanden.","legacy","legacy","0","uniform","0","0","0","undefined","undefined","0","f","2","1","NA","0","1","0","0","0","0","0","0","0","0","39","39","39","0","0","0","NA","0","0","2","0","0","0","2","39","39","39","39","39","Fri Nov  3 11:14:12 2017","Forced-choice identification task with a practice and an experimental phase","yes","NAP_GER_AA_4blocks_noglides.osexp","/Users/aviadalbert/Documents/Academisch/UoC/Dissertation/Experiment/OpenSesame/NAP-FC/NAP_GER_AA_4blocks_noglides","yes","no","sans","no","20","no","black","no","Weiter","yes","768","legacy","29","9","0","/Users/aviadalbert/Documents/Academisch/UoC/Dissertation/Experiment/OpenSesame/NAP-FC/NAP_GER_AA_4blocks_noglides/subject-39.csv","xpyriment","Jazzy James","3.1.9","yes","yes","59a800d99ad5a1025d81bb03","59a801616c613b0251691de0","no","no","0","j","f","space","NA","return","return","j","1097","2151","22702","NA","22362","32485","1097","2","legacy","1024","1","44100","-16","experiment","lval","2","1","1","0","1","eng","39","","odd","4367589","4344351","NA","NA","4369741","4367586","NA","3099262","4367113","3099262","3099262","4254200","4276566","4455236","4453733","4456335","4314035","4309354","4344350","NA","4211922","4242499","4342692","4309119","4367589","4309358","NA","4455236","4455236","NA","NA","4453729","NAP perception","24","33347","30","yes","1024"
"80.6451612903","yes","80.6451612903","1125.32258065","1125.32258065","white","no","xpyriment","Ich habe die obigen Informationen gelesen und verstanden.","legacy","legacy","0","uniform","1","0","0","undefined","undefined","1","f","2","1","NA","0","1","0","0","0","0","0","0","0","0","40","40","40","0","0","0","NA","0","0","2","0","0","0","2","40","40","40","40","40","Fri Nov  3 11:14:12 2017","Forced-choice identification task with a practice and an experimental phase","yes","NAP_GER_AA_4blocks_noglides.osexp","/Users/aviadalbert/Documents/Academisch/UoC/Dissertation/Experiment/OpenSesame/NAP-FC/NAP_GER_AA_4blocks_noglides","yes","no","sans","no","20","no","black","no","Weiter","yes","768","legacy","30","9","0","/Users/aviadalbert/Documents/Academisch/UoC/Dissertation/Experiment/OpenSesame/NAP-FC/NAP_GER_AA_4blocks_noglides/subject-39.csv","xpyriment","Jazzy James","3.1.9","yes","yes","59a800d99ad5a1025d81bb03","59a801616c613b0251691de0","no","no","0","f","f","space","NA","return","return","f","1538","2151","22702","NA","22362","32485","1538","2","legacy","1024","1","44100","-16","experiment","mzal","2","1","1","0","1","eng","39","","odd","4367589","4344351","NA","NA","4369741","4367586","NA","3099262","4367113","3099262","3099262","4254200","4276566","4458104","4456599","4459643","4314035","4309354","4344350","NA","4211922","4242499","4342692","4309119","4367589","4309358","NA","4458104","4458104","NA","NA","4456596","NAP perception","25","34885","31","yes","1024"
"78.125","yes","78.125","1124.125","1124.125","white","no","xpyriment","Ich habe die obigen Informationen gelesen und verstanden.","legacy","legacy","0","uniform","0","0","0","undefined","undefined","0","f","2","1","NA","0","1","0","0","0","0","0","0","0","0","41","41","41","0","0","0","NA","0","0","2","0","0","0","2","41","41","41","41","41","Fri Nov  3 11:14:12 2017","Forced-choice identification task with a practice and an experimental phase","yes","NAP_GER_AA_4blocks_noglides.osexp","/Users/aviadalbert/Documents/Academisch/UoC/Dissertation/Experiment/OpenSesame/NAP-FC/NAP_GER_AA_4blocks_noglides","yes","no","sans","no","20","no","black","no","Weiter","yes","768","legacy","31","9","0","/Users/aviadalbert/Documents/Academisch/UoC/Dissertation/Experiment/OpenSesame/NAP-FC/NAP_GER_AA_4blocks_noglides/subject-39.csv","xpyriment","Jazzy James","3.1.9","yes","yes","59a800d99ad5a1025d81bb03","59a801616c613b0251691de0","no","no","0","j","f","space","NA","return","return","j","1087","2151","22702","NA","22362","32485","1087","2","legacy","1024","1","44100","-16","experiment","nval","2","1","1","0","1","eng","39","","odd","4367589","4344351","NA","NA","4369741","4367586","NA","3099262","4367113","3099262","3099262","4254200","4276566","4461418","4459915","4462506","4314035","4309354","4344350","NA","4211922","4242499","4342692","4309119","4367589","4309358","NA","4461418","4461418","NA","NA","4459911","NAP perception","25","35972","32","yes","1024"
"78.7878787879","yes","78.7878787879","1135.93939394","1135.93939394","white","no","xpyriment","Ich habe die obigen Informationen gelesen und verstanden.","legacy","legacy","0","uniform","1","0","0","undefined","undefined","1","j","2","1","NA","0","1","0","0","0","0","0","0","0","0","42","42","42","0","0","0","NA","0","0","2","0","0","0","2","42","42","42","42","42","Fri Nov  3 11:14:12 2017","Forced-choice identification task with a practice and an experimental phase","yes","NAP_GER_AA_4blocks_noglides.osexp","/Users/aviadalbert/Documents/Academisch/UoC/Dissertation/Experiment/OpenSesame/NAP-FC/NAP_GER_AA_4blocks_noglides","yes","no","sans","no","20","no","black","no","Weiter","yes","768","legacy","32","9","0","/Users/aviadalbert/Documents/Academisch/UoC/Dissertation/Experiment/OpenSesame/NAP-FC/NAP_GER_AA_4blocks_noglides/subject-39.csv","xpyriment","Jazzy James","3.1.9","yes","yes","59a800d99ad5a1025d81bb03","59a801616c613b0251691de0","no","no","0","j","f","space","NA","return","return","j","1514","2151","22702","NA","22362","32485","1514","2","legacy","1024","1","44100","-16","experiment","felal","2","1","1","0","1","eng","39","","odd","4367589","4344351","NA","NA","4369741","4367586","NA","3099262","4367113","3099262","3099262","4254200","4276566","4464282","4462779","4465797","4314035","4309354","4344350","NA","4211922","4242499","4342692","4309119","4367589","4309358","NA","4464282","4464282","NA","NA","4462775","NAP perception","26","37486","33","yes","1024"
"79.4117647059","yes","79.4117647059","1139.82352941","1139.82352941","white","no","xpyriment","Ich habe die obigen Informationen gelesen und verstanden.","legacy","legacy","0","uniform","1","0","0","undefined","undefined","1","f","2","1","NA","0","1","0","0","0","0","0","0","0","0","43","43","43","0","0","0","NA","0","0","2","0","0","0","2","43","43","43","43","43","Fri Nov  3 11:14:12 2017","Forced-choice identification task with a practice and an experimental phase","yes","NAP_GER_AA_4blocks_noglides.osexp","/Users/aviadalbert/Documents/Academisch/UoC/Dissertation/Experiment/OpenSesame/NAP-FC/NAP_GER_AA_4blocks_noglides","yes","no","sans","no","20","no","black","no","Weiter","yes","768","legacy","33","9","0","/Users/aviadalbert/Documents/Academisch/UoC/Dissertation/Experiment/OpenSesame/NAP-FC/NAP_GER_AA_4blocks_noglides/subject-39.csv","xpyriment","Jazzy James","3.1.9","yes","yes","59a800d99ad5a1025d81bb03","59a801616c613b0251691de0","no","no","0","f","f","space","NA","return","return","f","1268","2151","22702","NA","22362","32485","1268","2","legacy","1024","1","44100","-16","experiment","vnal","2","1","1","0","1","eng","39","","odd","4367589","4344351","NA","NA","4369741","4367586","NA","3099262","4367113","3099262","3099262","4254200","4276566","4467578","4466071","4468848","4314035","4309354","4344350","NA","4211922","4242499","4342692","4309119","4367589","4309358","NA","4467578","4467578","NA","NA","4466067","NAP perception","27","38754","34","yes","1024"
"80","yes","80","1163.71428571","1163.71428571","white","no","xpyriment","Ich habe die obigen Informationen gelesen und verstanden.","legacy","legacy","0","uniform","1","0","0","undefined","undefined","1","f","2","1","NA","0","1","0","0","0","0","0","0","0","0","44","44","44","0","0","0","NA","0","0","2","0","0","0","2","44","44","44","44","44","Fri Nov  3 11:14:12 2017","Forced-choice identification task with a practice and an experimental phase","yes","NAP_GER_AA_4blocks_noglides.osexp","/Users/aviadalbert/Documents/Academisch/UoC/Dissertation/Experiment/OpenSesame/NAP-FC/NAP_GER_AA_4blocks_noglides","yes","no","sans","no","20","no","black","no","Weiter","yes","768","legacy","34","9","0","/Users/aviadalbert/Documents/Academisch/UoC/Dissertation/Experiment/OpenSesame/NAP-FC/NAP_GER_AA_4blocks_noglides/subject-39.csv","xpyriment","Jazzy James","3.1.9","yes","yes","59a800d99ad5a1025d81bb03","59a801616c613b0251691de0","no","no","0","f","f","space","NA","return","return","f","1976","2151","22702","NA","22362","32485","1976","2","legacy","1024","1","44100","-16","experiment","ʃfal","2","1","1","0","1","eng","39","","odd","4367589","4344351","NA","NA","4369741","4367586","NA","3099262","4367113","3099262","3099262","4254200","4276566","4470623","4469118","4472600","4314035","4309354","4344350","NA","4211922","4242499","4342692","4309119","4367589","4309358","NA","4470622","4470622","NA","NA","4469114","NAP perception","28","40730","35","yes","1024"
"80.5555555556","yes","80.5555555556","1163.91666667","1163.91666667","white","no","xpyriment","Ich habe die obigen Informationen gelesen und verstanden.","legacy","legacy","0","uniform","1","0","0","undefined","undefined","1","f","2","1","NA","0","1","0","0","0","0","0","0","0","0","45","45","45","0","0","0","NA","0","0","2","0","0","0","2","45","45","45","45","45","Fri Nov  3 11:14:12 2017","Forced-choice identification task with a practice and an experimental phase","yes","NAP_GER_AA_4blocks_noglides.osexp","/Users/aviadalbert/Documents/Academisch/UoC/Dissertation/Experiment/OpenSesame/NAP-FC/NAP_GER_AA_4blocks_noglides","yes","no","sans","no","20","no","black","no","Weiter","yes","768","legacy","35","9","0","/Users/aviadalbert/Documents/Academisch/UoC/Dissertation/Experiment/OpenSesame/NAP-FC/NAP_GER_AA_4blocks_noglides/subject-39.csv","xpyriment","Jazzy James","3.1.9","yes","yes","59a800d99ad5a1025d81bb03","59a801616c613b0251691de0","no","no","0","f","f","space","NA","return","return","f","1171","2151","22702","NA","22362","32485","1171","2","legacy","1024","1","44100","-16","experiment","nfal","2","1","1","0","1","eng","39","","odd","4367589","4344351","NA","NA","4369741","4367586","NA","3099262","4367113","3099262","3099262","4254200","4276566","4474381","4472878","4475554","4314035","4309354","4344350","NA","4211922","4242499","4342692","4309119","4367589","4309358","NA","4474381","4474381","NA","NA","4472874","NAP perception","29","41901","36","yes","1024"
"81.0810810811","yes","81.0810810811","1166.21621622","1166.21621622","white","no","xpyriment","Ich habe die obigen Informationen gelesen und verstanden.","legacy","legacy","0","uniform","1","0","0","undefined","undefined","1","f","2","1","NA","0","1","0","0","0","0","0","0","0","0","46","46","46","0","0","0","NA","0","0","2","0","0","0","2","46","46","46","46","46","Fri Nov  3 11:14:12 2017","Forced-choice identification task with a practice and an experimental phase","yes","NAP_GER_AA_4blocks_noglides.osexp","/Users/aviadalbert/Documents/Academisch/UoC/Dissertation/Experiment/OpenSesame/NAP-FC/NAP_GER_AA_4blocks_noglides","yes","no","sans","no","20","no","black","no","Weiter","yes","768","legacy","36","9","0","/Users/aviadalbert/Documents/Academisch/UoC/Dissertation/Experiment/OpenSesame/NAP-FC/NAP_GER_AA_4blocks_noglides/subject-39.csv","xpyriment","Jazzy James","3.1.9","yes","yes","59a800d99ad5a1025d81bb03","59a801616c613b0251691de0","no","no","0","f","f","space","NA","return","return","f","1249","2151","22702","NA","22362","32485","1249","2","legacy","1024","1","44100","-16","experiment","ʃmal","2","1","1","0","1","eng","39","","odd","4367589","4344351","NA","NA","4369741","4367586","NA","3099262","4367113","3099262","3099262","4254200","4276566","4477332","4475828","4478583","4314035","4309354","4344350","NA","4211922","4242499","4342692","4309119","4367589","4309358","NA","4477332","4477332","NA","NA","4475825","NAP perception","30","43150","37","yes","1024"
"78.9473684211","yes","78.9473684211","1160.47368421","1160.47368421","white","no","xpyriment","Ich habe die obigen Informationen gelesen und verstanden.","legacy","legacy","0","uniform","0","0","0","undefined","undefined","0","f","2","1","NA","0","1","0","0","0","0","0","0","0","0","47","47","47","0","0","0","NA","0","0","2","0","0","0","2","47","47","47","47","47","Fri Nov  3 11:14:12 2017","Forced-choice identification task with a practice and an experimental phase","yes","NAP_GER_AA_4blocks_noglides.osexp","/Users/aviadalbert/Documents/Academisch/UoC/Dissertation/Experiment/OpenSesame/NAP-FC/NAP_GER_AA_4blocks_noglides","yes","no","sans","no","20","no","black","no","Weiter","yes","768","legacy","37","9","0","/Users/aviadalbert/Documents/Academisch/UoC/Dissertation/Experiment/OpenSesame/NAP-FC/NAP_GER_AA_4blocks_noglides/subject-39.csv","xpyriment","Jazzy James","3.1.9","yes","yes","59a800d99ad5a1025d81bb03","59a801616c613b0251691de0","no","no","0","j","f","space","NA","return","return","j","948","2151","22702","NA","22362","32485","948","2","legacy","1024","1","44100","-16","experiment","lpal","2","1","1","0","1","eng","39","","odd","4367589","4344351","NA","NA","4369741","4367586","NA","3099262","4367113","3099262","3099262","4254200","4276566","4480354","4478851","4481303","4314035","4309354","4344350","NA","4211922","4242499","4342692","4309119","4367589","4309358","NA","4480354","4480354","NA","NA","4478847","NAP perception","30","44098","38","yes","1024"
"79.4871794872","yes","79.4871794872","1157.61538462","1157.61538462","white","no","xpyriment","Ich habe die obigen Informationen gelesen und verstanden.","legacy","legacy","0","uniform","1","0","0","undefined","undefined","1","f","2","1","NA","0","1","0","0","0","0","0","0","0","0","48","48","48","0","0","0","NA","0","0","2","0","0","0","2","48","48","48","48","48","Fri Nov  3 11:14:12 2017","Forced-choice identification task with a practice and an experimental phase","yes","NAP_GER_AA_4blocks_noglides.osexp","/Users/aviadalbert/Documents/Academisch/UoC/Dissertation/Experiment/OpenSesame/NAP-FC/NAP_GER_AA_4blocks_noglides","yes","no","sans","no","20","no","black","no","Weiter","yes","768","legacy","38","9","0","/Users/aviadalbert/Documents/Academisch/UoC/Dissertation/Experiment/OpenSesame/NAP-FC/NAP_GER_AA_4blocks_noglides/subject-39.csv","xpyriment","Jazzy James","3.1.9","yes","yes","59a800d99ad5a1025d81bb03","59a801616c613b0251691de0","no","no","0","f","f","space","NA","return","return","f","1049","2151","22702","NA","22362","32485","1049","2","legacy","1024","1","44100","-16","experiment","smal","2","1","1","0","1","eng","39","","odd","4367589","4344351","NA","NA","4369741","4367586","NA","3099262","4367113","3099262","3099262","4254200","4276566","4483092","4481589","4484142","4314035","4309354","4344350","NA","4211922","4242499","4342692","4309119","4367589","4309358","NA","4483092","4483092","NA","NA","4481585","NAP perception","31","45147","39","yes","1024"
"80","yes","80","1176.1","1176.1","white","no","xpyriment","Ich habe die obigen Informationen gelesen und verstanden.","legacy","legacy","0","uniform","1","0","0","undefined","undefined","1","j","2","1","NA","0","1","0","0","0","0","0","0","0","0","49","49","49","0","0","0","NA","0","0","2","0","0","0","2","49","49","49","49","49","Fri Nov  3 11:14:12 2017","Forced-choice identification task with a practice and an experimental phase","yes","NAP_GER_AA_4blocks_noglides.osexp","/Users/aviadalbert/Documents/Academisch/UoC/Dissertation/Experiment/OpenSesame/NAP-FC/NAP_GER_AA_4blocks_noglides","yes","no","sans","no","20","no","black","no","Weiter","yes","768","legacy","39","9","0","/Users/aviadalbert/Documents/Academisch/UoC/Dissertation/Experiment/OpenSesame/NAP-FC/NAP_GER_AA_4blocks_noglides/subject-39.csv","xpyriment","Jazzy James","3.1.9","yes","yes","59a800d99ad5a1025d81bb03","59a801616c613b0251691de0","no","no","0","j","f","space","NA","return","return","j","1897","2151","22702","NA","22362","32485","1897","2","legacy","1024","1","44100","-16","experiment","vezal","2","1","1","0","1","eng","39","","odd","4367589","4344351","NA","NA","4369741","4367586","NA","3099262","4367113","3099262","3099262","4254200","4276566","4485922","4484416","4487820","4314035","4309354","4344350","NA","4211922","4242499","4342692","4309119","4367589","4309358","NA","4485922","4485922","NA","NA","4484412","NAP perception","32","47044","40","yes","1024"
"80.487804878","yes","80.487804878","1174.02439024","1174.02439024","white","no","xpyriment","Ich habe die obigen Informationen gelesen und verstanden.","legacy","legacy","0","uniform","1","0","0","undefined","undefined","1","j","2","1","NA","0","1","0","0","0","0","0","0","0","0","50","50","50","0","0","0","NA","0","0","2","0","0","0","2","50","50","50","50","50","Fri Nov  3 11:14:12 2017","Forced-choice identification task with a practice and an experimental phase","yes","NAP_GER_AA_4blocks_noglides.osexp","/Users/aviadalbert/Documents/Academisch/UoC/Dissertation/Experiment/OpenSesame/NAP-FC/NAP_GER_AA_4blocks_noglides","yes","no","sans","no","20","no","black","no","Weiter","yes","768","legacy","40","9","0","/Users/aviadalbert/Documents/Academisch/UoC/Dissertation/Experiment/OpenSesame/NAP-FC/NAP_GER_AA_4blocks_noglides/subject-39.csv","xpyriment","Jazzy James","3.1.9","yes","yes","59a800d99ad5a1025d81bb03","59a801616c613b0251691de0","no","no","0","j","f","space","NA","return","return","j","1091","2151","22702","NA","22362","32485","1091","2","legacy","1024","1","44100","-16","experiment","espal","2","1","1","0","1","eng","39","","odd","4367589","4344351","NA","NA","4369741","4367586","NA","3099262","4367113","3099262","3099262","4254200","4276566","4489597","4488092","4490690","4314035","4309354","4344350","NA","4211922","4242499","4342692","4309119","4367589","4309358","NA","4489596","4489597","NA","NA","4488088","NAP perception","33","48135","41","yes","1024"
"80.9523809524","yes","80.9523809524","1174.66666667","1174.66666667","white","no","xpyriment","Ich habe die obigen Informationen gelesen und verstanden.","legacy","legacy","0","uniform","1","0","0","undefined","undefined","1","j","2","1","NA","0","1","0","0","0","0","0","0","0","0","51","51","51","0","0","0","NA","0","0","2","0","0","0","2","51","51","51","51","51","Fri Nov  3 11:14:12 2017","Forced-choice identification task with a practice and an experimental phase","yes","NAP_GER_AA_4blocks_noglides.osexp","/Users/aviadalbert/Documents/Academisch/UoC/Dissertation/Experiment/OpenSesame/NAP-FC/NAP_GER_AA_4blocks_noglides","yes","no","sans","no","20","no","black","no","Weiter","yes","768","legacy","41","9","0","/Users/aviadalbert/Documents/Academisch/UoC/Dissertation/Experiment/OpenSesame/NAP-FC/NAP_GER_AA_4blocks_noglides/subject-39.csv","xpyriment","Jazzy James","3.1.9","yes","yes","59a800d99ad5a1025d81bb03","59a801616c613b0251691de0","no","no","0","j","f","space","NA","return","return","j","1201","2151","22702","NA","22362","32485","1201","2","legacy","1024","1","44100","-16","experiment","eflal","2","1","1","0","1","eng","39","","odd","4367589","4344351","NA","NA","4369741","4367586","NA","3099262","4367113","3099262","3099262","4254200","4276566","4492470","4490964","4493672","4314035","4309354","4344350","NA","4211922","4242499","4342692","4309119","4367589","4309358","NA","4492470","4492470","NA","NA","4490960","NAP perception","34","49336","42","yes","1024"
"81.3953488372","yes","81.3953488372","1168.81395349","1168.81395349","white","no","xpyriment","Ich habe die obigen Informationen gelesen und verstanden.","legacy","legacy","0","uniform","1","0","0","undefined","undefined","1","j","2","1","NA","0","1","0","0","0","0","0","0","0","0","52","52","52","0","0","0","NA","0","0","2","0","0","0","2","52","52","52","52","52","Fri Nov  3 11:14:12 2017","Forced-choice identification task with a practice and an experimental phase","yes","NAP_GER_AA_4blocks_noglides.osexp","/Users/aviadalbert/Documents/Academisch/UoC/Dissertation/Experiment/OpenSesame/NAP-FC/NAP_GER_AA_4blocks_noglides","yes","no","sans","no","20","no","black","no","Weiter","yes","768","legacy","42","9","0","/Users/aviadalbert/Documents/Academisch/UoC/Dissertation/Experiment/OpenSesame/NAP-FC/NAP_GER_AA_4blocks_noglides/subject-39.csv","xpyriment","Jazzy James","3.1.9","yes","yes","59a800d99ad5a1025d81bb03","59a801616c613b0251691de0","no","no","0","j","f","space","NA","return","return","j","923","2151","22702","NA","22362","32485","923","2","legacy","1024","1","44100","-16","experiment","ʃemal","2","1","1","0","1","eng","39","","odd","4367589","4344351","NA","NA","4369741","4367586","NA","3099262","4367113","3099262","3099262","4254200","4276566","4495457","4493953","4496381","4314035","4309354","4344350","NA","4211922","4242499","4342692","4309119","4367589","4309358","NA","4495457","4495457","NA","NA","4493949","NAP perception","35","50259","43","yes","1024"
"81.8181818182","yes","81.8181818182","1165.84090909","1165.84090909","white","no","xpyriment","Ich habe die obigen Informationen gelesen und verstanden.","legacy","legacy","0","uniform","1","0","0","undefined","undefined","1","f","2","1","NA","0","1","0","0","0","0","0","0","0","0","53","53","53","0","0","0","NA","0","0","2","0","0","0","2","53","53","53","53","53","Fri Nov  3 11:14:12 2017","Forced-choice identification task with a practice and an experimental phase","yes","NAP_GER_AA_4blocks_noglides.osexp","/Users/aviadalbert/Documents/Academisch/UoC/Dissertation/Experiment/OpenSesame/NAP-FC/NAP_GER_AA_4blocks_noglides","yes","no","sans","no","20","no","black","no","Weiter","yes","768","legacy","43","9","0","/Users/aviadalbert/Documents/Academisch/UoC/Dissertation/Experiment/OpenSesame/NAP-FC/NAP_GER_AA_4blocks_noglides/subject-39.csv","xpyriment","Jazzy James","3.1.9","yes","yes","59a800d99ad5a1025d81bb03","59a801616c613b0251691de0","no","no","0","f","f","space","NA","return","return","f","1038","2151","22702","NA","22362","32485","1038","2","legacy","1024","1","44100","-16","experiment","zmal","2","1","1","0","1","eng","39","","odd","4367589","4344351","NA","NA","4369741","4367586","NA","3099262","4367113","3099262","3099262","4254200","4276566","4498149","4496646","4499189","4314035","4309354","4344350","NA","4211922","4242499","4342692","4309119","4367589","4309358","NA","4498149","4498149","NA","NA","4496642","NAP perception","36","51297","44","yes","1024"
"82.2222222222","yes","82.2222222222","1163.26666667","1163.26666667","white","no","xpyriment","Ich habe die obigen Informationen gelesen und verstanden.","legacy","legacy","0","uniform","1","0","0","undefined","undefined","1","j","2","1","NA","0","1","0","0","0","0","0","0","0","0","54","54","54","0","0","0","NA","0","0","2","0","0","0","2","54","54","54","54","54","Fri Nov  3 11:14:12 2017","Forced-choice identification task with a practice and an experimental phase","yes","NAP_GER_AA_4blocks_noglides.osexp","/Users/aviadalbert/Documents/Academisch/UoC/Dissertation/Experiment/OpenSesame/NAP-FC/NAP_GER_AA_4blocks_noglides","yes","no","sans","no","20","no","black","no","Weiter","yes","768","legacy","44","9","0","/Users/aviadalbert/Documents/Academisch/UoC/Dissertation/Experiment/OpenSesame/NAP-FC/NAP_GER_AA_4blocks_noglides/subject-39.csv","xpyriment","Jazzy James","3.1.9","yes","yes","59a800d99ad5a1025d81bb03","59a801616c613b0251691de0","no","no","0","j","f","space","NA","return","return","j","1050","2151","22702","NA","22362","32485","1050","2","legacy","1024","1","44100","-16","experiment","emzal","2","1","1","0","1","eng","39","","odd","4367589","4344351","NA","NA","4369741","4367586","NA","3099262","4367113","3099262","3099262","4254200","4276566","4500969","4499464","4502021","4314035","4309354","4344350","NA","4211922","4242499","4342692","4309119","4367589","4309358","NA","4500969","4500969","NA","NA","4499460","NAP perception","37","52347","45","yes","1024"
"82.6086956522","yes","82.6086956522","1169.95652174","1169.95652174","white","no","xpyriment","Ich habe die obigen Informationen gelesen und verstanden.","legacy","legacy","0","uniform","1","0","0","undefined","undefined","1","j","2","1","NA","0","1","0","0","0","0","0","0","0","0","55","55","55","0","0","0","NA","0","0","2","0","0","0","2","55","55","55","55","55","Fri Nov  3 11:14:12 2017","Forced-choice identification task with a practice and an experimental phase","yes","NAP_GER_AA_4blocks_noglides.osexp","/Users/aviadalbert/Documents/Academisch/UoC/Dissertation/Experiment/OpenSesame/NAP-FC/NAP_GER_AA_4blocks_noglides","yes","no","sans","no","20","no","black","no","Weiter","yes","768","legacy","45","9","0","/Users/aviadalbert/Documents/Academisch/UoC/Dissertation/Experiment/OpenSesame/NAP-FC/NAP_GER_AA_4blocks_noglides/subject-39.csv","xpyriment","Jazzy James","3.1.9","yes","yes","59a800d99ad5a1025d81bb03","59a801616c613b0251691de0","no","no","0","j","f","space","NA","return","return","j","1471","2151","22702","NA","22362","32485","1471","2","legacy","1024","1","44100","-16","experiment","emlal","2","1","1","0","1","eng","39","","odd","4367589","4344351","NA","NA","4369741","4367586","NA","3099262","4367113","3099262","3099262","4254200","4276566","4503783","4502280","4505256","4314035","4309354","4344350","NA","4211922","4242499","4342692","4309119","4367589","4309358","NA","4503783","4503783","NA","NA","4502276","NAP perception","38","53818","46","yes","1024"
"82.9787234043","yes","82.9787234043","1166.76595745","1166.76595745","white","no","xpyriment","Ich habe die obigen Informationen gelesen und verstanden.","legacy","legacy","0","uniform","1","0","0","undefined","undefined","1","j","2","1","NA","0","1","0","0","0","0","0","0","0","0","56","56","56","0","0","0","NA","0","0","2","0","0","0","2","56","56","56","56","56","Fri Nov  3 11:14:12 2017","Forced-choice identification task with a practice and an experimental phase","yes","NAP_GER_AA_4blocks_noglides.osexp","/Users/aviadalbert/Documents/Academisch/UoC/Dissertation/Experiment/OpenSesame/NAP-FC/NAP_GER_AA_4blocks_noglides","yes","no","sans","no","20","no","black","no","Weiter","yes","768","legacy","46","9","0","/Users/aviadalbert/Documents/Academisch/UoC/Dissertation/Experiment/OpenSesame/NAP-FC/NAP_GER_AA_4blocks_noglides/subject-39.csv","xpyriment","Jazzy James","3.1.9","yes","yes","59a800d99ad5a1025d81bb03","59a801616c613b0251691de0","no","no","0","j","f","space","NA","return","return","j","1020","2151","22702","NA","22362","32485","1020","2","legacy","1024","1","44100","-16","experiment","melal","2","1","1","0","1","eng","39","","odd","4367589","4344351","NA","NA","4369741","4367586","NA","3099262","4367113","3099262","3099262","4254200","4276566","4507022","4505519","4508045","4314035","4309354","4344350","NA","4211922","4242499","4342692","4309119","4367589","4309358","NA","4507022","4507022","NA","NA","4505515","NAP perception","39","54838","47","yes","1024"
"83.3333333333","yes","83.3333333333","1166.04166667","1166.04166667","white","no","xpyriment","Ich habe die obigen Informationen gelesen und verstanden.","legacy","legacy","0","uniform","1","0","0","undefined","undefined","1","f","2","1","NA","0","1","0","0","0","0","0","0","0","0","57","57","57","0","0","0","NA","0","0","2","0","0","0","2","57","57","57","57","57","Fri Nov  3 11:14:12 2017","Forced-choice identification task with a practice and an experimental phase","yes","NAP_GER_AA_4blocks_noglides.osexp","/Users/aviadalbert/Documents/Academisch/UoC/Dissertation/Experiment/OpenSesame/NAP-FC/NAP_GER_AA_4blocks_noglides","yes","no","sans","no","20","no","black","no","Weiter","yes","768","legacy","47","9","0","/Users/aviadalbert/Documents/Academisch/UoC/Dissertation/Experiment/OpenSesame/NAP-FC/NAP_GER_AA_4blocks_noglides/subject-39.csv","xpyriment","Jazzy James","3.1.9","yes","yes","59a800d99ad5a1025d81bb03","59a801616c613b0251691de0","no","no","0","f","f","space","NA","return","return","f","1132","2151","22702","NA","22362","32485","1132","2","legacy","1024","1","44100","-16","experiment","flal","2","1","1","0","1","eng","39","","odd","4367589","4344351","NA","NA","4369741","4367586","NA","3099262","4367113","3099262","3099262","4254200","4276566","4509829","4508326","4510963","4314035","4309354","4344350","NA","4211922","4242499","4342692","4309119","4367589","4309358","NA","4509829","4509829","NA","NA","4508322","NAP perception","40","55970","48","yes","1024"
"83.6734693878","yes","83.6734693878","1165.95918367","1165.95918367","white","no","xpyriment","Ich habe die obigen Informationen gelesen und verstanden.","legacy","legacy","0","uniform","1","0","0","undefined","undefined","1","j","2","1","NA","0","1","0","0","0","0","0","0","0","0","58","58","58","0","0","0","NA","0","0","2","0","0","0","2","58","58","58","58","58","Fri Nov  3 11:14:12 2017","Forced-choice identification task with a practice and an experimental phase","yes","NAP_GER_AA_4blocks_noglides.osexp","/Users/aviadalbert/Documents/Academisch/UoC/Dissertation/Experiment/OpenSesame/NAP-FC/NAP_GER_AA_4blocks_noglides","yes","no","sans","no","20","no","black","no","Weiter","yes","768","legacy","48","9","0","/Users/aviadalbert/Documents/Academisch/UoC/Dissertation/Experiment/OpenSesame/NAP-FC/NAP_GER_AA_4blocks_noglides/subject-39.csv","xpyriment","Jazzy James","3.1.9","yes","yes","59a800d99ad5a1025d81bb03","59a801616c613b0251691de0","no","no","0","j","f","space","NA","return","return","j","1162","2151","22702","NA","22362","32485","1162","2","legacy","1024","1","44100","-16","experiment","nemal","2","1","1","0","1","eng","39","","odd","4367589","4344351","NA","NA","4369741","4367586","NA","3099262","4367113","3099262","3099262","4254200","4276566","4512733","4511228","4513897","4314035","4309354","4344350","NA","4211922","4242499","4342692","4309119","4367589","4309358","NA","4512733","4512733","NA","NA","4511224","NAP perception","41","57132","49","yes","1024"
"84","yes","84","1168.96","1168.96","white","no","xpyriment","Ich habe die obigen Informationen gelesen und verstanden.","legacy","legacy","0","uniform","1","0","0","undefined","undefined","1","j","2","1","NA","0","1","0","0","0","0","0","0","0","0","59","59","59","0","0","0","NA","0","0","2","0","0","0","2","59","59","59","59","59","Fri Nov  3 11:14:12 2017","Forced-choice identification task with a practice and an experimental phase","yes","NAP_GER_AA_4blocks_noglides.osexp","/Users/aviadalbert/Documents/Academisch/UoC/Dissertation/Experiment/OpenSesame/NAP-FC/NAP_GER_AA_4blocks_noglides","yes","no","sans","no","20","no","black","no","Weiter","yes","768","legacy","49","9","0","/Users/aviadalbert/Documents/Academisch/UoC/Dissertation/Experiment/OpenSesame/NAP-FC/NAP_GER_AA_4blocks_noglides/subject-39.csv","xpyriment","Jazzy James","3.1.9","yes","yes","59a800d99ad5a1025d81bb03","59a801616c613b0251691de0","no","no","0","j","f","space","NA","return","return","j","1316","2151","22702","NA","22362","32485","1316","2","legacy","1024","1","44100","-16","experiment","elkal","2","1","1","0","1","eng","39","","odd","4367589","4344351","NA","NA","4369741","4367586","NA","3099262","4367113","3099262","3099262","4254200","4276566","4515679","4514175","4516997","4314035","4309354","4344350","NA","4211922","4242499","4342692","4309119","4367589","4309358","NA","4515679","4515679","NA","NA","4514172","NAP perception","42","58448","50","yes","1024"
"84.3137254902","yes","84.3137254902","1167.70588235","1167.70588235","white","no","xpyriment","Ich habe die obigen Informationen gelesen und verstanden.","legacy","legacy","0","uniform","1","0","0","undefined","undefined","1","j","2","1","NA","0","1","0","0","0","0","0","0","0","0","60","60","60","0","0","0","NA","0","0","2","0","0","0","2","60","60","60","60","60","Fri Nov  3 11:14:12 2017","Forced-choice identification task with a practice and an experimental phase","yes","NAP_GER_AA_4blocks_noglides.osexp","/Users/aviadalbert/Documents/Academisch/UoC/Dissertation/Experiment/OpenSesame/NAP-FC/NAP_GER_AA_4blocks_noglides","yes","no","sans","no","20","no","black","no","Weiter","yes","768","legacy","50","9","0","/Users/aviadalbert/Documents/Academisch/UoC/Dissertation/Experiment/OpenSesame/NAP-FC/NAP_GER_AA_4blocks_noglides/subject-39.csv","xpyriment","Jazzy James","3.1.9","yes","yes","59a800d99ad5a1025d81bb03","59a801616c613b0251691de0","no","no","0","j","f","space","NA","return","return","j","1105","2151","22702","NA","22362","32485","1105","2","legacy","1024","1","44100","-16","experiment","eʃpal","2","1","1","0","1","eng","39","","odd","4367589","4344351","NA","NA","4369741","4367586","NA","3099262","4367113","3099262","3099262","4254200","4276566","4518767","4517260","4519873","4314035","4309354","4344350","NA","4211922","4242499","4342692","4309119","4367589","4309358","NA","4518766","4518767","NA","NA","4517256","NAP perception","43","59553","51","yes","1024"
"84.6153846154","yes","84.6153846154","1167.01923077","1167.01923077","white","no","xpyriment","Ich habe die obigen Informationen gelesen und verstanden.","legacy","legacy","0","uniform","1","0","0","undefined","undefined","1","f","2","1","NA","0","1","0","0","0","0","0","0","0","0","61","61","61","0","0","0","NA","0","0","2","0","0","0","2","61","61","61","61","61","Fri Nov  3 11:14:12 2017","Forced-choice identification task with a practice and an experimental phase","yes","NAP_GER_AA_4blocks_noglides.osexp","/Users/aviadalbert/Documents/Academisch/UoC/Dissertation/Experiment/OpenSesame/NAP-FC/NAP_GER_AA_4blocks_noglides","yes","no","sans","no","20","no","black","no","Weiter","yes","768","legacy","51","9","0","/Users/aviadalbert/Documents/Academisch/UoC/Dissertation/Experiment/OpenSesame/NAP-FC/NAP_GER_AA_4blocks_noglides/subject-39.csv","xpyriment","Jazzy James","3.1.9","yes","yes","59a800d99ad5a1025d81bb03","59a801616c613b0251691de0","no","no","0","f","f","space","NA","return","return","f","1132","2151","22702","NA","22362","32485","1132","2","legacy","1024","1","44100","-16","experiment","npal","2","1","1","0","1","eng","39","","odd","4367589","4344351","NA","NA","4369741","4367586","NA","3099262","4367113","3099262","3099262","4254200","4276566","4521658","4520153","4522791","4314035","4309354","4344350","NA","4211922","4242499","4342692","4309119","4367589","4309358","NA","4521657","4521658","NA","NA","4520149","NAP perception","44","60685","52","yes","1024"
"83.0188679245","yes","83.0188679245","1167.73584906","1167.73584906","white","no","xpyriment","Ich habe die obigen Informationen gelesen und verstanden.","legacy","legacy","0","uniform","0","0","0","undefined","undefined","0","f","2","1","NA","0","1","0","0","0","0","0","0","0","0","62","62","62","0","0","0","NA","0","0","2","0","0","0","2","62","62","62","62","62","Fri Nov  3 11:14:12 2017","Forced-choice identification task with a practice and an experimental phase","yes","NAP_GER_AA_4blocks_noglides.osexp","/Users/aviadalbert/Documents/Academisch/UoC/Dissertation/Experiment/OpenSesame/NAP-FC/NAP_GER_AA_4blocks_noglides","yes","no","sans","no","20","no","black","no","Weiter","yes","768","legacy","52","9","0","/Users/aviadalbert/Documents/Academisch/UoC/Dissertation/Experiment/OpenSesame/NAP-FC/NAP_GER_AA_4blocks_noglides/subject-39.csv","xpyriment","Jazzy James","3.1.9","yes","yes","59a800d99ad5a1025d81bb03","59a801616c613b0251691de0","no","no","0","j","f","space","NA","return","return","j","1205","2151","22702","NA","22362","32485","1205","2","legacy","1024","1","44100","-16","experiment","lval","2","1","1","0","1","eng","39","","odd","4367589","4344351","NA","NA","4369741","4367586","NA","3099262","4367113","3099262","3099262","4254200","4276566","4524562","4523058","4525769","4314035","4309354","4344350","NA","4211922","4242499","4342692","4309119","4367589","4309358","NA","4524562","4524562","NA","NA","4523055","NAP perception","44","61890","53","yes","1024"
"83.3333333333","yes","83.3333333333","1168.27777778","1168.27777778","white","no","xpyriment","Ich habe die obigen Informationen gelesen und verstanden.","legacy","legacy","0","uniform","1","0","0","undefined","undefined","1","j","2","1","NA","0","1","0","0","0","0","0","0","0","0","63","63","63","0","0","0","NA","0","0","2","0","0","0","2","63","63","63","63","63","Fri Nov  3 11:14:12 2017","Forced-choice identification task with a practice and an experimental phase","yes","NAP_GER_AA_4blocks_noglides.osexp","/Users/aviadalbert/Documents/Academisch/UoC/Dissertation/Experiment/OpenSesame/NAP-FC/NAP_GER_AA_4blocks_noglides","yes","no","sans","no","20","no","black","no","Weiter","yes","768","legacy","53","9","0","/Users/aviadalbert/Documents/Academisch/UoC/Dissertation/Experiment/OpenSesame/NAP-FC/NAP_GER_AA_4blocks_noglides/subject-39.csv","xpyriment","Jazzy James","3.1.9","yes","yes","59a800d99ad5a1025d81bb03","59a801616c613b0251691de0","no","no","0","j","f","space","NA","return","return","j","1197","2151","22702","NA","22362","32485","1197","2","legacy","1024","1","44100","-16","experiment","enfal","2","1","1","0","1","eng","39","","odd","4367589","4344351","NA","NA","4369741","4367586","NA","3099262","4367113","3099262","3099262","4254200","4276566","4527536","4526031","4528735","4314035","4309354","4344350","NA","4211922","4242499","4342692","4309119","4367589","4309358","NA","4527536","4527536","NA","NA","4526027","NAP perception","45","63087","54","yes","1024"
"83.6363636364","yes","83.6363636364","1167.89090909","1167.89090909","white","no","xpyriment","Ich habe die obigen Informationen gelesen und verstanden.","legacy","legacy","0","uniform","1","0","0","undefined","undefined","1","j","2","1","NA","0","1","0","0","0","0","0","0","0","0","64","64","64","0","0","0","NA","0","0","2","0","0","0","2","64","64","64","64","64","Fri Nov  3 11:14:12 2017","Forced-choice identification task with a practice and an experimental phase","yes","NAP_GER_AA_4blocks_noglides.osexp","/Users/aviadalbert/Documents/Academisch/UoC/Dissertation/Experiment/OpenSesame/NAP-FC/NAP_GER_AA_4blocks_noglides","yes","no","sans","no","20","no","black","no","Weiter","yes","768","legacy","54","9","0","/Users/aviadalbert/Documents/Academisch/UoC/Dissertation/Experiment/OpenSesame/NAP-FC/NAP_GER_AA_4blocks_noglides/subject-39.csv","xpyriment","Jazzy James","3.1.9","yes","yes","59a800d99ad5a1025d81bb03","59a801616c613b0251691de0","no","no","0","j","f","space","NA","return","return","j","1147","2151","22702","NA","22362","32485","1147","2","legacy","1024","1","44100","-16","experiment","emsal","2","1","1","0","1","eng","39","","odd","4367589","4344351","NA","NA","4369741","4367586","NA","3099262","4367113","3099262","3099262","4254200","4276566","4530517","4529012","4531666","4314035","4309354","4344350","NA","4211922","4242499","4342692","4309119","4367589","4309358","NA","4530517","4530517","NA","NA","4529008","NAP perception","46","64234","55","yes","1024"
