"acc","accept_status","accuracy","average_response_time","avg_rt","background","bidi","canvas_backend","checkbox_status","clock_backend","color_backend","compensation","coordinates","correct","correct_block_activation","correct_block_exit","correct_instructions_1","correct_instructions_2","correct_keyboard_response","correct_response","count_block_activation","count_block_exit","count_block_info_QA","count_cont_e_block_message","count_e_block_loop","count_e_block_sequence","count_end_of_experiment","count_experiment","count_experimental_loop","count_form_consent","count_info_forms","count_instructions_1","count_instructions_2","count_keyboard_response","count_listen_message","count_logger","count_p_block_loop","count_p_block_sequence","count_p_feedback","count_pause_feedback","count_personal_details_form_1","count_personal_details_form_2","count_post_loop_blank","count_practice_loop","count_pre_e_block_message","count_pre_p_block_message","count_reset_feedback","count_stimulus_image","count_stimulus_sound","count_timeout_message","count_timeout_sound","count_trial_sequence","datetime","description","disable_garbage_collection","experiment_file","experiment_path","expyriment_opengl","font_bold","font_family","font_italic","font_size","font_underline","foreground","form_clicks","form_response","fullscreen","height","keyboard_backend","live_row","live_row_p_block_loop","live_row_practice_loop","logfile","mouse_backend","opensesame_codename","opensesame_version","osf_always_upload_data","osf_always_upload_experiment","osf_datanode_id","osf_id","practice","pygame_doublebuf","repeat_cycle","response","response_block_activation","response_block_exit","response_block_info_QA","response_instructions_1","response_instructions_2","response_keyboard_response","response_time","response_time_block_activation","response_time_block_exit","response_time_block_info_QA","response_time_instructions_1","response_time_instructions_2","response_time_keyboard_response","round_decimals","sampler_backend","sound_buf_size","sound_channels","sound_freq","sound_sample_size","start","stimulus","subject_age","subject_education","subject_gender","subject_german_native","subject_handedness","subject_language_other","subject_nr","subject_other_native_lang","subject_parity","time_block_activation","time_block_exit","time_block_info_QA","time_cont_e_block_message","time_e_block_loop","time_e_block_sequence","time_end_of_experiment","time_experiment","time_experimental_loop","time_form_consent","time_info_forms","time_instructions_1","time_instructions_2","time_keyboard_response","time_listen_message","time_logger","time_p_block_loop","time_p_block_sequence","time_p_feedback","time_pause_feedback","time_personal_details_form_1","time_personal_details_form_2","time_post_loop_blank","time_practice_loop","time_pre_e_block_message","time_pre_p_block_message","time_reset_feedback","time_stimulus_image","time_stimulus_sound","time_timeout_message","time_timeout_sound","time_trial_sequence","title","total_correct","total_response_time","total_responses","uniform_coordinates","width"
"100","yes","100","1883","1883","white","no","xpyriment","Ich habe die obigen Informationen gelesen und verstanden.","legacy","legacy","0","uniform","1","0","NA","undefined","undefined","1","f","0","0","NA","NA","NA","NA","NA","0","0","0","0","0","0","0","0","0","0","0","NA","NA","0","0","0","0","NA","0","0","0","0","0","0","0","Thu Oct 26 14:14:08 2017","Forced-choice identification task with a practice and an experimental phase","yes","NAP_GER_AA_4blocks_noglides.osexp","/Users/aviadalbert/Documents/Academisch/UoC/Dissertation/Experiment/OpenSesame/NAP-FC/NAP_GER_AA_4blocks_noglides","yes","no","sans","no","20","no","black","no","Weiter","yes","768","legacy","0","0","0","/Users/aviadalbert/Documents/Academisch/UoC/Dissertation/Experiment/OpenSesame/NAP-FC/NAP_GER_AA_4blocks_noglides/subject-27.csv","xpyriment","Jazzy James","3.1.9","yes","yes","59a800d99ad5a1025d81bb03","59a801616c613b0251691de0","yes","no","0","f","f","NA","NA","space","space","f","1883","3800","NA","NA","33981","9194","1883","2","legacy","1024","1","44100","-16","experiment","flal","2","0","0","0","1","English, French","27","","odd","1209684","NA","NA","NA","NA","NA","NA","1617","NA","1617","1617","1166214","1200200","1215209","1213704","1217093","1213485","1209681","NA","NA","1104834","1154832","NA","1209459","NA","1209684","NA","1215209","1215209","NA","NA","1213701","NAP perception","1","1883","1","yes","1024"
"100","yes","100","1621.5","1621.5","white","no","xpyriment","Ich habe die obigen Informationen gelesen und verstanden.","legacy","legacy","0","uniform","1","0","NA","undefined","undefined","1","j","0","0","NA","NA","NA","NA","NA","0","0","0","0","0","0","1","1","1","0","0","NA","NA","0","0","0","0","NA","0","0","1","1","1","1","1","Thu Oct 26 14:14:08 2017","Forced-choice identification task with a practice and an experimental phase","yes","NAP_GER_AA_4blocks_noglides.osexp","/Users/aviadalbert/Documents/Academisch/UoC/Dissertation/Experiment/OpenSesame/NAP-FC/NAP_GER_AA_4blocks_noglides","yes","no","sans","no","20","no","black","no","Weiter","yes","768","legacy","1","1","0","/Users/aviadalbert/Documents/Academisch/UoC/Dissertation/Experiment/OpenSesame/NAP-FC/NAP_GER_AA_4blocks_noglides/subject-27.csv","xpyriment","Jazzy James","3.1.9","yes","yes","59a800d99ad5a1025d81bb03","59a801616c613b0251691de0","yes","no","0","j","f","NA","NA","space","space","j","1360","3800","NA","NA","33981","9194","1360","2","legacy","1024","1","44100","-16","experiment","lepal","2","0","0","0","1","English, French","27","","odd","1209684","NA","NA","NA","NA","NA","NA","1617","NA","1617","1617","1166214","1200200","1218909","1217402","1220270","1213485","1209681","NA","NA","1104834","1154832","NA","1209459","NA","1209684","NA","1218909","1218909","NA","NA","1217398","NAP perception","2","3243","2","yes","1024"
"100","yes","100","1439.66666667","1439.66666667","white","no","xpyriment","Ich habe die obigen Informationen gelesen und verstanden.","legacy","legacy","0","uniform","1","0","NA","undefined","undefined","1","j","0","0","NA","NA","NA","NA","NA","0","0","0","0","0","0","2","2","2","0","0","NA","NA","0","0","0","0","NA","0","0","2","2","2","2","2","Thu Oct 26 14:14:08 2017","Forced-choice identification task with a practice and an experimental phase","yes","NAP_GER_AA_4blocks_noglides.osexp","/Users/aviadalbert/Documents/Academisch/UoC/Dissertation/Experiment/OpenSesame/NAP-FC/NAP_GER_AA_4blocks_noglides","yes","no","sans","no","20","no","black","no","Weiter","yes","768","legacy","2","2","0","/Users/aviadalbert/Documents/Academisch/UoC/Dissertation/Experiment/OpenSesame/NAP-FC/NAP_GER_AA_4blocks_noglides/subject-27.csv","xpyriment","Jazzy James","3.1.9","yes","yes","59a800d99ad5a1025d81bb03","59a801616c613b0251691de0","yes","no","0","j","f","NA","NA","space","space","j","1076","3800","NA","NA","33981","9194","1076","2","legacy","1024","1","44100","-16","experiment","emtal","2","0","0","0","1","English, French","27","","odd","1209684","NA","NA","NA","NA","NA","NA","1617","NA","1617","1617","1166214","1200200","1222049","1220546","1223126","1213485","1209681","NA","NA","1104834","1154832","NA","1209459","NA","1209684","NA","1222049","1222049","NA","NA","1220542","NAP perception","3","4319","3","yes","1024"
"100","yes","100","1621.5","1621.5","white","no","xpyriment","Ich habe die obigen Informationen gelesen und verstanden.","legacy","legacy","0","uniform","1","0","NA","undefined","undefined","1","f","0","0","NA","NA","NA","NA","NA","0","0","0","0","0","0","3","3","3","0","0","NA","NA","0","0","0","0","NA","0","0","3","3","3","3","3","Thu Oct 26 14:14:08 2017","Forced-choice identification task with a practice and an experimental phase","yes","NAP_GER_AA_4blocks_noglides.osexp","/Users/aviadalbert/Documents/Academisch/UoC/Dissertation/Experiment/OpenSesame/NAP-FC/NAP_GER_AA_4blocks_noglides","yes","no","sans","no","20","no","black","no","Weiter","yes","768","legacy","3","3","0","/Users/aviadalbert/Documents/Academisch/UoC/Dissertation/Experiment/OpenSesame/NAP-FC/NAP_GER_AA_4blocks_noglides/subject-27.csv","xpyriment","Jazzy James","3.1.9","yes","yes","59a800d99ad5a1025d81bb03","59a801616c613b0251691de0","yes","no","0","f","f","NA","NA","space","space","f","2167","3800","NA","NA","33981","9194","2167","2","legacy","1024","1","44100","-16","experiment","ʃpal","2","0","0","0","1","English, French","27","","odd","1209684","NA","NA","NA","NA","NA","NA","1617","NA","1617","1617","1166214","1200200","1224906","1223398","1227074","1213485","1209681","NA","NA","1104834","1154832","NA","1209459","NA","1209684","NA","1224906","1224906","NA","NA","1223395","NAP perception","4","6486","4","yes","1024"
"100","yes","100","1697","1697","white","no","xpyriment","Ich habe die obigen Informationen gelesen und verstanden.","legacy","legacy","0","uniform","1","0","NA","undefined","undefined","1","j","0","0","NA","NA","NA","NA","NA","0","0","0","0","0","0","4","4","4","0","0","NA","NA","0","0","0","0","NA","0","0","4","4","4","4","4","Thu Oct 26 14:14:08 2017","Forced-choice identification task with a practice and an experimental phase","yes","NAP_GER_AA_4blocks_noglides.osexp","/Users/aviadalbert/Documents/Academisch/UoC/Dissertation/Experiment/OpenSesame/NAP-FC/NAP_GER_AA_4blocks_noglides","yes","no","sans","no","20","no","black","no","Weiter","yes","768","legacy","4","4","0","/Users/aviadalbert/Documents/Academisch/UoC/Dissertation/Experiment/OpenSesame/NAP-FC/NAP_GER_AA_4blocks_noglides/subject-27.csv","xpyriment","Jazzy James","3.1.9","yes","yes","59a800d99ad5a1025d81bb03","59a801616c613b0251691de0","yes","no","0","j","f","NA","NA","space","space","j","1999","3800","NA","NA","33981","9194","1999","2","legacy","1024","1","44100","-16","experiment","nefal","2","0","0","0","1","English, French","27","","odd","1209684","NA","NA","NA","NA","NA","NA","1617","NA","1617","1617","1166214","1200200","1228847","1227342","1230847","1213485","1209681","NA","NA","1104834","1154832","NA","1209459","NA","1209684","NA","1228847","1228847","NA","NA","1227338","NAP perception","5","8485","5","yes","1024"
"100","yes","100","1632.5","1632.5","white","no","xpyriment","Ich habe die obigen Informationen gelesen und verstanden.","legacy","legacy","0","uniform","1","0","NA","undefined","undefined","1","f","0","0","NA","NA","NA","NA","NA","0","0","0","0","0","0","5","5","5","0","0","NA","NA","0","0","0","0","NA","0","0","5","5","5","5","5","Thu Oct 26 14:14:08 2017","Forced-choice identification task with a practice and an experimental phase","yes","NAP_GER_AA_4blocks_noglides.osexp","/Users/aviadalbert/Documents/Academisch/UoC/Dissertation/Experiment/OpenSesame/NAP-FC/NAP_GER_AA_4blocks_noglides","yes","no","sans","no","20","no","black","no","Weiter","yes","768","legacy","5","5","0","/Users/aviadalbert/Documents/Academisch/UoC/Dissertation/Experiment/OpenSesame/NAP-FC/NAP_GER_AA_4blocks_noglides/subject-27.csv","xpyriment","Jazzy James","3.1.9","yes","yes","59a800d99ad5a1025d81bb03","59a801616c613b0251691de0","yes","no","0","f","f","NA","NA","space","space","f","1310","3800","NA","NA","33981","9194","1310","2","legacy","1024","1","44100","-16","experiment","sfal","2","0","0","0","1","English, French","27","","odd","1209684","NA","NA","NA","NA","NA","NA","1617","NA","1617","1617","1166214","1200200","1232624","1231118","1233935","1213485","1209681","NA","NA","1104834","1154832","NA","1209459","NA","1209684","NA","1232624","1232624","NA","NA","1231114","NAP perception","6","9795","6","yes","1024"
"100","yes","100","1718.42857143","1718.42857143","white","no","xpyriment","Ich habe die obigen Informationen gelesen und verstanden.","legacy","legacy","0","uniform","1","0","NA","undefined","undefined","1","f","0","0","NA","NA","NA","NA","NA","0","0","0","0","0","0","6","6","6","0","0","NA","NA","0","0","0","0","NA","0","0","6","6","6","6","6","Thu Oct 26 14:14:08 2017","Forced-choice identification task with a practice and an experimental phase","yes","NAP_GER_AA_4blocks_noglides.osexp","/Users/aviadalbert/Documents/Academisch/UoC/Dissertation/Experiment/OpenSesame/NAP-FC/NAP_GER_AA_4blocks_noglides","yes","no","sans","no","20","no","black","no","Weiter","yes","768","legacy","6","6","0","/Users/aviadalbert/Documents/Academisch/UoC/Dissertation/Experiment/OpenSesame/NAP-FC/NAP_GER_AA_4blocks_noglides/subject-27.csv","xpyriment","Jazzy James","3.1.9","yes","yes","59a800d99ad5a1025d81bb03","59a801616c613b0251691de0","yes","no","0","f","f","NA","NA","space","space","f","2234","3800","NA","NA","33981","9194","2234","2","legacy","1024","1","44100","-16","experiment","zmal","2","0","0","0","1","English, French","27","","odd","1209684","NA","NA","NA","NA","NA","NA","1617","NA","1617","1617","1166214","1200200","1235724","1234217","1237959","1213485","1209681","NA","NA","1104834","1154832","NA","1209459","NA","1209684","NA","1235723","1235724","NA","NA","1234213","NAP perception","7","12029","7","yes","1024"
"100","yes","100","1702.75","1702.75","white","no","xpyriment","Ich habe die obigen Informationen gelesen und verstanden.","legacy","legacy","0","uniform","1","0","NA","undefined","undefined","1","j","0","0","NA","NA","NA","NA","NA","0","0","0","0","0","0","7","7","7","0","0","NA","NA","0","0","0","0","NA","0","0","7","7","7","7","7","Thu Oct 26 14:14:08 2017","Forced-choice identification task with a practice and an experimental phase","yes","NAP_GER_AA_4blocks_noglides.osexp","/Users/aviadalbert/Documents/Academisch/UoC/Dissertation/Experiment/OpenSesame/NAP-FC/NAP_GER_AA_4blocks_noglides","yes","no","sans","no","20","no","black","no","Weiter","yes","768","legacy","7","7","0","/Users/aviadalbert/Documents/Academisch/UoC/Dissertation/Experiment/OpenSesame/NAP-FC/NAP_GER_AA_4blocks_noglides/subject-27.csv","xpyriment","Jazzy James","3.1.9","yes","yes","59a800d99ad5a1025d81bb03","59a801616c613b0251691de0","yes","no","0","j","f","NA","NA","space","space","j","1593","3800","NA","NA","33981","9194","1593","2","legacy","1024","1","44100","-16","experiment","mesal","2","0","0","0","1","English, French","27","","odd","1209684","NA","NA","NA","NA","NA","NA","1617","NA","1617","1617","1166214","1200200","1239748","1238243","1241342","1213485","1209681","NA","NA","1104834","1154832","NA","1209459","NA","1209684","NA","1239748","1239748","NA","NA","1238239","NAP perception","8","13622","8","yes","1024"
"100","yes","100","1726.22222222","1726.22222222","white","no","xpyriment","Ich habe die obigen Informationen gelesen und verstanden.","legacy","legacy","0","uniform","1","0","NA","undefined","undefined","1","j","0","0","NA","NA","NA","NA","NA","0","0","0","0","0","0","8","8","8","0","0","NA","NA","0","0","0","0","NA","0","0","8","8","8","8","8","Thu Oct 26 14:14:08 2017","Forced-choice identification task with a practice and an experimental phase","yes","NAP_GER_AA_4blocks_noglides.osexp","/Users/aviadalbert/Documents/Academisch/UoC/Dissertation/Experiment/OpenSesame/NAP-FC/NAP_GER_AA_4blocks_noglides","yes","no","sans","no","20","no","black","no","Weiter","yes","768","legacy","8","8","0","/Users/aviadalbert/Documents/Academisch/UoC/Dissertation/Experiment/OpenSesame/NAP-FC/NAP_GER_AA_4blocks_noglides/subject-27.csv","xpyriment","Jazzy James","3.1.9","yes","yes","59a800d99ad5a1025d81bb03","59a801616c613b0251691de0","yes","no","0","j","f","NA","NA","space","space","j","1914","3800","NA","NA","33981","9194","1914","2","legacy","1024","1","44100","-16","experiment","enval","2","0","0","0","1","English, French","27","","odd","1209684","NA","NA","NA","NA","NA","NA","1617","NA","1617","1617","1166214","1200200","1243132","1241629","1245047","1213485","1209681","NA","NA","1104834","1154832","NA","1209459","NA","1209684","NA","1243132","1243132","NA","NA","1241625","NAP perception","9","15536","9","yes","1024"
"100","yes","100","1717.3","1717.3","white","no","xpyriment","Ich habe die obigen Informationen gelesen und verstanden.","legacy","legacy","0","uniform","1","0","NA","undefined","undefined","1","f","0","0","NA","NA","NA","NA","NA","0","0","0","0","0","0","9","9","9","0","0","NA","NA","0","0","0","0","NA","0","0","9","9","9","9","9","Thu Oct 26 14:14:08 2017","Forced-choice identification task with a practice and an experimental phase","yes","NAP_GER_AA_4blocks_noglides.osexp","/Users/aviadalbert/Documents/Academisch/UoC/Dissertation/Experiment/OpenSesame/NAP-FC/NAP_GER_AA_4blocks_noglides","yes","no","sans","no","20","no","black","no","Weiter","yes","768","legacy","9","9","0","/Users/aviadalbert/Documents/Academisch/UoC/Dissertation/Experiment/OpenSesame/NAP-FC/NAP_GER_AA_4blocks_noglides/subject-27.csv","xpyriment","Jazzy James","3.1.9","yes","yes","59a800d99ad5a1025d81bb03","59a801616c613b0251691de0","yes","no","0","f","f","NA","NA","space","space","f","1637","3800","NA","NA","33981","9194","1637","2","legacy","1024","1","44100","-16","experiment","vlal","2","0","0","0","1","English, French","27","","odd","1209684","NA","NA","NA","NA","NA","NA","1617","NA","1617","1617","1166214","1200200","1246826","1245322","1248464","1213485","1209681","NA","NA","1104834","1154832","NA","1209459","NA","1209684","NA","1246826","1246826","NA","NA","1245319","NAP perception","10","17173","10","yes","1024"
"100","yes","100","1523","1523","white","no","xpyriment","Ich habe die obigen Informationen gelesen und verstanden.","legacy","legacy","0","uniform","1","0","0","undefined","undefined","1","j","2","1","NA","0","1","0","0","0","0","0","0","0","0","10","10","10","0","0","0","NA","0","0","2","0","0","0","2","10","10","10","10","10","Thu Oct 26 14:14:08 2017","Forced-choice identification task with a practice and an experimental phase","yes","NAP_GER_AA_4blocks_noglides.osexp","/Users/aviadalbert/Documents/Academisch/UoC/Dissertation/Experiment/OpenSesame/NAP-FC/NAP_GER_AA_4blocks_noglides","yes","no","sans","no","20","no","black","no","Weiter","yes","768","legacy","0","9","0","/Users/aviadalbert/Documents/Academisch/UoC/Dissertation/Experiment/OpenSesame/NAP-FC/NAP_GER_AA_4blocks_noglides/subject-27.csv","xpyriment","Jazzy James","3.1.9","yes","yes","59a800d99ad5a1025d81bb03","59a801616c613b0251691de0","no","no","0","j","f","space","NA","space","space","j","1523","2983","21431","NA","33981","9194","1523","2","legacy","1024","1","44100","-16","experiment","elval","2","0","0","0","1","English, French","27","","odd","1272151","1250182","NA","NA","1275135","1272147","NA","1617","1271667","1617","1617","1166214","1200200","1276866","1275360","1278390","1213485","1209681","1250182","NA","1104834","1154832","1248525","1209459","1272151","1209684","NA","1276866","1276866","NA","NA","1275356","NAP perception","1","1523","1","yes","1024"
"100","yes","100","1330.5","1330.5","white","no","xpyriment","Ich habe die obigen Informationen gelesen und verstanden.","legacy","legacy","0","uniform","1","0","0","undefined","undefined","1","j","2","1","NA","0","1","0","0","0","0","0","0","0","0","11","11","11","0","0","0","NA","0","0","2","0","0","0","2","11","11","11","11","11","Thu Oct 26 14:14:08 2017","Forced-choice identification task with a practice and an experimental phase","yes","NAP_GER_AA_4blocks_noglides.osexp","/Users/aviadalbert/Documents/Academisch/UoC/Dissertation/Experiment/OpenSesame/NAP-FC/NAP_GER_AA_4blocks_noglides","yes","no","sans","no","20","no","black","no","Weiter","yes","768","legacy","1","9","0","/Users/aviadalbert/Documents/Academisch/UoC/Dissertation/Experiment/OpenSesame/NAP-FC/NAP_GER_AA_4blocks_noglides/subject-27.csv","xpyriment","Jazzy James","3.1.9","yes","yes","59a800d99ad5a1025d81bb03","59a801616c613b0251691de0","no","no","0","j","f","space","NA","space","space","j","1138","2983","21431","NA","33981","9194","1138","2","legacy","1024","1","44100","-16","experiment","fesal","2","0","0","0","1","English, French","27","","odd","1272151","1250182","NA","NA","1275135","1272147","NA","1617","1271667","1617","1617","1166214","1200200","1280179","1278674","1281318","1213485","1209681","1250182","NA","1104834","1154832","1248525","1209459","1272151","1209684","NA","1280179","1280179","NA","NA","1278670","NAP perception","2","2661","2","yes","1024"
"100","yes","100","1330","1330","white","no","xpyriment","Ich habe die obigen Informationen gelesen und verstanden.","legacy","legacy","0","uniform","1","0","0","undefined","undefined","1","j","2","1","NA","0","1","0","0","0","0","0","0","0","0","12","12","12","0","0","0","NA","0","0","2","0","0","0","2","12","12","12","12","12","Thu Oct 26 14:14:08 2017","Forced-choice identification task with a practice and an experimental phase","yes","NAP_GER_AA_4blocks_noglides.osexp","/Users/aviadalbert/Documents/Academisch/UoC/Dissertation/Experiment/OpenSesame/NAP-FC/NAP_GER_AA_4blocks_noglides","yes","no","sans","no","20","no","black","no","Weiter","yes","768","legacy","2","9","0","/Users/aviadalbert/Documents/Academisch/UoC/Dissertation/Experiment/OpenSesame/NAP-FC/NAP_GER_AA_4blocks_noglides/subject-27.csv","xpyriment","Jazzy James","3.1.9","yes","yes","59a800d99ad5a1025d81bb03","59a801616c613b0251691de0","no","no","0","j","f","space","NA","space","space","j","1329","2983","21431","NA","33981","9194","1329","2","legacy","1024","1","44100","-16","experiment","vezal","2","0","0","0","1","English, French","27","","odd","1272151","1250182","NA","NA","1275135","1272147","NA","1617","1271667","1617","1617","1166214","1200200","1283087","1281584","1284417","1213485","1209681","1250182","NA","1104834","1154832","1248525","1209459","1272151","1209684","NA","1283087","1283087","NA","NA","1281580","NAP perception","3","3990","3","yes","1024"
"100","yes","100","1383.5","1383.5","white","no","xpyriment","Ich habe die obigen Informationen gelesen und verstanden.","legacy","legacy","0","uniform","1","0","0","undefined","undefined","1","f","2","1","NA","0","1","0","0","0","0","0","0","0","0","13","13","13","0","0","0","NA","0","0","2","0","0","0","2","13","13","13","13","13","Thu Oct 26 14:14:08 2017","Forced-choice identification task with a practice and an experimental phase","yes","NAP_GER_AA_4blocks_noglides.osexp","/Users/aviadalbert/Documents/Academisch/UoC/Dissertation/Experiment/OpenSesame/NAP-FC/NAP_GER_AA_4blocks_noglides","yes","no","sans","no","20","no","black","no","Weiter","yes","768","legacy","3","9","0","/Users/aviadalbert/Documents/Academisch/UoC/Dissertation/Experiment/OpenSesame/NAP-FC/NAP_GER_AA_4blocks_noglides/subject-27.csv","xpyriment","Jazzy James","3.1.9","yes","yes","59a800d99ad5a1025d81bb03","59a801616c613b0251691de0","no","no","0","f","f","space","NA","space","space","f","1544","2983","21431","NA","33981","9194","1544","2","legacy","1024","1","44100","-16","experiment","zval","2","0","0","0","1","English, French","27","","odd","1272151","1250182","NA","NA","1275135","1272147","NA","1617","1271667","1617","1617","1166214","1200200","1286211","1284705","1287756","1213485","1209681","1250182","NA","1104834","1154832","1248525","1209459","1272151","1209684","NA","1286211","1286211","NA","NA","1284701","NAP perception","4","5534","4","yes","1024"
"100","yes","100","1509.4","1509.4","white","no","xpyriment","Ich habe die obigen Informationen gelesen und verstanden.","legacy","legacy","0","uniform","1","0","0","undefined","undefined","1","j","2","1","NA","0","1","0","0","0","0","0","0","0","0","14","14","14","0","0","0","NA","0","0","2","0","0","0","2","14","14","14","14","14","Thu Oct 26 14:14:08 2017","Forced-choice identification task with a practice and an experimental phase","yes","NAP_GER_AA_4blocks_noglides.osexp","/Users/aviadalbert/Documents/Academisch/UoC/Dissertation/Experiment/OpenSesame/NAP-FC/NAP_GER_AA_4blocks_noglides","yes","no","sans","no","20","no","black","no","Weiter","yes","768","legacy","4","9","0","/Users/aviadalbert/Documents/Academisch/UoC/Dissertation/Experiment/OpenSesame/NAP-FC/NAP_GER_AA_4blocks_noglides/subject-27.csv","xpyriment","Jazzy James","3.1.9","yes","yes","59a800d99ad5a1025d81bb03","59a801616c613b0251691de0","no","no","0","j","f","space","NA","space","space","j","2013","2983","21431","NA","33981","9194","2013","2","legacy","1024","1","44100","-16","experiment","evnal","2","0","0","0","1","English, French","27","","odd","1272151","1250182","NA","NA","1275135","1272147","NA","1617","1271667","1617","1617","1166214","1200200","1289550","1288043","1291564","1213485","1209681","1250182","NA","1104834","1154832","1248525","1209459","1272151","1209684","NA","1289550","1289550","NA","NA","1288039","NAP perception","5","7547","5","yes","1024"
"100","yes","100","1443.16666667","1443.16666667","white","no","xpyriment","Ich habe die obigen Informationen gelesen und verstanden.","legacy","legacy","0","uniform","1","0","0","undefined","undefined","1","f","2","1","NA","0","1","0","0","0","0","0","0","0","0","15","15","15","0","0","0","NA","0","0","2","0","0","0","2","15","15","15","15","15","Thu Oct 26 14:14:08 2017","Forced-choice identification task with a practice and an experimental phase","yes","NAP_GER_AA_4blocks_noglides.osexp","/Users/aviadalbert/Documents/Academisch/UoC/Dissertation/Experiment/OpenSesame/NAP-FC/NAP_GER_AA_4blocks_noglides","yes","no","sans","no","20","no","black","no","Weiter","yes","768","legacy","5","9","0","/Users/aviadalbert/Documents/Academisch/UoC/Dissertation/Experiment/OpenSesame/NAP-FC/NAP_GER_AA_4blocks_noglides/subject-27.csv","xpyriment","Jazzy James","3.1.9","yes","yes","59a800d99ad5a1025d81bb03","59a801616c613b0251691de0","no","no","0","f","f","space","NA","space","space","f","1112","2983","21431","NA","33981","9194","1112","2","legacy","1024","1","44100","-16","experiment","ʃmal","2","0","0","0","1","English, French","27","","odd","1272151","1250182","NA","NA","1275135","1272147","NA","1617","1271667","1617","1617","1166214","1200200","1293336","1291833","1294449","1213485","1209681","1250182","NA","1104834","1154832","1248525","1209459","1272151","1209684","NA","1293336","1293336","NA","NA","1291829","NAP perception","6","8659","6","yes","1024"
"100","yes","100","1408.42857143","1408.42857143","white","no","xpyriment","Ich habe die obigen Informationen gelesen und verstanden.","legacy","legacy","0","uniform","1","0","0","undefined","undefined","1","j","2","1","NA","0","1","0","0","0","0","0","0","0","0","16","16","16","0","0","0","NA","0","0","2","0","0","0","2","16","16","16","16","16","Thu Oct 26 14:14:08 2017","Forced-choice identification task with a practice and an experimental phase","yes","NAP_GER_AA_4blocks_noglides.osexp","/Users/aviadalbert/Documents/Academisch/UoC/Dissertation/Experiment/OpenSesame/NAP-FC/NAP_GER_AA_4blocks_noglides","yes","no","sans","no","20","no","black","no","Weiter","yes","768","legacy","6","9","0","/Users/aviadalbert/Documents/Academisch/UoC/Dissertation/Experiment/OpenSesame/NAP-FC/NAP_GER_AA_4blocks_noglides/subject-27.csv","xpyriment","Jazzy James","3.1.9","yes","yes","59a800d99ad5a1025d81bb03","59a801616c613b0251691de0","no","no","0","j","f","space","NA","space","space","j","1200","2983","21431","NA","33981","9194","1200","2","legacy","1024","1","44100","-16","experiment","elmal","2","0","0","0","1","English, French","27","","odd","1272151","1250182","NA","NA","1275135","1272147","NA","1617","1271667","1617","1617","1166214","1200200","1296229","1294725","1297431","1213485","1209681","1250182","NA","1104834","1154832","1248525","1209459","1272151","1209684","NA","1296229","1296229","NA","NA","1294722","NAP perception","7","9859","7","yes","1024"
"100","yes","100","1457.5","1457.5","white","no","xpyriment","Ich habe die obigen Informationen gelesen und verstanden.","legacy","legacy","0","uniform","1","0","0","undefined","undefined","1","f","2","1","NA","0","1","0","0","0","0","0","0","0","0","17","17","17","0","0","0","NA","0","0","2","0","0","0","2","17","17","17","17","17","Thu Oct 26 14:14:08 2017","Forced-choice identification task with a practice and an experimental phase","yes","NAP_GER_AA_4blocks_noglides.osexp","/Users/aviadalbert/Documents/Academisch/UoC/Dissertation/Experiment/OpenSesame/NAP-FC/NAP_GER_AA_4blocks_noglides","yes","no","sans","no","20","no","black","no","Weiter","yes","768","legacy","7","9","0","/Users/aviadalbert/Documents/Academisch/UoC/Dissertation/Experiment/OpenSesame/NAP-FC/NAP_GER_AA_4blocks_noglides/subject-27.csv","xpyriment","Jazzy James","3.1.9","yes","yes","59a800d99ad5a1025d81bb03","59a801616c613b0251691de0","no","no","0","f","f","space","NA","space","space","f","1801","2983","21431","NA","33981","9194","1801","2","legacy","1024","1","44100","-16","experiment","mzal","2","0","0","0","1","English, French","27","","odd","1272151","1250182","NA","NA","1275135","1272147","NA","1617","1271667","1617","1617","1166214","1200200","1299224","1297718","1301026","1213485","1209681","1250182","NA","1104834","1154832","1248525","1209459","1272151","1209684","NA","1299224","1299224","NA","NA","1297715","NAP perception","8","11660","8","yes","1024"
"100","yes","100","1414.44444444","1414.44444444","white","no","xpyriment","Ich habe die obigen Informationen gelesen und verstanden.","legacy","legacy","0","uniform","1","0","0","undefined","undefined","1","f","2","1","NA","0","1","0","0","0","0","0","0","0","0","18","18","18","0","0","0","NA","0","0","2","0","0","0","2","18","18","18","18","18","Thu Oct 26 14:14:08 2017","Forced-choice identification task with a practice and an experimental phase","yes","NAP_GER_AA_4blocks_noglides.osexp","/Users/aviadalbert/Documents/Academisch/UoC/Dissertation/Experiment/OpenSesame/NAP-FC/NAP_GER_AA_4blocks_noglides","yes","no","sans","no","20","no","black","no","Weiter","yes","768","legacy","8","9","0","/Users/aviadalbert/Documents/Academisch/UoC/Dissertation/Experiment/OpenSesame/NAP-FC/NAP_GER_AA_4blocks_noglides/subject-27.csv","xpyriment","Jazzy James","3.1.9","yes","yes","59a800d99ad5a1025d81bb03","59a801616c613b0251691de0","no","no","0","f","f","space","NA","space","space","f","1070","2983","21431","NA","33981","9194","1070","2","legacy","1024","1","44100","-16","experiment","fnal","2","0","0","0","1","English, French","27","","odd","1272151","1250182","NA","NA","1275135","1272147","NA","1617","1271667","1617","1617","1166214","1200200","1302802","1301298","1303873","1213485","1209681","1250182","NA","1104834","1154832","1248525","1209459","1272151","1209684","NA","1302802","1302802","NA","NA","1301294","NAP perception","9","12730","9","yes","1024"
"90","yes","90","1474.1","1474.1","white","no","xpyriment","Ich habe die obigen Informationen gelesen und verstanden.","legacy","legacy","0","uniform","0","0","0","undefined","undefined","0","f","2","1","NA","0","1","0","0","0","0","0","0","0","0","19","19","19","0","0","0","NA","0","0","2","0","0","0","2","19","19","19","19","19","Thu Oct 26 14:14:08 2017","Forced-choice identification task with a practice and an experimental phase","yes","NAP_GER_AA_4blocks_noglides.osexp","/Users/aviadalbert/Documents/Academisch/UoC/Dissertation/Experiment/OpenSesame/NAP-FC/NAP_GER_AA_4blocks_noglides","yes","no","sans","no","20","no","black","no","Weiter","yes","768","legacy","9","9","0","/Users/aviadalbert/Documents/Academisch/UoC/Dissertation/Experiment/OpenSesame/NAP-FC/NAP_GER_AA_4blocks_noglides/subject-27.csv","xpyriment","Jazzy James","3.1.9","yes","yes","59a800d99ad5a1025d81bb03","59a801616c613b0251691de0","no","no","0","j","f","space","NA","space","space","j","2011","2983","21431","NA","33981","9194","2011","2","legacy","1024","1","44100","-16","experiment","lval","2","0","0","0","1","English, French","27","","odd","1272151","1250182","NA","NA","1275135","1272147","NA","1617","1271667","1617","1617","1166214","1200200","1305654","1304146","1307666","1213485","1209681","1250182","NA","1104834","1154832","1248525","1209459","1272151","1209684","NA","1305653","1305653","NA","NA","1304142","NAP perception","9","14741","10","yes","1024"
"90.9090909091","yes","90.9090909091","1573.18181818","1573.18181818","white","no","xpyriment","Ich habe die obigen Informationen gelesen und verstanden.","legacy","legacy","0","uniform","1","0","0","undefined","undefined","1","j","2","1","NA","0","1","0","0","0","0","0","0","0","0","20","20","20","0","0","0","NA","0","0","2","0","0","0","2","20","20","20","20","20","Thu Oct 26 14:14:08 2017","Forced-choice identification task with a practice and an experimental phase","yes","NAP_GER_AA_4blocks_noglides.osexp","/Users/aviadalbert/Documents/Academisch/UoC/Dissertation/Experiment/OpenSesame/NAP-FC/NAP_GER_AA_4blocks_noglides","yes","no","sans","no","20","no","black","no","Weiter","yes","768","legacy","10","9","0","/Users/aviadalbert/Documents/Academisch/UoC/Dissertation/Experiment/OpenSesame/NAP-FC/NAP_GER_AA_4blocks_noglides/subject-27.csv","xpyriment","Jazzy James","3.1.9","yes","yes","59a800d99ad5a1025d81bb03","59a801616c613b0251691de0","no","no","0","j","f","space","NA","space","space","j","2564","2983","21431","NA","33981","9194","2564","2","legacy","1024","1","44100","-16","experiment","velal","2","0","0","0","1","English, French","27","","odd","1272151","1250182","NA","NA","1275135","1272147","NA","1617","1271667","1617","1617","1166214","1200200","1309440","1307937","1312005","1213485","1209681","1250182","NA","1104834","1154832","1248525","1209459","1272151","1209684","NA","1309440","1309440","NA","NA","1307933","NAP perception","10","17305","11","yes","1024"
"91.6666666667","yes","91.6666666667","1573.75","1573.75","white","no","xpyriment","Ich habe die obigen Informationen gelesen und verstanden.","legacy","legacy","0","uniform","1","0","0","undefined","undefined","1","j","2","1","NA","0","1","0","0","0","0","0","0","0","0","21","21","21","0","0","0","NA","0","0","2","0","0","0","2","21","21","21","21","21","Thu Oct 26 14:14:08 2017","Forced-choice identification task with a practice and an experimental phase","yes","NAP_GER_AA_4blocks_noglides.osexp","/Users/aviadalbert/Documents/Academisch/UoC/Dissertation/Experiment/OpenSesame/NAP-FC/NAP_GER_AA_4blocks_noglides","yes","no","sans","no","20","no","black","no","Weiter","yes","768","legacy","11","9","0","/Users/aviadalbert/Documents/Academisch/UoC/Dissertation/Experiment/OpenSesame/NAP-FC/NAP_GER_AA_4blocks_noglides/subject-27.csv","xpyriment","Jazzy James","3.1.9","yes","yes","59a800d99ad5a1025d81bb03","59a801616c613b0251691de0","no","no","0","j","f","space","NA","space","space","j","1580","2983","21431","NA","33981","9194","1580","2","legacy","1024","1","44100","-16","experiment","emtal","2","0","0","0","1","English, French","27","","odd","1272151","1250182","NA","NA","1275135","1272147","NA","1617","1271667","1617","1617","1166214","1200200","1313780","1312277","1315362","1213485","1209681","1250182","NA","1104834","1154832","1248525","1209459","1272151","1209684","NA","1313780","1313780","NA","NA","1312273","NAP perception","11","18885","12","yes","1024"
"92.3076923077","yes","92.3076923077","1578.92307692","1578.92307692","white","no","xpyriment","Ich habe die obigen Informationen gelesen und verstanden.","legacy","legacy","0","uniform","1","0","0","undefined","undefined","1","j","2","1","NA","0","1","0","0","0","0","0","0","0","0","22","22","22","0","0","0","NA","0","0","2","0","0","0","2","22","22","22","22","22","Thu Oct 26 14:14:08 2017","Forced-choice identification task with a practice and an experimental phase","yes","NAP_GER_AA_4blocks_noglides.osexp","/Users/aviadalbert/Documents/Academisch/UoC/Dissertation/Experiment/OpenSesame/NAP-FC/NAP_GER_AA_4blocks_noglides","yes","no","sans","no","20","no","black","no","Weiter","yes","768","legacy","12","9","0","/Users/aviadalbert/Documents/Academisch/UoC/Dissertation/Experiment/OpenSesame/NAP-FC/NAP_GER_AA_4blocks_noglides/subject-27.csv","xpyriment","Jazzy James","3.1.9","yes","yes","59a800d99ad5a1025d81bb03","59a801616c613b0251691de0","no","no","0","j","f","space","NA","space","space","j","1641","2983","21431","NA","33981","9194","1641","2","legacy","1024","1","44100","-16","experiment","eʃfal","2","0","0","0","1","English, French","27","","odd","1272151","1250182","NA","NA","1275135","1272147","NA","1617","1271667","1617","1617","1166214","1200200","1317149","1315644","1318791","1213485","1209681","1250182","NA","1104834","1154832","1248525","1209459","1272151","1209684","NA","1317148","1317148","NA","NA","1315640","NAP perception","12","20526","13","yes","1024"
"92.8571428571","yes","92.8571428571","1572.42857143","1572.42857143","white","no","xpyriment","Ich habe die obigen Informationen gelesen und verstanden.","legacy","legacy","0","uniform","1","0","0","undefined","undefined","1","j","2","1","NA","0","1","0","0","0","0","0","0","0","0","23","23","23","0","0","0","NA","0","0","2","0","0","0","2","23","23","23","23","23","Thu Oct 26 14:14:08 2017","Forced-choice identification task with a practice and an experimental phase","yes","NAP_GER_AA_4blocks_noglides.osexp","/Users/aviadalbert/Documents/Academisch/UoC/Dissertation/Experiment/OpenSesame/NAP-FC/NAP_GER_AA_4blocks_noglides","yes","no","sans","no","20","no","black","no","Weiter","yes","768","legacy","13","9","0","/Users/aviadalbert/Documents/Academisch/UoC/Dissertation/Experiment/OpenSesame/NAP-FC/NAP_GER_AA_4blocks_noglides/subject-27.csv","xpyriment","Jazzy James","3.1.9","yes","yes","59a800d99ad5a1025d81bb03","59a801616c613b0251691de0","no","no","0","j","f","space","NA","space","space","j","1488","2983","21431","NA","33981","9194","1488","2","legacy","1024","1","44100","-16","experiment","ʃepal","2","0","0","0","1","English, French","27","","odd","1272151","1250182","NA","NA","1275135","1272147","NA","1617","1271667","1617","1617","1166214","1200200","1320566","1319061","1322055","1213485","1209681","1250182","NA","1104834","1154832","1248525","1209459","1272151","1209684","NA","1320566","1320566","NA","NA","1319057","NAP perception","13","22014","14","yes","1024"
"93.3333333333","yes","93.3333333333","1556.53333333","1556.53333333","white","no","xpyriment","Ich habe die obigen Informationen gelesen und verstanden.","legacy","legacy","0","uniform","1","0","0","undefined","undefined","1","j","2","1","NA","0","1","0","0","0","0","0","0","0","0","24","24","24","0","0","0","NA","0","0","2","0","0","0","2","24","24","24","24","24","Thu Oct 26 14:14:08 2017","Forced-choice identification task with a practice and an experimental phase","yes","NAP_GER_AA_4blocks_noglides.osexp","/Users/aviadalbert/Documents/Academisch/UoC/Dissertation/Experiment/OpenSesame/NAP-FC/NAP_GER_AA_4blocks_noglides","yes","no","sans","no","20","no","black","no","Weiter","yes","768","legacy","14","9","0","/Users/aviadalbert/Documents/Academisch/UoC/Dissertation/Experiment/OpenSesame/NAP-FC/NAP_GER_AA_4blocks_noglides/subject-27.csv","xpyriment","Jazzy James","3.1.9","yes","yes","59a800d99ad5a1025d81bb03","59a801616c613b0251691de0","no","no","0","j","f","space","NA","space","space","j","1334","2983","21431","NA","33981","9194","1334","2","legacy","1024","1","44100","-16","experiment","sefal","2","0","0","0","1","English, French","27","","odd","1272151","1250182","NA","NA","1275135","1272147","NA","1617","1271667","1617","1617","1166214","1200200","1323838","1322332","1325174","1213485","1209681","1250182","NA","1104834","1154832","1248525","1209459","1272151","1209684","NA","1323837","1323837","NA","NA","1322328","NAP perception","14","23348","15","yes","1024"
"93.75","yes","93.75","1524.5","1524.5","white","no","xpyriment","Ich habe die obigen Informationen gelesen und verstanden.","legacy","legacy","0","uniform","1","0","0","undefined","undefined","1","j","2","1","NA","0","1","0","0","0","0","0","0","0","0","25","25","25","0","0","0","NA","0","0","2","0","0","0","2","25","25","25","25","25","Thu Oct 26 14:14:08 2017","Forced-choice identification task with a practice and an experimental phase","yes","NAP_GER_AA_4blocks_noglides.osexp","/Users/aviadalbert/Documents/Academisch/UoC/Dissertation/Experiment/OpenSesame/NAP-FC/NAP_GER_AA_4blocks_noglides","yes","no","sans","no","20","no","black","no","Weiter","yes","768","legacy","15","9","0","/Users/aviadalbert/Documents/Academisch/UoC/Dissertation/Experiment/OpenSesame/NAP-FC/NAP_GER_AA_4blocks_noglides/subject-27.csv","xpyriment","Jazzy James","3.1.9","yes","yes","59a800d99ad5a1025d81bb03","59a801616c613b0251691de0","no","no","0","j","f","space","NA","space","space","j","1044","2983","21431","NA","33981","9194","1044","2","legacy","1024","1","44100","-16","experiment","enpal","2","0","0","0","1","English, French","27","","odd","1272151","1250182","NA","NA","1275135","1272147","NA","1617","1271667","1617","1617","1166214","1200200","1326978","1325473","1328023","1213485","1209681","1250182","NA","1104834","1154832","1248525","1209459","1272151","1209684","NA","1326977","1326977","NA","NA","1325469","NAP perception","15","24392","16","yes","1024"
"94.1176470588","yes","94.1176470588","1493.11764706","1493.11764706","white","no","xpyriment","Ich habe die obigen Informationen gelesen und verstanden.","legacy","legacy","0","uniform","1","0","0","undefined","undefined","1","f","2","1","NA","0","1","0","0","0","0","0","0","0","0","26","26","26","0","0","0","NA","0","0","2","0","0","0","2","26","26","26","26","26","Thu Oct 26 14:14:08 2017","Forced-choice identification task with a practice and an experimental phase","yes","NAP_GER_AA_4blocks_noglides.osexp","/Users/aviadalbert/Documents/Academisch/UoC/Dissertation/Experiment/OpenSesame/NAP-FC/NAP_GER_AA_4blocks_noglides","yes","no","sans","no","20","no","black","no","Weiter","yes","768","legacy","16","9","0","/Users/aviadalbert/Documents/Academisch/UoC/Dissertation/Experiment/OpenSesame/NAP-FC/NAP_GER_AA_4blocks_noglides/subject-27.csv","xpyriment","Jazzy James","3.1.9","yes","yes","59a800d99ad5a1025d81bb03","59a801616c613b0251691de0","no","no","0","f","f","space","NA","space","space","f","991","2983","21431","NA","33981","9194","991","2","legacy","1024","1","44100","-16","experiment","ʃmal","2","0","0","0","1","English, French","27","","odd","1272151","1250182","NA","NA","1275135","1272147","NA","1617","1271667","1617","1617","1166214","1200200","1329797","1328293","1330789","1213485","1209681","1250182","NA","1104834","1154832","1248525","1209459","1272151","1209684","NA","1329796","1329797","NA","NA","1328289","NAP perception","16","25383","17","yes","1024"
"94.4444444444","yes","94.4444444444","1487.88888889","1487.88888889","white","no","xpyriment","Ich habe die obigen Informationen gelesen und verstanden.","legacy","legacy","0","uniform","1","0","0","undefined","undefined","1","f","2","1","NA","0","1","0","0","0","0","0","0","0","0","27","27","27","0","0","0","NA","0","0","2","0","0","0","2","27","27","27","27","27","Thu Oct 26 14:14:08 2017","Forced-choice identification task with a practice and an experimental phase","yes","NAP_GER_AA_4blocks_noglides.osexp","/Users/aviadalbert/Documents/Academisch/UoC/Dissertation/Experiment/OpenSesame/NAP-FC/NAP_GER_AA_4blocks_noglides","yes","no","sans","no","20","no","black","no","Weiter","yes","768","legacy","17","9","0","/Users/aviadalbert/Documents/Academisch/UoC/Dissertation/Experiment/OpenSesame/NAP-FC/NAP_GER_AA_4blocks_noglides/subject-27.csv","xpyriment","Jazzy James","3.1.9","yes","yes","59a800d99ad5a1025d81bb03","59a801616c613b0251691de0","no","no","0","f","f","space","NA","space","space","f","1399","2983","21431","NA","33981","9194","1399","2","legacy","1024","1","44100","-16","experiment","ʃfal","2","0","0","0","1","English, French","27","","odd","1272151","1250182","NA","NA","1275135","1272147","NA","1617","1271667","1617","1617","1166214","1200200","1332563","1331055","1333963","1213485","1209681","1250182","NA","1104834","1154832","1248525","1209459","1272151","1209684","NA","1332563","1332563","NA","NA","1331051","NAP perception","17","26782","18","yes","1024"
"89.4736842105","yes","89.4736842105","1490.15789474","1490.15789474","white","no","xpyriment","Ich habe die obigen Informationen gelesen und verstanden.","legacy","legacy","0","uniform","0","0","0","undefined","undefined","0","f","2","1","NA","0","1","0","0","0","0","0","0","0","0","28","28","28","0","0","0","NA","0","0","2","0","0","0","2","28","28","28","28","28","Thu Oct 26 14:14:08 2017","Forced-choice identification task with a practice and an experimental phase","yes","NAP_GER_AA_4blocks_noglides.osexp","/Users/aviadalbert/Documents/Academisch/UoC/Dissertation/Experiment/OpenSesame/NAP-FC/NAP_GER_AA_4blocks_noglides","yes","no","sans","no","20","no","black","no","Weiter","yes","768","legacy","18","9","0","/Users/aviadalbert/Documents/Academisch/UoC/Dissertation/Experiment/OpenSesame/NAP-FC/NAP_GER_AA_4blocks_noglides/subject-27.csv","xpyriment","Jazzy James","3.1.9","yes","yes","59a800d99ad5a1025d81bb03","59a801616c613b0251691de0","no","no","0","j","f","space","NA","space","space","j","1531","2983","21431","NA","33981","9194","1531","2","legacy","1024","1","44100","-16","experiment","lpal","2","0","0","0","1","English, French","27","","odd","1272151","1250182","NA","NA","1275135","1272147","NA","1617","1271667","1617","1617","1166214","1200200","1335757","1334250","1337290","1213485","1209681","1250182","NA","1104834","1154832","1248525","1209459","1272151","1209684","NA","1335757","1335757","NA","NA","1334246","NAP perception","17","28313","19","yes","1024"
"90","yes","90","1487.65","1487.65","white","no","xpyriment","Ich habe die obigen Informationen gelesen und verstanden.","legacy","legacy","0","uniform","1","0","0","undefined","undefined","1","f","2","1","NA","0","1","0","0","0","0","0","0","0","0","29","29","29","0","0","0","NA","0","0","2","0","0","0","2","29","29","29","29","29","Thu Oct 26 14:14:08 2017","Forced-choice identification task with a practice and an experimental phase","yes","NAP_GER_AA_4blocks_noglides.osexp","/Users/aviadalbert/Documents/Academisch/UoC/Dissertation/Experiment/OpenSesame/NAP-FC/NAP_GER_AA_4blocks_noglides","yes","no","sans","no","20","no","black","no","Weiter","yes","768","legacy","19","9","0","/Users/aviadalbert/Documents/Academisch/UoC/Dissertation/Experiment/OpenSesame/NAP-FC/NAP_GER_AA_4blocks_noglides/subject-27.csv","xpyriment","Jazzy James","3.1.9","yes","yes","59a800d99ad5a1025d81bb03","59a801616c613b0251691de0","no","no","0","f","f","space","NA","space","space","f","1440","2983","21431","NA","33981","9194","1440","2","legacy","1024","1","44100","-16","experiment","ʃpal","2","0","0","0","1","English, French","27","","odd","1272151","1250182","NA","NA","1275135","1272147","NA","1617","1271667","1617","1617","1166214","1200200","1339085","1337582","1340526","1213485","1209681","1250182","NA","1104834","1154832","1248525","1209459","1272151","1209684","NA","1339085","1339085","NA","NA","1337578","NAP perception","18","29753","20","yes","1024"
"90.4761904762","yes","90.4761904762","1469.04761905","1469.04761905","white","no","xpyriment","Ich habe die obigen Informationen gelesen und verstanden.","legacy","legacy","0","uniform","1","0","0","undefined","undefined","1","j","2","1","NA","0","1","0","0","0","0","0","0","0","0","30","30","30","0","0","0","NA","0","0","2","0","0","0","2","30","30","30","30","30","Thu Oct 26 14:14:08 2017","Forced-choice identification task with a practice and an experimental phase","yes","NAP_GER_AA_4blocks_noglides.osexp","/Users/aviadalbert/Documents/Academisch/UoC/Dissertation/Experiment/OpenSesame/NAP-FC/NAP_GER_AA_4blocks_noglides","yes","no","sans","no","20","no","black","no","Weiter","yes","768","legacy","20","9","0","/Users/aviadalbert/Documents/Academisch/UoC/Dissertation/Experiment/OpenSesame/NAP-FC/NAP_GER_AA_4blocks_noglides/subject-27.csv","xpyriment","Jazzy James","3.1.9","yes","yes","59a800d99ad5a1025d81bb03","59a801616c613b0251691de0","no","no","0","j","f","space","NA","space","space","j","1097","2983","21431","NA","33981","9194","1097","2","legacy","1024","1","44100","-16","experiment","enfal","2","0","0","0","1","English, French","27","","odd","1272151","1250182","NA","NA","1275135","1272147","NA","1617","1271667","1617","1617","1166214","1200200","1342301","1340795","1343399","1213485","1209681","1250182","NA","1104834","1154832","1248525","1209459","1272151","1209684","NA","1342301","1342301","NA","NA","1340792","NAP perception","19","30850","21","yes","1024"
"86.3636363636","yes","86.3636363636","1479.77272727","1479.77272727","white","no","xpyriment","Ich habe die obigen Informationen gelesen und verstanden.","legacy","legacy","0","uniform","0","0","0","undefined","undefined","0","f","2","1","NA","0","1","0","0","0","0","0","0","0","0","31","31","31","0","0","0","NA","0","0","2","0","0","0","2","31","31","31","31","31","Thu Oct 26 14:14:08 2017","Forced-choice identification task with a practice and an experimental phase","yes","NAP_GER_AA_4blocks_noglides.osexp","/Users/aviadalbert/Documents/Academisch/UoC/Dissertation/Experiment/OpenSesame/NAP-FC/NAP_GER_AA_4blocks_noglides","yes","no","sans","no","20","no","black","no","Weiter","yes","768","legacy","21","9","0","/Users/aviadalbert/Documents/Academisch/UoC/Dissertation/Experiment/OpenSesame/NAP-FC/NAP_GER_AA_4blocks_noglides/subject-27.csv","xpyriment","Jazzy James","3.1.9","yes","yes","59a800d99ad5a1025d81bb03","59a801616c613b0251691de0","no","no","0","j","f","space","NA","space","space","j","1705","2983","21431","NA","33981","9194","1705","2","legacy","1024","1","44100","-16","experiment","msal","2","0","0","0","1","English, French","27","","odd","1272151","1250182","NA","NA","1275135","1272147","NA","1617","1271667","1617","1617","1166214","1200200","1345178","1343675","1346884","1213485","1209681","1250182","NA","1104834","1154832","1248525","1209459","1272151","1209684","NA","1345178","1345178","NA","NA","1343671","NAP perception","19","32555","22","yes","1024"
"86.9565217391","yes","86.9565217391","1498.39130435","1498.39130435","white","no","xpyriment","Ich habe die obigen Informationen gelesen und verstanden.","legacy","legacy","0","uniform","1","0","0","undefined","undefined","1","f","2","1","NA","0","1","0","0","0","0","0","0","0","0","32","32","32","0","0","0","NA","0","0","2","0","0","0","2","32","32","32","32","32","Thu Oct 26 14:14:08 2017","Forced-choice identification task with a practice and an experimental phase","yes","NAP_GER_AA_4blocks_noglides.osexp","/Users/aviadalbert/Documents/Academisch/UoC/Dissertation/Experiment/OpenSesame/NAP-FC/NAP_GER_AA_4blocks_noglides","yes","no","sans","no","20","no","black","no","Weiter","yes","768","legacy","22","9","0","/Users/aviadalbert/Documents/Academisch/UoC/Dissertation/Experiment/OpenSesame/NAP-FC/NAP_GER_AA_4blocks_noglides/subject-27.csv","xpyriment","Jazzy James","3.1.9","yes","yes","59a800d99ad5a1025d81bb03","59a801616c613b0251691de0","no","no","0","f","f","space","NA","space","space","f","1908","2983","21431","NA","33981","9194","1908","2","legacy","1024","1","44100","-16","experiment","zmal","2","0","0","0","1","English, French","27","","odd","1272151","1250182","NA","NA","1275135","1272147","NA","1617","1271667","1617","1617","1166214","1200200","1348659","1347154","1350568","1213485","1209681","1250182","NA","1104834","1154832","1248525","1209459","1272151","1209684","NA","1348658","1348658","NA","NA","1347150","NAP perception","20","34463","23","yes","1024"
"87.5","yes","87.5","1520.125","1520.125","white","no","xpyriment","Ich habe die obigen Informationen gelesen und verstanden.","legacy","legacy","0","uniform","1","0","0","undefined","undefined","1","j","2","1","NA","0","1","0","0","0","0","0","0","0","0","33","33","33","0","0","0","NA","0","0","2","0","0","0","2","33","33","33","33","33","Thu Oct 26 14:14:08 2017","Forced-choice identification task with a practice and an experimental phase","yes","NAP_GER_AA_4blocks_noglides.osexp","/Users/aviadalbert/Documents/Academisch/UoC/Dissertation/Experiment/OpenSesame/NAP-FC/NAP_GER_AA_4blocks_noglides","yes","no","sans","no","20","no","black","no","Weiter","yes","768","legacy","23","9","0","/Users/aviadalbert/Documents/Academisch/UoC/Dissertation/Experiment/OpenSesame/NAP-FC/NAP_GER_AA_4blocks_noglides/subject-27.csv","xpyriment","Jazzy James","3.1.9","yes","yes","59a800d99ad5a1025d81bb03","59a801616c613b0251691de0","no","no","0","j","f","space","NA","space","space","j","2020","2983","21431","NA","33981","9194","2020","2","legacy","1024","1","44100","-16","experiment","melal","2","0","0","0","1","English, French","27","","odd","1272151","1250182","NA","NA","1275135","1272147","NA","1617","1271667","1617","1617","1166214","1200200","1352350","1350847","1354371","1213485","1209681","1250182","NA","1104834","1154832","1248525","1209459","1272151","1209684","NA","1352350","1352350","NA","NA","1350843","NAP perception","21","36483","24","yes","1024"
"88","yes","88","1523.16","1523.16","white","no","xpyriment","Ich habe die obigen Informationen gelesen und verstanden.","legacy","legacy","0","uniform","1","0","0","undefined","undefined","1","f","2","1","NA","0","1","0","0","0","0","0","0","0","0","34","34","34","0","0","0","NA","0","0","2","0","0","0","2","34","34","34","34","34","Thu Oct 26 14:14:08 2017","Forced-choice identification task with a practice and an experimental phase","yes","NAP_GER_AA_4blocks_noglides.osexp","/Users/aviadalbert/Documents/Academisch/UoC/Dissertation/Experiment/OpenSesame/NAP-FC/NAP_GER_AA_4blocks_noglides","yes","no","sans","no","20","no","black","no","Weiter","yes","768","legacy","24","9","0","/Users/aviadalbert/Documents/Academisch/UoC/Dissertation/Experiment/OpenSesame/NAP-FC/NAP_GER_AA_4blocks_noglides/subject-27.csv","xpyriment","Jazzy James","3.1.9","yes","yes","59a800d99ad5a1025d81bb03","59a801616c613b0251691de0","no","no","0","f","f","space","NA","space","space","f","1596","2983","21431","NA","33981","9194","1596","2","legacy","1024","1","44100","-16","experiment","fsal","2","0","0","0","1","English, French","27","","odd","1272151","1250182","NA","NA","1275135","1272147","NA","1617","1271667","1617","1617","1166214","1200200","1356154","1354650","1357751","1213485","1209681","1250182","NA","1104834","1154832","1248525","1209459","1272151","1209684","NA","1356154","1356154","NA","NA","1354646","NAP perception","22","38079","25","yes","1024"
"84.6153846154","yes","84.6153846154","1538.38461538","1538.38461538","white","no","xpyriment","Ich habe die obigen Informationen gelesen und verstanden.","legacy","legacy","0","uniform","0","0","0","undefined","undefined","0","f","2","1","NA","0","1","0","0","0","0","0","0","0","0","35","35","35","0","0","0","NA","0","0","2","0","0","0","2","35","35","35","35","35","Thu Oct 26 14:14:08 2017","Forced-choice identification task with a practice and an experimental phase","yes","NAP_GER_AA_4blocks_noglides.osexp","/Users/aviadalbert/Documents/Academisch/UoC/Dissertation/Experiment/OpenSesame/NAP-FC/NAP_GER_AA_4blocks_noglides","yes","no","sans","no","20","no","black","no","Weiter","yes","768","legacy","25","9","0","/Users/aviadalbert/Documents/Academisch/UoC/Dissertation/Experiment/OpenSesame/NAP-FC/NAP_GER_AA_4blocks_noglides/subject-27.csv","xpyriment","Jazzy James","3.1.9","yes","yes","59a800d99ad5a1025d81bb03","59a801616c613b0251691de0","no","no","0","j","f","space","NA","space","space","j","1919","2983","21431","NA","33981","9194","1919","2","legacy","1024","1","44100","-16","experiment","lval","2","0","0","0","1","English, French","27","","odd","1272151","1250182","NA","NA","1275135","1272147","NA","1617","1271667","1617","1617","1166214","1200200","1359537","1358031","1361458","1213485","1209681","1250182","NA","1104834","1154832","1248525","1209459","1272151","1209684","NA","1359537","1359537","NA","NA","1358027","NAP perception","22","39998","26","yes","1024"
"81.4814814815","yes","81.4814814815","1568.77777778","1568.77777778","white","no","xpyriment","Ich habe die obigen Informationen gelesen und verstanden.","legacy","legacy","0","uniform","0","0","0","undefined","undefined","0","j","2","1","NA","0","1","0","0","0","0","0","0","0","0","36","36","36","0","0","0","NA","0","0","2","0","0","0","2","36","36","36","36","36","Thu Oct 26 14:14:08 2017","Forced-choice identification task with a practice and an experimental phase","yes","NAP_GER_AA_4blocks_noglides.osexp","/Users/aviadalbert/Documents/Academisch/UoC/Dissertation/Experiment/OpenSesame/NAP-FC/NAP_GER_AA_4blocks_noglides","yes","no","sans","no","20","no","black","no","Weiter","yes","768","legacy","26","9","0","/Users/aviadalbert/Documents/Academisch/UoC/Dissertation/Experiment/OpenSesame/NAP-FC/NAP_GER_AA_4blocks_noglides/subject-27.csv","xpyriment","Jazzy James","3.1.9","yes","yes","59a800d99ad5a1025d81bb03","59a801616c613b0251691de0","no","no","0","f","f","space","NA","space","space","f","2359","2983","21431","NA","33981","9194","2359","2","legacy","1024","1","44100","-16","experiment","lefal","2","0","0","0","1","English, French","27","","odd","1272151","1250182","NA","NA","1275135","1272147","NA","1617","1271667","1617","1617","1166214","1200200","1363243","1361740","1365604","1213485","1209681","1250182","NA","1104834","1154832","1248525","1209459","1272151","1209684","NA","1363243","1363243","NA","NA","1361736","NAP perception","22","42357","27","yes","1024"
"82.1428571429","yes","82.1428571429","1581.75","1581.75","white","no","xpyriment","Ich habe die obigen Informationen gelesen und verstanden.","legacy","legacy","0","uniform","1","0","0","undefined","undefined","1","f","2","1","NA","0","1","0","0","0","0","0","0","0","0","37","37","37","0","0","0","NA","0","0","2","0","0","0","2","37","37","37","37","37","Thu Oct 26 14:14:08 2017","Forced-choice identification task with a practice and an experimental phase","yes","NAP_GER_AA_4blocks_noglides.osexp","/Users/aviadalbert/Documents/Academisch/UoC/Dissertation/Experiment/OpenSesame/NAP-FC/NAP_GER_AA_4blocks_noglides","yes","no","sans","no","20","no","black","no","Weiter","yes","768","legacy","27","9","0","/Users/aviadalbert/Documents/Academisch/UoC/Dissertation/Experiment/OpenSesame/NAP-FC/NAP_GER_AA_4blocks_noglides/subject-27.csv","xpyriment","Jazzy James","3.1.9","yes","yes","59a800d99ad5a1025d81bb03","59a801616c613b0251691de0","no","no","0","f","f","space","NA","space","space","f","1932","2983","21431","NA","33981","9194","1932","2","legacy","1024","1","44100","-16","experiment","vnal","2","0","0","0","1","English, French","27","","odd","1272151","1250182","NA","NA","1275135","1272147","NA","1617","1271667","1617","1617","1166214","1200200","1367389","1365886","1369323","1213485","1209681","1250182","NA","1104834","1154832","1248525","1209459","1272151","1209684","NA","1367389","1367389","NA","NA","1365882","NAP perception","23","44289","28","yes","1024"
"82.7586206897","yes","82.7586206897","1582.20689655","1582.20689655","white","no","xpyriment","Ich habe die obigen Informationen gelesen und verstanden.","legacy","legacy","0","uniform","1","0","0","undefined","undefined","1","j","2","1","NA","0","1","0","0","0","0","0","0","0","0","38","38","38","0","0","0","NA","0","0","2","0","0","0","2","38","38","38","38","38","Thu Oct 26 14:14:08 2017","Forced-choice identification task with a practice and an experimental phase","yes","NAP_GER_AA_4blocks_noglides.osexp","/Users/aviadalbert/Documents/Academisch/UoC/Dissertation/Experiment/OpenSesame/NAP-FC/NAP_GER_AA_4blocks_noglides","yes","no","sans","no","20","no","black","no","Weiter","yes","768","legacy","28","9","0","/Users/aviadalbert/Documents/Academisch/UoC/Dissertation/Experiment/OpenSesame/NAP-FC/NAP_GER_AA_4blocks_noglides/subject-27.csv","xpyriment","Jazzy James","3.1.9","yes","yes","59a800d99ad5a1025d81bb03","59a801616c613b0251691de0","no","no","0","j","f","space","NA","space","space","j","1595","2983","21431","NA","33981","9194","1595","2","legacy","1024","1","44100","-16","experiment","eʃpal","2","0","0","0","1","English, French","27","","odd","1272151","1250182","NA","NA","1275135","1272147","NA","1617","1271667","1617","1617","1166214","1200200","1371107","1369604","1372704","1213485","1209681","1250182","NA","1104834","1154832","1248525","1209459","1272151","1209684","NA","1371107","1371107","NA","NA","1369600","NAP perception","24","45884","29","yes","1024"
"83.3333333333","yes","83.3333333333","1590.16666667","1590.16666667","white","no","xpyriment","Ich habe die obigen Informationen gelesen und verstanden.","legacy","legacy","0","uniform","1","0","0","undefined","undefined","1","f","2","1","NA","0","1","0","0","0","0","0","0","0","0","39","39","39","0","0","0","NA","0","0","2","0","0","0","2","39","39","39","39","39","Thu Oct 26 14:14:08 2017","Forced-choice identification task with a practice and an experimental phase","yes","NAP_GER_AA_4blocks_noglides.osexp","/Users/aviadalbert/Documents/Academisch/UoC/Dissertation/Experiment/OpenSesame/NAP-FC/NAP_GER_AA_4blocks_noglides","yes","no","sans","no","20","no","black","no","Weiter","yes","768","legacy","29","9","0","/Users/aviadalbert/Documents/Academisch/UoC/Dissertation/Experiment/OpenSesame/NAP-FC/NAP_GER_AA_4blocks_noglides/subject-27.csv","xpyriment","Jazzy James","3.1.9","yes","yes","59a800d99ad5a1025d81bb03","59a801616c613b0251691de0","no","no","0","f","f","space","NA","space","space","f","1821","2983","21431","NA","33981","9194","1821","2","legacy","1024","1","44100","-16","experiment","mnal","2","0","0","0","1","English, French","27","","odd","1272151","1250182","NA","NA","1275135","1272147","NA","1617","1271667","1617","1617","1166214","1200200","1374479","1372976","1376302","1213485","1209681","1250182","NA","1104834","1154832","1248525","1209459","1272151","1209684","NA","1374479","1374479","NA","NA","1372972","NAP perception","25","47705","30","yes","1024"
"80.6451612903","yes","80.6451612903","1601.5483871","1601.5483871","white","no","xpyriment","Ich habe die obigen Informationen gelesen und verstanden.","legacy","legacy","0","uniform","0","0","0","undefined","undefined","0","f","2","1","NA","0","1","0","0","0","0","0","0","0","0","40","40","40","0","0","0","NA","0","0","2","0","0","0","2","40","40","40","40","40","Thu Oct 26 14:14:08 2017","Forced-choice identification task with a practice and an experimental phase","yes","NAP_GER_AA_4blocks_noglides.osexp","/Users/aviadalbert/Documents/Academisch/UoC/Dissertation/Experiment/OpenSesame/NAP-FC/NAP_GER_AA_4blocks_noglides","yes","no","sans","no","20","no","black","no","Weiter","yes","768","legacy","30","9","0","/Users/aviadalbert/Documents/Academisch/UoC/Dissertation/Experiment/OpenSesame/NAP-FC/NAP_GER_AA_4blocks_noglides/subject-27.csv","xpyriment","Jazzy James","3.1.9","yes","yes","59a800d99ad5a1025d81bb03","59a801616c613b0251691de0","no","no","0","j","f","space","NA","space","space","j","1943","2983","21431","NA","33981","9194","1943","2","legacy","1024","1","44100","-16","experiment","npal","2","0","0","0","1","English, French","27","","odd","1272151","1250182","NA","NA","1275135","1272147","NA","1617","1271667","1617","1617","1166214","1200200","1378073","1376570","1380018","1213485","1209681","1250182","NA","1104834","1154832","1248525","1209459","1272151","1209684","NA","1378073","1378073","NA","NA","1376566","NAP perception","25","49648","31","yes","1024"
"78.125","yes","78.125","1637.5625","1637.5625","white","no","xpyriment","Ich habe die obigen Informationen gelesen und verstanden.","legacy","legacy","0","uniform","0","0","0","undefined","undefined","0","f","2","1","NA","0","1","0","0","0","0","0","0","0","0","41","41","41","0","0","0","NA","0","0","2","0","0","0","2","41","41","41","41","41","Thu Oct 26 14:14:08 2017","Forced-choice identification task with a practice and an experimental phase","yes","NAP_GER_AA_4blocks_noglides.osexp","/Users/aviadalbert/Documents/Academisch/UoC/Dissertation/Experiment/OpenSesame/NAP-FC/NAP_GER_AA_4blocks_noglides","yes","no","sans","no","20","no","black","no","Weiter","yes","768","legacy","31","9","0","/Users/aviadalbert/Documents/Academisch/UoC/Dissertation/Experiment/OpenSesame/NAP-FC/NAP_GER_AA_4blocks_noglides/subject-27.csv","xpyriment","Jazzy James","3.1.9","yes","yes","59a800d99ad5a1025d81bb03","59a801616c613b0251691de0","no","no","0","j","f","space","NA","space","space","j","2754","2983","21431","NA","33981","9194","2754","2","legacy","1024","1","44100","-16","experiment","lmal","2","0","0","0","1","English, French","27","","odd","1272151","1250182","NA","NA","1275135","1272147","NA","1617","1271667","1617","1617","1166214","1200200","1381793","1380290","1384548","1213485","1209681","1250182","NA","1104834","1154832","1248525","1209459","1272151","1209684","NA","1381793","1381793","NA","NA","1380286","NAP perception","25","52402","32","yes","1024"
"78.7878787879","yes","78.7878787879","1640.84848485","1640.84848485","white","no","xpyriment","Ich habe die obigen Informationen gelesen und verstanden.","legacy","legacy","0","uniform","1","0","0","undefined","undefined","1","j","2","1","NA","0","1","0","0","0","0","0","0","0","0","42","42","42","0","0","0","NA","0","0","2","0","0","0","2","42","42","42","42","42","Thu Oct 26 14:14:08 2017","Forced-choice identification task with a practice and an experimental phase","yes","NAP_GER_AA_4blocks_noglides.osexp","/Users/aviadalbert/Documents/Academisch/UoC/Dissertation/Experiment/OpenSesame/NAP-FC/NAP_GER_AA_4blocks_noglides","yes","no","sans","no","20","no","black","no","Weiter","yes","768","legacy","32","9","0","/Users/aviadalbert/Documents/Academisch/UoC/Dissertation/Experiment/OpenSesame/NAP-FC/NAP_GER_AA_4blocks_noglides/subject-27.csv","xpyriment","Jazzy James","3.1.9","yes","yes","59a800d99ad5a1025d81bb03","59a801616c613b0251691de0","no","no","0","j","f","space","NA","space","space","j","1746","2983","21431","NA","33981","9194","1746","2","legacy","1024","1","44100","-16","experiment","efnal","2","0","0","0","1","English, French","27","","odd","1272151","1250182","NA","NA","1275135","1272147","NA","1617","1271667","1617","1617","1166214","1200200","1386320","1384814","1388068","1213485","1209681","1250182","NA","1104834","1154832","1248525","1209459","1272151","1209684","NA","1386320","1386320","NA","NA","1384810","NAP perception","26","54148","33","yes","1024"
"79.4117647059","yes","79.4117647059","1637.61764706","1637.61764706","white","no","xpyriment","Ich habe die obigen Informationen gelesen und verstanden.","legacy","legacy","0","uniform","1","0","0","undefined","undefined","1","f","2","1","NA","0","1","0","0","0","0","0","0","0","0","43","43","43","0","0","0","NA","0","0","2","0","0","0","2","43","43","43","43","43","Thu Oct 26 14:14:08 2017","Forced-choice identification task with a practice and an experimental phase","yes","NAP_GER_AA_4blocks_noglides.osexp","/Users/aviadalbert/Documents/Academisch/UoC/Dissertation/Experiment/OpenSesame/NAP-FC/NAP_GER_AA_4blocks_noglides","yes","no","sans","no","20","no","black","no","Weiter","yes","768","legacy","33","9","0","/Users/aviadalbert/Documents/Academisch/UoC/Dissertation/Experiment/OpenSesame/NAP-FC/NAP_GER_AA_4blocks_noglides/subject-27.csv","xpyriment","Jazzy James","3.1.9","yes","yes","59a800d99ad5a1025d81bb03","59a801616c613b0251691de0","no","no","0","f","f","space","NA","space","space","f","1531","2983","21431","NA","33981","9194","1531","2","legacy","1024","1","44100","-16","experiment","ftal","2","0","0","0","1","English, French","27","","odd","1272151","1250182","NA","NA","1275135","1272147","NA","1617","1271667","1617","1617","1166214","1200200","1389855","1388350","1391388","1213485","1209681","1250182","NA","1104834","1154832","1248525","1209459","1272151","1209684","NA","1389854","1389855","NA","NA","1388346","NAP perception","27","55679","34","yes","1024"
"80","yes","80","1627.28571429","1627.28571429","white","no","xpyriment","Ich habe die obigen Informationen gelesen und verstanden.","legacy","legacy","0","uniform","1","0","0","undefined","undefined","1","j","2","1","NA","0","1","0","0","0","0","0","0","0","0","44","44","44","0","0","0","NA","0","0","2","0","0","0","2","44","44","44","44","44","Thu Oct 26 14:14:08 2017","Forced-choice identification task with a practice and an experimental phase","yes","NAP_GER_AA_4blocks_noglides.osexp","/Users/aviadalbert/Documents/Academisch/UoC/Dissertation/Experiment/OpenSesame/NAP-FC/NAP_GER_AA_4blocks_noglides","yes","no","sans","no","20","no","black","no","Weiter","yes","768","legacy","34","9","0","/Users/aviadalbert/Documents/Academisch/UoC/Dissertation/Experiment/OpenSesame/NAP-FC/NAP_GER_AA_4blocks_noglides/subject-27.csv","xpyriment","Jazzy James","3.1.9","yes","yes","59a800d99ad5a1025d81bb03","59a801616c613b0251691de0","no","no","0","j","f","space","NA","space","space","j","1276","2983","21431","NA","33981","9194","1276","2","legacy","1024","1","44100","-16","experiment","espal","2","0","0","0","1","English, French","27","","odd","1272151","1250182","NA","NA","1275135","1272147","NA","1617","1271667","1617","1617","1166214","1200200","1393176","1391670","1394454","1213485","1209681","1250182","NA","1104834","1154832","1248525","1209459","1272151","1209684","NA","1393176","1393176","NA","NA","1391666","NAP perception","28","56955","35","yes","1024"
"80.5555555556","yes","80.5555555556","1631.13888889","1631.13888889","white","no","xpyriment","Ich habe die obigen Informationen gelesen und verstanden.","legacy","legacy","0","uniform","1","0","0","undefined","undefined","1","f","2","1","NA","0","1","0","0","0","0","0","0","0","0","45","45","45","0","0","0","NA","0","0","2","0","0","0","2","45","45","45","45","45","Thu Oct 26 14:14:08 2017","Forced-choice identification task with a practice and an experimental phase","yes","NAP_GER_AA_4blocks_noglides.osexp","/Users/aviadalbert/Documents/Academisch/UoC/Dissertation/Experiment/OpenSesame/NAP-FC/NAP_GER_AA_4blocks_noglides","yes","no","sans","no","20","no","black","no","Weiter","yes","768","legacy","35","9","0","/Users/aviadalbert/Documents/Academisch/UoC/Dissertation/Experiment/OpenSesame/NAP-FC/NAP_GER_AA_4blocks_noglides/subject-27.csv","xpyriment","Jazzy James","3.1.9","yes","yes","59a800d99ad5a1025d81bb03","59a801616c613b0251691de0","no","no","0","f","f","space","NA","space","space","f","1766","2983","21431","NA","33981","9194","1766","2","legacy","1024","1","44100","-16","experiment","vzal","2","0","0","0","1","English, French","27","","odd","1272151","1250182","NA","NA","1275135","1272147","NA","1617","1271667","1617","1617","1166214","1200200","1396241","1394738","1398009","1213485","1209681","1250182","NA","1104834","1154832","1248525","1209459","1272151","1209684","NA","1396241","1396241","NA","NA","1394734","NAP perception","29","58721","36","yes","1024"
"81.0810810811","yes","81.0810810811","1625.48648649","1625.48648649","white","no","xpyriment","Ich habe die obigen Informationen gelesen und verstanden.","legacy","legacy","0","uniform","1","0","0","undefined","undefined","1","j","2","1","NA","0","1","0","0","0","0","0","0","0","0","46","46","46","0","0","0","NA","0","0","2","0","0","0","2","46","46","46","46","46","Thu Oct 26 14:14:08 2017","Forced-choice identification task with a practice and an experimental phase","yes","NAP_GER_AA_4blocks_noglides.osexp","/Users/aviadalbert/Documents/Academisch/UoC/Dissertation/Experiment/OpenSesame/NAP-FC/NAP_GER_AA_4blocks_noglides","yes","no","sans","no","20","no","black","no","Weiter","yes","768","legacy","36","9","0","/Users/aviadalbert/Documents/Academisch/UoC/Dissertation/Experiment/OpenSesame/NAP-FC/NAP_GER_AA_4blocks_noglides/subject-27.csv","xpyriment","Jazzy James","3.1.9","yes","yes","59a800d99ad5a1025d81bb03","59a801616c613b0251691de0","no","no","0","j","f","space","NA","space","space","j","1422","2983","21431","NA","33981","9194","1422","2","legacy","1024","1","44100","-16","experiment","ezmal","2","0","0","0","1","English, French","27","","odd","1272151","1250182","NA","NA","1275135","1272147","NA","1617","1271667","1617","1617","1166214","1200200","1399801","1398297","1401225","1213485","1209681","1250182","NA","1104834","1154832","1248525","1209459","1272151","1209684","NA","1399801","1399801","NA","NA","1398293","NAP perception","30","60143","37","yes","1024"
"81.5789473684","yes","81.5789473684","1621.71052632","1621.71052632","white","no","xpyriment","Ich habe die obigen Informationen gelesen und verstanden.","legacy","legacy","0","uniform","1","0","0","undefined","undefined","1","j","2","1","NA","0","1","0","0","0","0","0","0","0","0","47","47","47","0","0","0","NA","0","0","2","0","0","0","2","47","47","47","47","47","Thu Oct 26 14:14:08 2017","Forced-choice identification task with a practice and an experimental phase","yes","NAP_GER_AA_4blocks_noglides.osexp","/Users/aviadalbert/Documents/Academisch/UoC/Dissertation/Experiment/OpenSesame/NAP-FC/NAP_GER_AA_4blocks_noglides","yes","no","sans","no","20","no","black","no","Weiter","yes","768","legacy","37","9","0","/Users/aviadalbert/Documents/Academisch/UoC/Dissertation/Experiment/OpenSesame/NAP-FC/NAP_GER_AA_4blocks_noglides/subject-27.csv","xpyriment","Jazzy James","3.1.9","yes","yes","59a800d99ad5a1025d81bb03","59a801616c613b0251691de0","no","no","0","j","f","space","NA","space","space","j","1482","2983","21431","NA","33981","9194","1482","2","legacy","1024","1","44100","-16","experiment","evlal","2","0","0","0","1","English, French","27","","odd","1272151","1250182","NA","NA","1275135","1272147","NA","1617","1271667","1617","1617","1166214","1200200","1402998","1401495","1404482","1213485","1209681","1250182","NA","1104834","1154832","1248525","1209459","1272151","1209684","NA","1402998","1402998","NA","NA","1401491","NAP perception","31","61625","38","yes","1024"
"82.0512820513","yes","82.0512820513","1606.05128205","1606.05128205","white","no","xpyriment","Ich habe die obigen Informationen gelesen und verstanden.","legacy","legacy","0","uniform","1","0","0","undefined","undefined","1","f","2","1","NA","0","1","0","0","0","0","0","0","0","0","48","48","48","0","0","0","NA","0","0","2","0","0","0","2","48","48","48","48","48","Thu Oct 26 14:14:08 2017","Forced-choice identification task with a practice and an experimental phase","yes","NAP_GER_AA_4blocks_noglides.osexp","/Users/aviadalbert/Documents/Academisch/UoC/Dissertation/Experiment/OpenSesame/NAP-FC/NAP_GER_AA_4blocks_noglides","yes","no","sans","no","20","no","black","no","Weiter","yes","768","legacy","38","9","0","/Users/aviadalbert/Documents/Academisch/UoC/Dissertation/Experiment/OpenSesame/NAP-FC/NAP_GER_AA_4blocks_noglides/subject-27.csv","xpyriment","Jazzy James","3.1.9","yes","yes","59a800d99ad5a1025d81bb03","59a801616c613b0251691de0","no","no","0","f","f","space","NA","space","space","f","1011","2983","21431","NA","33981","9194","1011","2","legacy","1024","1","44100","-16","experiment","sfal","2","0","0","0","1","English, French","27","","odd","1272151","1250182","NA","NA","1275135","1272147","NA","1617","1271667","1617","1617","1166214","1200200","1406272","1404769","1407285","1213485","1209681","1250182","NA","1104834","1154832","1248525","1209459","1272151","1209684","NA","1406272","1406272","NA","NA","1404765","NAP perception","32","62636","39","yes","1024"
"82.5","yes","82.5","1592.525","1592.525","white","no","xpyriment","Ich habe die obigen Informationen gelesen und verstanden.","legacy","legacy","0","uniform","1","0","0","undefined","undefined","1","f","2","1","NA","0","1","0","0","0","0","0","0","0","0","49","49","49","0","0","0","NA","0","0","2","0","0","0","2","49","49","49","49","49","Thu Oct 26 14:14:08 2017","Forced-choice identification task with a practice and an experimental phase","yes","NAP_GER_AA_4blocks_noglides.osexp","/Users/aviadalbert/Documents/Academisch/UoC/Dissertation/Experiment/OpenSesame/NAP-FC/NAP_GER_AA_4blocks_noglides","yes","no","sans","no","20","no","black","no","Weiter","yes","768","legacy","39","9","0","/Users/aviadalbert/Documents/Academisch/UoC/Dissertation/Experiment/OpenSesame/NAP-FC/NAP_GER_AA_4blocks_noglides/subject-27.csv","xpyriment","Jazzy James","3.1.9","yes","yes","59a800d99ad5a1025d81bb03","59a801616c613b0251691de0","no","no","0","f","f","space","NA","space","space","f","1065","2983","21431","NA","33981","9194","1065","2","legacy","1024","1","44100","-16","experiment","sfal","2","0","0","0","1","English, French","27","","odd","1272151","1250182","NA","NA","1275135","1272147","NA","1617","1271667","1617","1617","1166214","1200200","1409077","1407573","1410144","1213485","1209681","1250182","NA","1104834","1154832","1248525","1209459","1272151","1209684","NA","1409077","1409077","NA","NA","1407569","NAP perception","33","63701","40","yes","1024"
"82.9268292683","yes","82.9268292683","1595.17073171","1595.17073171","white","no","xpyriment","Ich habe die obigen Informationen gelesen und verstanden.","legacy","legacy","0","uniform","1","0","0","undefined","undefined","1","j","2","1","NA","0","1","0","0","0","0","0","0","0","0","50","50","50","0","0","0","NA","0","0","2","0","0","0","2","50","50","50","50","50","Thu Oct 26 14:14:08 2017","Forced-choice identification task with a practice and an experimental phase","yes","NAP_GER_AA_4blocks_noglides.osexp","/Users/aviadalbert/Documents/Academisch/UoC/Dissertation/Experiment/OpenSesame/NAP-FC/NAP_GER_AA_4blocks_noglides","yes","no","sans","no","20","no","black","no","Weiter","yes","768","legacy","40","9","0","/Users/aviadalbert/Documents/Academisch/UoC/Dissertation/Experiment/OpenSesame/NAP-FC/NAP_GER_AA_4blocks_noglides/subject-27.csv","xpyriment","Jazzy James","3.1.9","yes","yes","59a800d99ad5a1025d81bb03","59a801616c613b0251691de0","no","no","0","j","f","space","NA","space","space","j","1701","2983","21431","NA","33981","9194","1701","2","legacy","1024","1","44100","-16","experiment","emsal","2","0","0","0","1","English, French","27","","odd","1272151","1250182","NA","NA","1275135","1272147","NA","1617","1271667","1617","1617","1166214","1200200","1411928","1410424","1413630","1213485","1209681","1250182","NA","1104834","1154832","1248525","1209459","1272151","1209684","NA","1411928","1411928","NA","NA","1410420","NAP perception","34","65402","41","yes","1024"
"83.3333333333","yes","83.3333333333","1597.88095238","1597.88095238","white","no","xpyriment","Ich habe die obigen Informationen gelesen und verstanden.","legacy","legacy","0","uniform","1","0","0","undefined","undefined","1","j","2","1","NA","0","1","0","0","0","0","0","0","0","0","51","51","51","0","0","0","NA","0","0","2","0","0","0","2","51","51","51","51","51","Thu Oct 26 14:14:08 2017","Forced-choice identification task with a practice and an experimental phase","yes","NAP_GER_AA_4blocks_noglides.osexp","/Users/aviadalbert/Documents/Academisch/UoC/Dissertation/Experiment/OpenSesame/NAP-FC/NAP_GER_AA_4blocks_noglides","yes","no","sans","no","20","no","black","no","Weiter","yes","768","legacy","41","9","0","/Users/aviadalbert/Documents/Academisch/UoC/Dissertation/Experiment/OpenSesame/NAP-FC/NAP_GER_AA_4blocks_noglides/subject-27.csv","xpyriment","Jazzy James","3.1.9","yes","yes","59a800d99ad5a1025d81bb03","59a801616c613b0251691de0","no","no","0","j","f","space","NA","space","space","j","1709","2983","21431","NA","33981","9194","1709","2","legacy","1024","1","44100","-16","experiment","lemal","2","0","0","0","1","English, French","27","","odd","1272151","1250182","NA","NA","1275135","1272147","NA","1617","1271667","1617","1617","1166214","1200200","1415407","1413904","1417118","1213485","1209681","1250182","NA","1104834","1154832","1248525","1209459","1272151","1209684","NA","1415407","1415407","NA","NA","1413900","NAP perception","35","67111","42","yes","1024"
"83.7209302326","yes","83.7209302326","1591.97674419","1591.97674419","white","no","xpyriment","Ich habe die obigen Informationen gelesen und verstanden.","legacy","legacy","0","uniform","1","0","0","undefined","undefined","1","j","2","1","NA","0","1","0","0","0","0","0","0","0","0","52","52","52","0","0","0","NA","0","0","2","0","0","0","2","52","52","52","52","52","Thu Oct 26 14:14:08 2017","Forced-choice identification task with a practice and an experimental phase","yes","NAP_GER_AA_4blocks_noglides.osexp","/Users/aviadalbert/Documents/Academisch/UoC/Dissertation/Experiment/OpenSesame/NAP-FC/NAP_GER_AA_4blocks_noglides","yes","no","sans","no","20","no","black","no","Weiter","yes","768","legacy","42","9","0","/Users/aviadalbert/Documents/Academisch/UoC/Dissertation/Experiment/OpenSesame/NAP-FC/NAP_GER_AA_4blocks_noglides/subject-27.csv","xpyriment","Jazzy James","3.1.9","yes","yes","59a800d99ad5a1025d81bb03","59a801616c613b0251691de0","no","no","0","j","f","space","NA","space","space","j","1344","2983","21431","NA","33981","9194","1344","2","legacy","1024","1","44100","-16","experiment","elkal","2","0","0","0","1","English, French","27","","odd","1272151","1250182","NA","NA","1275135","1272147","NA","1617","1271667","1617","1617","1166214","1200200","1418922","1417414","1420268","1213485","1209681","1250182","NA","1104834","1154832","1248525","1209459","1272151","1209684","NA","1418921","1418922","NA","NA","1417410","NAP perception","36","68455","43","yes","1024"
"81.8181818182","yes","81.8181818182","1608.47727273","1608.47727273","white","no","xpyriment","Ich habe die obigen Informationen gelesen und verstanden.","legacy","legacy","0","uniform","0","0","0","undefined","undefined","0","f","2","1","NA","0","1","0","0","0","0","0","0","0","0","53","53","53","0","0","0","NA","0","0","2","0","0","0","2","53","53","53","53","53","Thu Oct 26 14:14:08 2017","Forced-choice identification task with a practice and an experimental phase","yes","NAP_GER_AA_4blocks_noglides.osexp","/Users/aviadalbert/Documents/Academisch/UoC/Dissertation/Experiment/OpenSesame/NAP-FC/NAP_GER_AA_4blocks_noglides","yes","no","sans","no","20","no","black","no","Weiter","yes","768","legacy","43","9","0","/Users/aviadalbert/Documents/Academisch/UoC/Dissertation/Experiment/OpenSesame/NAP-FC/NAP_GER_AA_4blocks_noglides/subject-27.csv","xpyriment","Jazzy James","3.1.9","yes","yes","59a800d99ad5a1025d81bb03","59a801616c613b0251691de0","no","no","0","j","f","space","NA","space","space","j","2318","2983","21431","NA","33981","9194","2318","2","legacy","1024","1","44100","-16","experiment","mlal","2","0","0","0","1","English, French","27","","odd","1272151","1250182","NA","NA","1275135","1272147","NA","1617","1271667","1617","1617","1166214","1200200","1422049","1420543","1424369","1213485","1209681","1250182","NA","1104834","1154832","1248525","1209459","1272151","1209684","NA","1422049","1422049","NA","NA","1420539","NAP perception","36","70773","44","yes","1024"
"82.2222222222","yes","82.2222222222","1605.88888889","1605.88888889","white","no","xpyriment","Ich habe die obigen Informationen gelesen und verstanden.","legacy","legacy","0","uniform","1","0","0","undefined","undefined","1","j","2","1","NA","0","1","0","0","0","0","0","0","0","0","54","54","54","0","0","0","NA","0","0","2","0","0","0","2","54","54","54","54","54","Thu Oct 26 14:14:08 2017","Forced-choice identification task with a practice and an experimental phase","yes","NAP_GER_AA_4blocks_noglides.osexp","/Users/aviadalbert/Documents/Academisch/UoC/Dissertation/Experiment/OpenSesame/NAP-FC/NAP_GER_AA_4blocks_noglides","yes","no","sans","no","20","no","black","no","Weiter","yes","768","legacy","44","9","0","/Users/aviadalbert/Documents/Academisch/UoC/Dissertation/Experiment/OpenSesame/NAP-FC/NAP_GER_AA_4blocks_noglides/subject-27.csv","xpyriment","Jazzy James","3.1.9","yes","yes","59a800d99ad5a1025d81bb03","59a801616c613b0251691de0","no","no","0","j","f","space","NA","space","space","j","1492","2983","21431","NA","33981","9194","1492","2","legacy","1024","1","44100","-16","experiment","eflal","2","0","0","0","1","English, French","27","","odd","1272151","1250182","NA","NA","1275135","1272147","NA","1617","1271667","1617","1617","1166214","1200200","1426141","1424638","1427635","1213485","1209681","1250182","NA","1104834","1154832","1248525","1209459","1272151","1209684","NA","1426141","1426141","NA","NA","1424634","NAP perception","37","72265","45","yes","1024"
"82.6086956522","yes","82.6086956522","1596.60869565","1596.60869565","white","no","xpyriment","Ich habe die obigen Informationen gelesen und verstanden.","legacy","legacy","0","uniform","1","0","0","undefined","undefined","1","j","2","1","NA","0","1","0","0","0","0","0","0","0","0","55","55","55","0","0","0","NA","0","0","2","0","0","0","2","55","55","55","55","55","Thu Oct 26 14:14:08 2017","Forced-choice identification task with a practice and an experimental phase","yes","NAP_GER_AA_4blocks_noglides.osexp","/Users/aviadalbert/Documents/Academisch/UoC/Dissertation/Experiment/OpenSesame/NAP-FC/NAP_GER_AA_4blocks_noglides","yes","no","sans","no","20","no","black","no","Weiter","yes","768","legacy","45","9","0","/Users/aviadalbert/Documents/Academisch/UoC/Dissertation/Experiment/OpenSesame/NAP-FC/NAP_GER_AA_4blocks_noglides/subject-27.csv","xpyriment","Jazzy James","3.1.9","yes","yes","59a800d99ad5a1025d81bb03","59a801616c613b0251691de0","no","no","0","j","f","space","NA","space","space","j","1179","2983","21431","NA","33981","9194","1179","2","legacy","1024","1","44100","-16","experiment","metal","2","0","0","0","1","English, French","27","","odd","1272151","1250182","NA","NA","1275135","1272147","NA","1617","1271667","1617","1617","1166214","1200200","1429396","1427892","1430577","1213485","1209681","1250182","NA","1104834","1154832","1248525","1209459","1272151","1209684","NA","1429396","1429396","NA","NA","1427889","NAP perception","38","73444","46","yes","1024"
"82.9787234043","yes","82.9787234043","1587.38297872","1587.38297872","white","no","xpyriment","Ich habe die obigen Informationen gelesen und verstanden.","legacy","legacy","0","uniform","1","0","0","undefined","undefined","1","j","2","1","NA","0","1","0","0","0","0","0","0","0","0","56","56","56","0","0","0","NA","0","0","2","0","0","0","2","56","56","56","56","56","Thu Oct 26 14:14:08 2017","Forced-choice identification task with a practice and an experimental phase","yes","NAP_GER_AA_4blocks_noglides.osexp","/Users/aviadalbert/Documents/Academisch/UoC/Dissertation/Experiment/OpenSesame/NAP-FC/NAP_GER_AA_4blocks_noglides","yes","no","sans","no","20","no","black","no","Weiter","yes","768","legacy","46","9","0","/Users/aviadalbert/Documents/Academisch/UoC/Dissertation/Experiment/OpenSesame/NAP-FC/NAP_GER_AA_4blocks_noglides/subject-27.csv","xpyriment","Jazzy James","3.1.9","yes","yes","59a800d99ad5a1025d81bb03","59a801616c613b0251691de0","no","no","0","j","f","space","NA","space","space","j","1163","2983","21431","NA","33981","9194","1163","2","legacy","1024","1","44100","-16","experiment","lekal","2","0","0","0","1","English, French","27","","odd","1272151","1250182","NA","NA","1275135","1272147","NA","1617","1271667","1617","1617","1166214","1200200","1432368","1430862","1433533","1213485","1209681","1250182","NA","1104834","1154832","1248525","1209459","1272151","1209684","NA","1432368","1432368","NA","NA","1430858","NAP perception","39","74607","47","yes","1024"
"83.3333333333","yes","83.3333333333","1577.58333333","1577.58333333","white","no","xpyriment","Ich habe die obigen Informationen gelesen und verstanden.","legacy","legacy","0","uniform","1","0","0","undefined","undefined","1","f","2","1","NA","0","1","0","0","0","0","0","0","0","0","57","57","57","0","0","0","NA","0","0","2","0","0","0","2","57","57","57","57","57","Thu Oct 26 14:14:08 2017","Forced-choice identification task with a practice and an experimental phase","yes","NAP_GER_AA_4blocks_noglides.osexp","/Users/aviadalbert/Documents/Academisch/UoC/Dissertation/Experiment/OpenSesame/NAP-FC/NAP_GER_AA_4blocks_noglides","yes","no","sans","no","20","no","black","no","Weiter","yes","768","legacy","47","9","0","/Users/aviadalbert/Documents/Academisch/UoC/Dissertation/Experiment/OpenSesame/NAP-FC/NAP_GER_AA_4blocks_noglides/subject-27.csv","xpyriment","Jazzy James","3.1.9","yes","yes","59a800d99ad5a1025d81bb03","59a801616c613b0251691de0","no","no","0","f","f","space","NA","space","space","f","1117","2983","21431","NA","33981","9194","1117","2","legacy","1024","1","44100","-16","experiment","spal","2","0","0","0","1","English, French","27","","odd","1272151","1250182","NA","NA","1275135","1272147","NA","1617","1271667","1617","1617","1166214","1200200","1435319","1433813","1436438","1213485","1209681","1250182","NA","1104834","1154832","1248525","1209459","1272151","1209684","NA","1435319","1435319","NA","NA","1433809","NAP perception","40","75724","48","yes","1024"
"83.6734693878","yes","83.6734693878","1588.04081633","1588.04081633","white","no","xpyriment","Ich habe die obigen Informationen gelesen und verstanden.","legacy","legacy","0","uniform","1","0","0","undefined","undefined","1","f","2","1","NA","0","1","0","0","0","0","0","0","0","0","58","58","58","0","0","0","NA","0","0","2","0","0","0","2","58","58","58","58","58","Thu Oct 26 14:14:08 2017","Forced-choice identification task with a practice and an experimental phase","yes","NAP_GER_AA_4blocks_noglides.osexp","/Users/aviadalbert/Documents/Academisch/UoC/Dissertation/Experiment/OpenSesame/NAP-FC/NAP_GER_AA_4blocks_noglides","yes","no","sans","no","20","no","black","no","Weiter","yes","768","legacy","48","9","0","/Users/aviadalbert/Documents/Academisch/UoC/Dissertation/Experiment/OpenSesame/NAP-FC/NAP_GER_AA_4blocks_noglides/subject-27.csv","xpyriment","Jazzy James","3.1.9","yes","yes","59a800d99ad5a1025d81bb03","59a801616c613b0251691de0","no","no","0","f","f","space","NA","space","space","f","2090","2983","21431","NA","33981","9194","2090","2","legacy","1024","1","44100","-16","experiment","mnal","2","0","0","0","1","English, French","27","","odd","1272151","1250182","NA","NA","1275135","1272147","NA","1617","1271667","1617","1617","1166214","1200200","1438219","1436715","1440311","1213485","1209681","1250182","NA","1104834","1154832","1248525","1209459","1272151","1209684","NA","1438219","1438219","NA","NA","1436711","NAP perception","41","77814","49","yes","1024"
"84","yes","84","1584.88","1584.88","white","no","xpyriment","Ich habe die obigen Informationen gelesen und verstanden.","legacy","legacy","0","uniform","1","0","0","undefined","undefined","1","f","2","1","NA","0","1","0","0","0","0","0","0","0","0","59","59","59","0","0","0","NA","0","0","2","0","0","0","2","59","59","59","59","59","Thu Oct 26 14:14:08 2017","Forced-choice identification task with a practice and an experimental phase","yes","NAP_GER_AA_4blocks_noglides.osexp","/Users/aviadalbert/Documents/Academisch/UoC/Dissertation/Experiment/OpenSesame/NAP-FC/NAP_GER_AA_4blocks_noglides","yes","no","sans","no","20","no","black","no","Weiter","yes","768","legacy","49","9","0","/Users/aviadalbert/Documents/Academisch/UoC/Dissertation/Experiment/OpenSesame/NAP-FC/NAP_GER_AA_4blocks_noglides/subject-27.csv","xpyriment","Jazzy James","3.1.9","yes","yes","59a800d99ad5a1025d81bb03","59a801616c613b0251691de0","no","no","0","f","f","space","NA","space","space","f","1430","2983","21431","NA","33981","9194","1430","2","legacy","1024","1","44100","-16","experiment","spal","2","0","0","0","1","English, French","27","","odd","1272151","1250182","NA","NA","1275135","1272147","NA","1617","1271667","1617","1617","1166214","1200200","1442087","1440584","1443519","1213485","1209681","1250182","NA","1104834","1154832","1248525","1209459","1272151","1209684","NA","1442087","1442087","NA","NA","1440580","NAP perception","42","79244","50","yes","1024"
"82.3529411765","yes","82.3529411765","1603.43137255","1603.43137255","white","no","xpyriment","Ich habe die obigen Informationen gelesen und verstanden.","legacy","legacy","0","uniform","0","0","0","undefined","undefined","0","f","2","1","NA","0","1","0","0","0","0","0","0","0","0","60","60","60","0","0","0","NA","0","0","2","0","0","0","2","60","60","60","60","60","Thu Oct 26 14:14:08 2017","Forced-choice identification task with a practice and an experimental phase","yes","NAP_GER_AA_4blocks_noglides.osexp","/Users/aviadalbert/Documents/Academisch/UoC/Dissertation/Experiment/OpenSesame/NAP-FC/NAP_GER_AA_4blocks_noglides","yes","no","sans","no","20","no","black","no","Weiter","yes","768","legacy","50","9","0","/Users/aviadalbert/Documents/Academisch/UoC/Dissertation/Experiment/OpenSesame/NAP-FC/NAP_GER_AA_4blocks_noglides/subject-27.csv","xpyriment","Jazzy James","3.1.9","yes","yes","59a800d99ad5a1025d81bb03","59a801616c613b0251691de0","no","no","0","j","f","space","NA","space","space","j","2531","2983","21431","NA","33981","9194","2531","2","legacy","1024","1","44100","-16","experiment","nval","2","0","0","0","1","English, French","27","","odd","1272151","1250182","NA","NA","1275135","1272147","NA","1617","1271667","1617","1617","1166214","1200200","1445298","1443795","1447831","1213485","1209681","1250182","NA","1104834","1154832","1248525","1209459","1272151","1209684","NA","1445298","1445298","NA","NA","1443791","NAP perception","42","81775","51","yes","1024"
"82.6923076923","yes","82.6923076923","1599.82692308","1599.82692308","white","no","xpyriment","Ich habe die obigen Informationen gelesen und verstanden.","legacy","legacy","0","uniform","1","0","0","undefined","undefined","1","f","2","1","NA","0","1","0","0","0","0","0","0","0","0","61","61","61","0","0","0","NA","0","0","2","0","0","0","2","61","61","61","61","61","Thu Oct 26 14:14:08 2017","Forced-choice identification task with a practice and an experimental phase","yes","NAP_GER_AA_4blocks_noglides.osexp","/Users/aviadalbert/Documents/Academisch/UoC/Dissertation/Experiment/OpenSesame/NAP-FC/NAP_GER_AA_4blocks_noglides","yes","no","sans","no","20","no","black","no","Weiter","yes","768","legacy","51","9","0","/Users/aviadalbert/Documents/Academisch/UoC/Dissertation/Experiment/OpenSesame/NAP-FC/NAP_GER_AA_4blocks_noglides/subject-27.csv","xpyriment","Jazzy James","3.1.9","yes","yes","59a800d99ad5a1025d81bb03","59a801616c613b0251691de0","no","no","0","f","f","space","NA","space","space","f","1416","2983","21431","NA","33981","9194","1416","2","legacy","1024","1","44100","-16","experiment","vlal","2","0","0","0","1","English, French","27","","odd","1272151","1250182","NA","NA","1275135","1272147","NA","1617","1271667","1617","1617","1166214","1200200","1449604","1448100","1451021","1213485","1209681","1250182","NA","1104834","1154832","1248525","1209459","1272151","1209684","NA","1449604","1449604","NA","NA","1448096","NAP perception","43","83191","52","yes","1024"
"81.1320754717","yes","81.1320754717","1619.75471698","1619.75471698","white","no","xpyriment","Ich habe die obigen Informationen gelesen und verstanden.","legacy","legacy","0","uniform","0","0","0","undefined","undefined","0","f","2","1","NA","0","1","0","0","0","0","0","0","0","0","62","62","62","0","0","0","NA","0","0","2","0","0","0","2","62","62","62","62","62","Thu Oct 26 14:14:08 2017","Forced-choice identification task with a practice and an experimental phase","yes","NAP_GER_AA_4blocks_noglides.osexp","/Users/aviadalbert/Documents/Academisch/UoC/Dissertation/Experiment/OpenSesame/NAP-FC/NAP_GER_AA_4blocks_noglides","yes","no","sans","no","20","no","black","no","Weiter","yes","768","legacy","52","9","0","/Users/aviadalbert/Documents/Academisch/UoC/Dissertation/Experiment/OpenSesame/NAP-FC/NAP_GER_AA_4blocks_noglides/subject-27.csv","xpyriment","Jazzy James","3.1.9","yes","yes","59a800d99ad5a1025d81bb03","59a801616c613b0251691de0","no","no","0","j","f","space","NA","space","space","j","2656","2983","21431","NA","33981","9194","2656","2","legacy","1024","1","44100","-16","experiment","nfal","2","0","0","0","1","English, French","27","","odd","1272151","1250182","NA","NA","1275135","1272147","NA","1617","1271667","1617","1617","1166214","1200200","1452802","1451295","1455460","1213485","1209681","1250182","NA","1104834","1154832","1248525","1209459","1272151","1209684","NA","1452802","1452802","NA","NA","1451291","NAP perception","43","85847","53","yes","1024"
"81.4814814815","yes","81.4814814815","1611.42592593","1611.42592593","white","no","xpyriment","Ich habe die obigen Informationen gelesen und verstanden.","legacy","legacy","0","uniform","1","0","0","undefined","undefined","1","j","2","1","NA","0","1","0","0","0","0","0","0","0","0","63","63","63","0","0","0","NA","0","0","2","0","0","0","2","63","63","63","63","63","Thu Oct 26 14:14:08 2017","Forced-choice identification task with a practice and an experimental phase","yes","NAP_GER_AA_4blocks_noglides.osexp","/Users/aviadalbert/Documents/Academisch/UoC/Dissertation/Experiment/OpenSesame/NAP-FC/NAP_GER_AA_4blocks_noglides","yes","no","sans","no","20","no","black","no","Weiter","yes","768","legacy","53","9","0","/Users/aviadalbert/Documents/Academisch/UoC/Dissertation/Experiment/OpenSesame/NAP-FC/NAP_GER_AA_4blocks_noglides/subject-27.csv","xpyriment","Jazzy James","3.1.9","yes","yes","59a800d99ad5a1025d81bb03","59a801616c613b0251691de0","no","no","0","j","f","space","NA","space","space","j","1170","2983","21431","NA","33981","9194","1170","2","legacy","1024","1","44100","-16","experiment","emzal","2","0","0","0","1","English, French","27","","odd","1272151","1250182","NA","NA","1275135","1272147","NA","1617","1271667","1617","1617","1166214","1200200","1457238","1455735","1458410","1213485","1209681","1250182","NA","1104834","1154832","1248525","1209459","1272151","1209684","NA","1457238","1457238","NA","NA","1455731","NAP perception","44","87017","54","yes","1024"
"81.8181818182","yes","81.8181818182","1601.56363636","1601.56363636","white","no","xpyriment","Ich habe die obigen Informationen gelesen und verstanden.","legacy","legacy","0","uniform","1","0","0","undefined","undefined","1","j","2","1","NA","0","1","0","0","0","0","0","0","0","0","64","64","64","0","0","0","NA","0","0","2","0","0","0","2","64","64","64","64","64","Thu Oct 26 14:14:08 2017","Forced-choice identification task with a practice and an experimental phase","yes","NAP_GER_AA_4blocks_noglides.osexp","/Users/aviadalbert/Documents/Academisch/UoC/Dissertation/Experiment/OpenSesame/NAP-FC/NAP_GER_AA_4blocks_noglides","yes","no","sans","no","20","no","black","no","Weiter","yes","768","legacy","54","9","0","/Users/aviadalbert/Documents/Academisch/UoC/Dissertation/Experiment/OpenSesame/NAP-FC/NAP_GER_AA_4blocks_noglides/subject-27.csv","xpyriment","Jazzy James","3.1.9","yes","yes","59a800d99ad5a1025d81bb03","59a801616c613b0251691de0","no","no","0","j","f","space","NA","space","space","j","1069","2983","21431","NA","33981","9194","1069","2","legacy","1024","1","44100","-16","experiment","nepal","2","0","0","0","1","English, French","27","","odd","1272151","1250182","NA","NA","1275135","1272147","NA","1617","1271667","1617","1617","1166214","1200200","1460197","1458694","1461268","1213485","1209681","1250182","NA","1104834","1154832","1248525","1209459","1272151","1209684","NA","1460197","1460197","NA","NA","1458690","NAP perception","45","88086","55","yes","1024"
