"acc","accept_status","accuracy","average_response_time","avg_rt","background","bidi","canvas_backend","checkbox_status","clock_backend","color_backend","compensation","coordinates","correct","correct_block_activation","correct_block_exit","correct_instructions_1","correct_instructions_2","correct_keyboard_response","correct_response","count_block_activation","count_block_exit","count_block_info_QA","count_cont_e_block_message","count_e_block_loop","count_e_block_sequence","count_end_of_experiment","count_experiment","count_experimental_loop","count_form_consent","count_info_forms","count_instructions_1","count_instructions_2","count_keyboard_response","count_listen_message","count_logger","count_p_block_loop","count_p_block_sequence","count_p_feedback","count_pause_feedback","count_personal_details_form_1","count_personal_details_form_2","count_post_loop_blank","count_practice_loop","count_pre_e_block_message","count_pre_p_block_message","count_reset_feedback","count_stimulus_image","count_stimulus_sound","count_timeout_message","count_timeout_sound","count_trial_sequence","datetime","description","disable_garbage_collection","experiment_file","experiment_path","expyriment_opengl","font_bold","font_family","font_italic","font_size","font_underline","foreground","form_clicks","form_response","fullscreen","height","keyboard_backend","live_row","live_row_p_block_loop","live_row_practice_loop","logfile","mouse_backend","opensesame_codename","opensesame_version","osf_always_upload_data","osf_always_upload_experiment","osf_datanode_id","osf_id","practice","pygame_doublebuf","repeat_cycle","response","response_block_activation","response_block_exit","response_block_info_QA","response_instructions_1","response_instructions_2","response_keyboard_response","response_time","response_time_block_activation","response_time_block_exit","response_time_block_info_QA","response_time_instructions_1","response_time_instructions_2","response_time_keyboard_response","round_decimals","sampler_backend","sound_buf_size","sound_channels","sound_freq","sound_sample_size","start","stimulus","subject_age","subject_education","subject_gender","subject_german_native","subject_handedness","subject_language_other","subject_nr","subject_other_native_lang","subject_parity","time_block_activation","time_block_exit","time_block_info_QA","time_cont_e_block_message","time_e_block_loop","time_e_block_sequence","time_end_of_experiment","time_experiment","time_experimental_loop","time_form_consent","time_info_forms","time_instructions_1","time_instructions_2","time_keyboard_response","time_listen_message","time_logger","time_p_block_loop","time_p_block_sequence","time_p_feedback","time_pause_feedback","time_personal_details_form_1","time_personal_details_form_2","time_post_loop_blank","time_practice_loop","time_pre_e_block_message","time_pre_p_block_message","time_reset_feedback","time_stimulus_image","time_stimulus_sound","time_timeout_message","time_timeout_sound","time_trial_sequence","title","total_correct","total_response_time","total_responses","uniform_coordinates","width"
"100","yes","100","1540","1540","white","no","xpyriment","Ich habe die obigen Informationen gelesen und verstanden.","legacy","legacy","0","uniform","1","0","NA","undefined","undefined","1","f","0","0","NA","NA","NA","NA","NA","0","0","0","0","0","0","0","0","0","0","0","NA","NA","0","0","0","0","NA","0","0","0","0","0","0","0","Fri Oct 27 11:16:02 2017","Forced-choice identification task with a practice and an experimental phase","yes","NAP_GER_AA_4blocks_noglides.osexp","/Users/aviadalbert/Documents/Academisch/UoC/Dissertation/Experiment/OpenSesame/NAP-FC/NAP_GER_AA_4blocks_noglides","yes","no","sans","no","20","no","black","no","Weiter","yes","768","legacy","0","0","0","/Users/aviadalbert/Documents/Academisch/UoC/Dissertation/Experiment/OpenSesame/NAP-FC/NAP_GER_AA_4blocks_noglides/subject-30.csv","xpyriment","Jazzy James","3.1.9","yes","yes","59a800d99ad5a1025d81bb03","59a801616c613b0251691de0","yes","no","0","f","j","NA","NA","space","space","f","1540","4004","NA","NA","43142","10718","1540","2","legacy","1024","1","44100","-16","experiment","flal","2","1","1","0","1","ENG","30","","even","5814036","NA","NA","NA","NA","NA","NA","5045450","NA","5045451","5045450","5759877","5803023","5819751","5818244","5821292","5818041","5814033","NA","NA","5713226","5747054","NA","5813802","NA","5814036","NA","5819750","5819751","NA","NA","5818240","NAP perception","1","1540","1","yes","1024"
"100","yes","100","1274","1274","white","no","xpyriment","Ich habe die obigen Informationen gelesen und verstanden.","legacy","legacy","0","uniform","1","0","NA","undefined","undefined","1","j","0","0","NA","NA","NA","NA","NA","0","0","0","0","0","0","1","1","1","0","0","NA","NA","0","0","0","0","NA","0","0","1","1","1","1","1","Fri Oct 27 11:16:02 2017","Forced-choice identification task with a practice and an experimental phase","yes","NAP_GER_AA_4blocks_noglides.osexp","/Users/aviadalbert/Documents/Academisch/UoC/Dissertation/Experiment/OpenSesame/NAP-FC/NAP_GER_AA_4blocks_noglides","yes","no","sans","no","20","no","black","no","Weiter","yes","768","legacy","1","1","0","/Users/aviadalbert/Documents/Academisch/UoC/Dissertation/Experiment/OpenSesame/NAP-FC/NAP_GER_AA_4blocks_noglides/subject-30.csv","xpyriment","Jazzy James","3.1.9","yes","yes","59a800d99ad5a1025d81bb03","59a801616c613b0251691de0","yes","no","0","j","j","NA","NA","space","space","j","1008","4004","NA","NA","43142","10718","1008","2","legacy","1024","1","44100","-16","experiment","lepal","2","1","1","0","1","ENG","30","","even","5814036","NA","NA","NA","NA","NA","NA","5045450","NA","5045451","5045450","5759877","5803023","5823073","5821569","5824082","5818041","5814033","NA","NA","5713226","5747054","NA","5813802","NA","5814036","NA","5823073","5823073","NA","NA","5821566","NAP perception","2","2548","2","yes","1024"
"100","yes","100","1228.66666667","1228.66666667","white","no","xpyriment","Ich habe die obigen Informationen gelesen und verstanden.","legacy","legacy","0","uniform","1","0","NA","undefined","undefined","1","j","0","0","NA","NA","NA","NA","NA","0","0","0","0","0","0","2","2","2","0","0","NA","NA","0","0","0","0","NA","0","0","2","2","2","2","2","Fri Oct 27 11:16:02 2017","Forced-choice identification task with a practice and an experimental phase","yes","NAP_GER_AA_4blocks_noglides.osexp","/Users/aviadalbert/Documents/Academisch/UoC/Dissertation/Experiment/OpenSesame/NAP-FC/NAP_GER_AA_4blocks_noglides","yes","no","sans","no","20","no","black","no","Weiter","yes","768","legacy","2","2","0","/Users/aviadalbert/Documents/Academisch/UoC/Dissertation/Experiment/OpenSesame/NAP-FC/NAP_GER_AA_4blocks_noglides/subject-30.csv","xpyriment","Jazzy James","3.1.9","yes","yes","59a800d99ad5a1025d81bb03","59a801616c613b0251691de0","yes","no","0","j","j","NA","NA","space","space","j","1138","4004","NA","NA","43142","10718","1138","2","legacy","1024","1","44100","-16","experiment","emtal","2","1","1","0","1","ENG","30","","even","5814036","NA","NA","NA","NA","NA","NA","5045450","NA","5045451","5045450","5759877","5803023","5825871","5824367","5827010","5818041","5814033","NA","NA","5713226","5747054","NA","5813802","NA","5814036","NA","5825870","5825871","NA","NA","5824363","NAP perception","3","3686","3","yes","1024"
"100","yes","100","1142.25","1142.25","white","no","xpyriment","Ich habe die obigen Informationen gelesen und verstanden.","legacy","legacy","0","uniform","1","0","NA","undefined","undefined","1","f","0","0","NA","NA","NA","NA","NA","0","0","0","0","0","0","3","3","3","0","0","NA","NA","0","0","0","0","NA","0","0","3","3","3","3","3","Fri Oct 27 11:16:02 2017","Forced-choice identification task with a practice and an experimental phase","yes","NAP_GER_AA_4blocks_noglides.osexp","/Users/aviadalbert/Documents/Academisch/UoC/Dissertation/Experiment/OpenSesame/NAP-FC/NAP_GER_AA_4blocks_noglides","yes","no","sans","no","20","no","black","no","Weiter","yes","768","legacy","3","3","0","/Users/aviadalbert/Documents/Academisch/UoC/Dissertation/Experiment/OpenSesame/NAP-FC/NAP_GER_AA_4blocks_noglides/subject-30.csv","xpyriment","Jazzy James","3.1.9","yes","yes","59a800d99ad5a1025d81bb03","59a801616c613b0251691de0","yes","no","0","f","j","NA","NA","space","space","f","883","4004","NA","NA","43142","10718","883","2","legacy","1024","1","44100","-16","experiment","ʃpal","2","1","1","0","1","ENG","30","","even","5814036","NA","NA","NA","NA","NA","NA","5045450","NA","5045451","5045450","5759877","5803023","5828800","5827297","5829684","5818041","5814033","NA","NA","5713226","5747054","NA","5813802","NA","5814036","NA","5828800","5828800","NA","NA","5827293","NAP perception","4","4569","4","yes","1024"
"100","yes","100","1087.6","1087.6","white","no","xpyriment","Ich habe die obigen Informationen gelesen und verstanden.","legacy","legacy","0","uniform","1","0","NA","undefined","undefined","1","j","0","0","NA","NA","NA","NA","NA","0","0","0","0","0","0","4","4","4","0","0","NA","NA","0","0","0","0","NA","0","0","4","4","4","4","4","Fri Oct 27 11:16:02 2017","Forced-choice identification task with a practice and an experimental phase","yes","NAP_GER_AA_4blocks_noglides.osexp","/Users/aviadalbert/Documents/Academisch/UoC/Dissertation/Experiment/OpenSesame/NAP-FC/NAP_GER_AA_4blocks_noglides","yes","no","sans","no","20","no","black","no","Weiter","yes","768","legacy","4","4","0","/Users/aviadalbert/Documents/Academisch/UoC/Dissertation/Experiment/OpenSesame/NAP-FC/NAP_GER_AA_4blocks_noglides/subject-30.csv","xpyriment","Jazzy James","3.1.9","yes","yes","59a800d99ad5a1025d81bb03","59a801616c613b0251691de0","yes","no","0","j","j","NA","NA","space","space","j","869","4004","NA","NA","43142","10718","869","2","legacy","1024","1","44100","-16","experiment","nefal","2","1","1","0","1","ENG","30","","even","5814036","NA","NA","NA","NA","NA","NA","5045450","NA","5045451","5045450","5759877","5803023","5831470","5829967","5832341","5818041","5814033","NA","NA","5713226","5747054","NA","5813802","NA","5814036","NA","5831470","5831470","NA","NA","5829963","NAP perception","5","5438","5","yes","1024"
"100","yes","100","1136","1136","white","no","xpyriment","Ich habe die obigen Informationen gelesen und verstanden.","legacy","legacy","0","uniform","1","0","NA","undefined","undefined","1","f","0","0","NA","NA","NA","NA","NA","0","0","0","0","0","0","5","5","5","0","0","NA","NA","0","0","0","0","NA","0","0","5","5","5","5","5","Fri Oct 27 11:16:02 2017","Forced-choice identification task with a practice and an experimental phase","yes","NAP_GER_AA_4blocks_noglides.osexp","/Users/aviadalbert/Documents/Academisch/UoC/Dissertation/Experiment/OpenSesame/NAP-FC/NAP_GER_AA_4blocks_noglides","yes","no","sans","no","20","no","black","no","Weiter","yes","768","legacy","5","5","0","/Users/aviadalbert/Documents/Academisch/UoC/Dissertation/Experiment/OpenSesame/NAP-FC/NAP_GER_AA_4blocks_noglides/subject-30.csv","xpyriment","Jazzy James","3.1.9","yes","yes","59a800d99ad5a1025d81bb03","59a801616c613b0251691de0","yes","no","0","f","j","NA","NA","space","space","f","1378","4004","NA","NA","43142","10718","1378","2","legacy","1024","1","44100","-16","experiment","sfal","2","1","1","0","1","ENG","30","","even","5814036","NA","NA","NA","NA","NA","NA","5045450","NA","5045451","5045450","5759877","5803023","5834130","5832626","5835509","5818041","5814033","NA","NA","5713226","5747054","NA","5813802","NA","5814036","NA","5834130","5834130","NA","NA","5832622","NAP perception","6","6816","6","yes","1024"
"100","yes","100","1198.71428571","1198.71428571","white","no","xpyriment","Ich habe die obigen Informationen gelesen und verstanden.","legacy","legacy","0","uniform","1","0","NA","undefined","undefined","1","f","0","0","NA","NA","NA","NA","NA","0","0","0","0","0","0","6","6","6","0","0","NA","NA","0","0","0","0","NA","0","0","6","6","6","6","6","Fri Oct 27 11:16:02 2017","Forced-choice identification task with a practice and an experimental phase","yes","NAP_GER_AA_4blocks_noglides.osexp","/Users/aviadalbert/Documents/Academisch/UoC/Dissertation/Experiment/OpenSesame/NAP-FC/NAP_GER_AA_4blocks_noglides","yes","no","sans","no","20","no","black","no","Weiter","yes","768","legacy","6","6","0","/Users/aviadalbert/Documents/Academisch/UoC/Dissertation/Experiment/OpenSesame/NAP-FC/NAP_GER_AA_4blocks_noglides/subject-30.csv","xpyriment","Jazzy James","3.1.9","yes","yes","59a800d99ad5a1025d81bb03","59a801616c613b0251691de0","yes","no","0","f","j","NA","NA","space","space","f","1575","4004","NA","NA","43142","10718","1575","2","legacy","1024","1","44100","-16","experiment","zmal","2","1","1","0","1","ENG","30","","even","5814036","NA","NA","NA","NA","NA","NA","5045450","NA","5045451","5045450","5759877","5803023","5837306","5835800","5838882","5818041","5814033","NA","NA","5713226","5747054","NA","5813802","NA","5814036","NA","5837306","5837306","NA","NA","5835796","NAP perception","7","8391","7","yes","1024"
"100","yes","100","1224.5","1224.5","white","no","xpyriment","Ich habe die obigen Informationen gelesen und verstanden.","legacy","legacy","0","uniform","1","0","NA","undefined","undefined","1","j","0","0","NA","NA","NA","NA","NA","0","0","0","0","0","0","7","7","7","0","0","NA","NA","0","0","0","0","NA","0","0","7","7","7","7","7","Fri Oct 27 11:16:02 2017","Forced-choice identification task with a practice and an experimental phase","yes","NAP_GER_AA_4blocks_noglides.osexp","/Users/aviadalbert/Documents/Academisch/UoC/Dissertation/Experiment/OpenSesame/NAP-FC/NAP_GER_AA_4blocks_noglides","yes","no","sans","no","20","no","black","no","Weiter","yes","768","legacy","7","7","0","/Users/aviadalbert/Documents/Academisch/UoC/Dissertation/Experiment/OpenSesame/NAP-FC/NAP_GER_AA_4blocks_noglides/subject-30.csv","xpyriment","Jazzy James","3.1.9","yes","yes","59a800d99ad5a1025d81bb03","59a801616c613b0251691de0","yes","no","0","j","j","NA","NA","space","space","j","1405","4004","NA","NA","43142","10718","1405","2","legacy","1024","1","44100","-16","experiment","mesal","2","1","1","0","1","ENG","30","","even","5814036","NA","NA","NA","NA","NA","NA","5045450","NA","5045451","5045450","5759877","5803023","5840661","5839158","5842067","5818041","5814033","NA","NA","5713226","5747054","NA","5813802","NA","5814036","NA","5840661","5840661","NA","NA","5839154","NAP perception","8","9796","8","yes","1024"
"100","yes","100","1223.88888889","1223.88888889","white","no","xpyriment","Ich habe die obigen Informationen gelesen und verstanden.","legacy","legacy","0","uniform","1","0","NA","undefined","undefined","1","j","0","0","NA","NA","NA","NA","NA","0","0","0","0","0","0","8","8","8","0","0","NA","NA","0","0","0","0","NA","0","0","8","8","8","8","8","Fri Oct 27 11:16:02 2017","Forced-choice identification task with a practice and an experimental phase","yes","NAP_GER_AA_4blocks_noglides.osexp","/Users/aviadalbert/Documents/Academisch/UoC/Dissertation/Experiment/OpenSesame/NAP-FC/NAP_GER_AA_4blocks_noglides","yes","no","sans","no","20","no","black","no","Weiter","yes","768","legacy","8","8","0","/Users/aviadalbert/Documents/Academisch/UoC/Dissertation/Experiment/OpenSesame/NAP-FC/NAP_GER_AA_4blocks_noglides/subject-30.csv","xpyriment","Jazzy James","3.1.9","yes","yes","59a800d99ad5a1025d81bb03","59a801616c613b0251691de0","yes","no","0","j","j","NA","NA","space","space","j","1219","4004","NA","NA","43142","10718","1219","2","legacy","1024","1","44100","-16","experiment","enval","2","1","1","0","1","ENG","30","","even","5814036","NA","NA","NA","NA","NA","NA","5045450","NA","5045451","5045450","5759877","5803023","5843854","5842351","5845074","5818041","5814033","NA","NA","5713226","5747054","NA","5813802","NA","5814036","NA","5843854","5843854","NA","NA","5842347","NAP perception","9","11015","9","yes","1024"
"100","yes","100","1224.7","1224.7","white","no","xpyriment","Ich habe die obigen Informationen gelesen und verstanden.","legacy","legacy","0","uniform","1","0","NA","undefined","undefined","1","f","0","0","NA","NA","NA","NA","NA","0","0","0","0","0","0","9","9","9","0","0","NA","NA","0","0","0","0","NA","0","0","9","9","9","9","9","Fri Oct 27 11:16:02 2017","Forced-choice identification task with a practice and an experimental phase","yes","NAP_GER_AA_4blocks_noglides.osexp","/Users/aviadalbert/Documents/Academisch/UoC/Dissertation/Experiment/OpenSesame/NAP-FC/NAP_GER_AA_4blocks_noglides","yes","no","sans","no","20","no","black","no","Weiter","yes","768","legacy","9","9","0","/Users/aviadalbert/Documents/Academisch/UoC/Dissertation/Experiment/OpenSesame/NAP-FC/NAP_GER_AA_4blocks_noglides/subject-30.csv","xpyriment","Jazzy James","3.1.9","yes","yes","59a800d99ad5a1025d81bb03","59a801616c613b0251691de0","yes","no","0","f","j","NA","NA","space","space","f","1232","4004","NA","NA","43142","10718","1232","2","legacy","1024","1","44100","-16","experiment","vlal","2","1","1","0","1","ENG","30","","even","5814036","NA","NA","NA","NA","NA","NA","5045450","NA","5045451","5045450","5759877","5803023","5846863","5845359","5848096","5818041","5814033","NA","NA","5713226","5747054","NA","5813802","NA","5814036","NA","5846863","5846863","NA","NA","5845355","NAP perception","10","12247","10","yes","1024"
"100","yes","100","1448","1448","white","no","xpyriment","Ich habe die obigen Informationen gelesen und verstanden.","legacy","legacy","0","uniform","1","0","0","undefined","undefined","1","f","2","1","NA","0","1","0","0","0","0","0","0","0","0","10","10","10","0","0","0","NA","0","0","2","0","0","0","2","10","10","10","10","10","Fri Oct 27 11:16:02 2017","Forced-choice identification task with a practice and an experimental phase","yes","NAP_GER_AA_4blocks_noglides.osexp","/Users/aviadalbert/Documents/Academisch/UoC/Dissertation/Experiment/OpenSesame/NAP-FC/NAP_GER_AA_4blocks_noglides","yes","no","sans","no","20","no","black","no","Weiter","yes","768","legacy","0","9","0","/Users/aviadalbert/Documents/Academisch/UoC/Dissertation/Experiment/OpenSesame/NAP-FC/NAP_GER_AA_4blocks_noglides/subject-30.csv","xpyriment","Jazzy James","3.1.9","yes","yes","59a800d99ad5a1025d81bb03","59a801616c613b0251691de0","no","no","0","f","j","space","NA","space","space","f","1448","2385","18165","NA","43142","10718","1448","2","legacy","1024","1","44100","-16","experiment","spal","2","1","1","0","1","ENG","30","","even","5868503","5849817","NA","NA","5870889","5868499","NA","5045450","5868040","5045451","5045450","5759877","5803023","5872602","5871096","5874051","5818041","5814033","5849816","NA","5713226","5747054","5848160","5813802","5868503","5814036","NA","5872602","5872602","NA","NA","5871092","NAP perception","1","1448","1","yes","1024"
"50","yes","50","1525.5","1525.5","white","no","xpyriment","Ich habe die obigen Informationen gelesen und verstanden.","legacy","legacy","0","uniform","0","0","0","undefined","undefined","0","f","2","1","NA","0","1","0","0","0","0","0","0","0","0","11","11","11","0","0","0","NA","0","0","2","0","0","0","2","11","11","11","11","11","Fri Oct 27 11:16:02 2017","Forced-choice identification task with a practice and an experimental phase","yes","NAP_GER_AA_4blocks_noglides.osexp","/Users/aviadalbert/Documents/Academisch/UoC/Dissertation/Experiment/OpenSesame/NAP-FC/NAP_GER_AA_4blocks_noglides","yes","no","sans","no","20","no","black","no","Weiter","yes","768","legacy","1","9","0","/Users/aviadalbert/Documents/Academisch/UoC/Dissertation/Experiment/OpenSesame/NAP-FC/NAP_GER_AA_4blocks_noglides/subject-30.csv","xpyriment","Jazzy James","3.1.9","yes","yes","59a800d99ad5a1025d81bb03","59a801616c613b0251691de0","no","no","0","j","j","space","NA","space","space","j","1603","2385","18165","NA","43142","10718","1603","2","legacy","1024","1","44100","-16","experiment","mzal","2","1","1","0","1","ENG","30","","even","5868503","5849817","NA","NA","5870889","5868499","NA","5045450","5868040","5045451","5045450","5759877","5803023","5875853","5874349","5877457","5818041","5814033","5849816","NA","5713226","5747054","5848160","5813802","5868503","5814036","NA","5875853","5875853","NA","NA","5874346","NAP perception","1","3051","2","yes","1024"
"66.6666666667","yes","66.6666666667","1360.66666667","1360.66666667","white","no","xpyriment","Ich habe die obigen Informationen gelesen und verstanden.","legacy","legacy","0","uniform","1","0","0","undefined","undefined","1","j","2","1","NA","0","1","0","0","0","0","0","0","0","0","12","12","12","0","0","0","NA","0","0","2","0","0","0","2","12","12","12","12","12","Fri Oct 27 11:16:02 2017","Forced-choice identification task with a practice and an experimental phase","yes","NAP_GER_AA_4blocks_noglides.osexp","/Users/aviadalbert/Documents/Academisch/UoC/Dissertation/Experiment/OpenSesame/NAP-FC/NAP_GER_AA_4blocks_noglides","yes","no","sans","no","20","no","black","no","Weiter","yes","768","legacy","2","9","0","/Users/aviadalbert/Documents/Academisch/UoC/Dissertation/Experiment/OpenSesame/NAP-FC/NAP_GER_AA_4blocks_noglides/subject-30.csv","xpyriment","Jazzy James","3.1.9","yes","yes","59a800d99ad5a1025d81bb03","59a801616c613b0251691de0","no","no","0","j","j","space","NA","space","space","j","1031","2385","18165","NA","43142","10718","1031","2","legacy","1024","1","44100","-16","experiment","nemal","2","1","1","0","1","ENG","30","","even","5868503","5849817","NA","NA","5870889","5868499","NA","5045450","5868040","5045451","5045450","5759877","5803023","5879237","5877730","5880270","5818041","5814033","5849816","NA","5713226","5747054","5848160","5813802","5868503","5814036","NA","5879236","5879236","NA","NA","5877725","NAP perception","2","4082","3","yes","1024"
"75","yes","75","1340.75","1340.75","white","no","xpyriment","Ich habe die obigen Informationen gelesen und verstanden.","legacy","legacy","0","uniform","1","0","0","undefined","undefined","1","j","2","1","NA","0","1","0","0","0","0","0","0","0","0","13","13","13","0","0","0","NA","0","0","2","0","0","0","2","13","13","13","13","13","Fri Oct 27 11:16:02 2017","Forced-choice identification task with a practice and an experimental phase","yes","NAP_GER_AA_4blocks_noglides.osexp","/Users/aviadalbert/Documents/Academisch/UoC/Dissertation/Experiment/OpenSesame/NAP-FC/NAP_GER_AA_4blocks_noglides","yes","no","sans","no","20","no","black","no","Weiter","yes","768","legacy","3","9","0","/Users/aviadalbert/Documents/Academisch/UoC/Dissertation/Experiment/OpenSesame/NAP-FC/NAP_GER_AA_4blocks_noglides/subject-30.csv","xpyriment","Jazzy James","3.1.9","yes","yes","59a800d99ad5a1025d81bb03","59a801616c613b0251691de0","no","no","0","j","j","space","NA","space","space","j","1281","2385","18165","NA","43142","10718","1281","2","legacy","1024","1","44100","-16","experiment","emzal","2","1","1","0","1","ENG","30","","even","5868503","5849817","NA","NA","5870889","5868499","NA","5045450","5868040","5045451","5045450","5759877","5803023","5882062","5880559","5883344","5818041","5814033","5849816","NA","5713226","5747054","5848160","5813802","5868503","5814036","NA","5882062","5882062","NA","NA","5880555","NAP perception","3","5363","4","yes","1024"
"60","yes","60","1330.6","1330.6","white","no","xpyriment","Ich habe die obigen Informationen gelesen und verstanden.","legacy","legacy","0","uniform","0","0","0","undefined","undefined","0","f","2","1","NA","0","1","0","0","0","0","0","0","0","0","14","14","14","0","0","0","NA","0","0","2","0","0","0","2","14","14","14","14","14","Fri Oct 27 11:16:02 2017","Forced-choice identification task with a practice and an experimental phase","yes","NAP_GER_AA_4blocks_noglides.osexp","/Users/aviadalbert/Documents/Academisch/UoC/Dissertation/Experiment/OpenSesame/NAP-FC/NAP_GER_AA_4blocks_noglides","yes","no","sans","no","20","no","black","no","Weiter","yes","768","legacy","4","9","0","/Users/aviadalbert/Documents/Academisch/UoC/Dissertation/Experiment/OpenSesame/NAP-FC/NAP_GER_AA_4blocks_noglides/subject-30.csv","xpyriment","Jazzy James","3.1.9","yes","yes","59a800d99ad5a1025d81bb03","59a801616c613b0251691de0","no","no","0","j","j","space","NA","space","space","j","1290","2385","18165","NA","43142","10718","1290","2","legacy","1024","1","44100","-16","experiment","lkal","2","1","1","0","1","ENG","30","","even","5868503","5849817","NA","NA","5870889","5868499","NA","5045450","5868040","5045451","5045450","5759877","5803023","5885137","5883631","5886428","5818041","5814033","5849816","NA","5713226","5747054","5848160","5813802","5868503","5814036","NA","5885137","5885137","NA","NA","5883627","NAP perception","3","6653","5","yes","1024"
"66.6666666667","yes","66.6666666667","1361.33333333","1361.33333333","white","no","xpyriment","Ich habe die obigen Informationen gelesen und verstanden.","legacy","legacy","0","uniform","1","0","0","undefined","undefined","1","j","2","1","NA","0","1","0","0","0","0","0","0","0","0","15","15","15","0","0","0","NA","0","0","2","0","0","0","2","15","15","15","15","15","Fri Oct 27 11:16:02 2017","Forced-choice identification task with a practice and an experimental phase","yes","NAP_GER_AA_4blocks_noglides.osexp","/Users/aviadalbert/Documents/Academisch/UoC/Dissertation/Experiment/OpenSesame/NAP-FC/NAP_GER_AA_4blocks_noglides","yes","no","sans","no","20","no","black","no","Weiter","yes","768","legacy","5","9","0","/Users/aviadalbert/Documents/Academisch/UoC/Dissertation/Experiment/OpenSesame/NAP-FC/NAP_GER_AA_4blocks_noglides/subject-30.csv","xpyriment","Jazzy James","3.1.9","yes","yes","59a800d99ad5a1025d81bb03","59a801616c613b0251691de0","no","no","0","j","j","space","NA","space","space","j","1515","2385","18165","NA","43142","10718","1515","2","legacy","1024","1","44100","-16","experiment","eflal","2","1","1","0","1","ENG","30","","even","5868503","5849817","NA","NA","5870889","5868499","NA","5045450","5868040","5045451","5045450","5759877","5803023","5888211","5886706","5889727","5818041","5814033","5849816","NA","5713226","5747054","5848160","5813802","5868503","5814036","NA","5888210","5888210","NA","NA","5886702","NAP perception","4","8168","6","yes","1024"
"71.4285714286","yes","71.4285714286","1350.42857143","1350.42857143","white","no","xpyriment","Ich habe die obigen Informationen gelesen und verstanden.","legacy","legacy","0","uniform","1","0","0","undefined","undefined","1","j","2","1","NA","0","1","0","0","0","0","0","0","0","0","16","16","16","0","0","0","NA","0","0","2","0","0","0","2","16","16","16","16","16","Fri Oct 27 11:16:02 2017","Forced-choice identification task with a practice and an experimental phase","yes","NAP_GER_AA_4blocks_noglides.osexp","/Users/aviadalbert/Documents/Academisch/UoC/Dissertation/Experiment/OpenSesame/NAP-FC/NAP_GER_AA_4blocks_noglides","yes","no","sans","no","20","no","black","no","Weiter","yes","768","legacy","6","9","0","/Users/aviadalbert/Documents/Academisch/UoC/Dissertation/Experiment/OpenSesame/NAP-FC/NAP_GER_AA_4blocks_noglides/subject-30.csv","xpyriment","Jazzy James","3.1.9","yes","yes","59a800d99ad5a1025d81bb03","59a801616c613b0251691de0","no","no","0","j","j","space","NA","space","space","j","1285","2385","18165","NA","43142","10718","1285","2","legacy","1024","1","44100","-16","experiment","eʃmal","2","1","1","0","1","ENG","30","","even","5868503","5849817","NA","NA","5870889","5868499","NA","5045450","5868040","5045451","5045450","5759877","5803023","5891502","5889996","5892788","5818041","5814033","5849816","NA","5713226","5747054","5848160","5813802","5868503","5814036","NA","5891501","5891501","NA","NA","5889992","NAP perception","5","9453","7","yes","1024"
"62.5","yes","62.5","1467.75","1467.75","white","no","xpyriment","Ich habe die obigen Informationen gelesen und verstanden.","legacy","legacy","0","uniform","0","0","0","undefined","undefined","0","f","2","1","NA","0","1","0","0","0","0","0","0","0","0","17","17","17","0","0","0","NA","0","0","2","0","0","0","2","17","17","17","17","17","Fri Oct 27 11:16:02 2017","Forced-choice identification task with a practice and an experimental phase","yes","NAP_GER_AA_4blocks_noglides.osexp","/Users/aviadalbert/Documents/Academisch/UoC/Dissertation/Experiment/OpenSesame/NAP-FC/NAP_GER_AA_4blocks_noglides","yes","no","sans","no","20","no","black","no","Weiter","yes","768","legacy","7","9","0","/Users/aviadalbert/Documents/Academisch/UoC/Dissertation/Experiment/OpenSesame/NAP-FC/NAP_GER_AA_4blocks_noglides/subject-30.csv","xpyriment","Jazzy James","3.1.9","yes","yes","59a800d99ad5a1025d81bb03","59a801616c613b0251691de0","no","no","0","j","j","space","NA","space","space","j","2289","2385","18165","NA","43142","10718","2289","2","legacy","1024","1","44100","-16","experiment","lval","2","1","1","0","1","ENG","30","","even","5868503","5849817","NA","NA","5870889","5868499","NA","5045450","5868040","5045451","5045450","5759877","5803023","5894562","5893059","5896852","5818041","5814033","5849816","NA","5713226","5747054","5848160","5813802","5868503","5814036","NA","5894562","5894562","NA","NA","5893055","NAP perception","5","11742","8","yes","1024"
"66.6666666667","yes","66.6666666667","1426.77777778","1426.77777778","white","no","xpyriment","Ich habe die obigen Informationen gelesen und verstanden.","legacy","legacy","0","uniform","1","0","0","undefined","undefined","1","j","2","1","NA","0","1","0","0","0","0","0","0","0","0","18","18","18","0","0","0","NA","0","0","2","0","0","0","2","18","18","18","18","18","Fri Oct 27 11:16:02 2017","Forced-choice identification task with a practice and an experimental phase","yes","NAP_GER_AA_4blocks_noglides.osexp","/Users/aviadalbert/Documents/Academisch/UoC/Dissertation/Experiment/OpenSesame/NAP-FC/NAP_GER_AA_4blocks_noglides","yes","no","sans","no","20","no","black","no","Weiter","yes","768","legacy","8","9","0","/Users/aviadalbert/Documents/Academisch/UoC/Dissertation/Experiment/OpenSesame/NAP-FC/NAP_GER_AA_4blocks_noglides/subject-30.csv","xpyriment","Jazzy James","3.1.9","yes","yes","59a800d99ad5a1025d81bb03","59a801616c613b0251691de0","no","no","0","j","j","space","NA","space","space","j","1099","2385","18165","NA","43142","10718","1099","2","legacy","1024","1","44100","-16","experiment","enfal","2","1","1","0","1","ENG","30","","even","5868503","5849817","NA","NA","5870889","5868499","NA","5045450","5868040","5045451","5045450","5759877","5803023","5898632","5897126","5899732","5818041","5814033","5849816","NA","5713226","5747054","5848160","5813802","5868503","5814036","NA","5898631","5898631","NA","NA","5897122","NAP perception","6","12841","9","yes","1024"
"70","yes","70","1415.1","1415.1","white","no","xpyriment","Ich habe die obigen Informationen gelesen und verstanden.","legacy","legacy","0","uniform","1","0","0","undefined","undefined","1","j","2","1","NA","0","1","0","0","0","0","0","0","0","0","19","19","19","0","0","0","NA","0","0","2","0","0","0","2","19","19","19","19","19","Fri Oct 27 11:16:02 2017","Forced-choice identification task with a practice and an experimental phase","yes","NAP_GER_AA_4blocks_noglides.osexp","/Users/aviadalbert/Documents/Academisch/UoC/Dissertation/Experiment/OpenSesame/NAP-FC/NAP_GER_AA_4blocks_noglides","yes","no","sans","no","20","no","black","no","Weiter","yes","768","legacy","9","9","0","/Users/aviadalbert/Documents/Academisch/UoC/Dissertation/Experiment/OpenSesame/NAP-FC/NAP_GER_AA_4blocks_noglides/subject-30.csv","xpyriment","Jazzy James","3.1.9","yes","yes","59a800d99ad5a1025d81bb03","59a801616c613b0251691de0","no","no","0","j","j","space","NA","space","space","j","1310","2385","18165","NA","43142","10718","1310","2","legacy","1024","1","44100","-16","experiment","ʃefal","2","1","1","0","1","ENG","30","","even","5868503","5849817","NA","NA","5870889","5868499","NA","5045450","5868040","5045451","5045450","5759877","5803023","5901510","5900003","5902821","5818041","5814033","5849816","NA","5713226","5747054","5848160","5813802","5868503","5814036","NA","5901509","5901510","NA","NA","5900000","NAP perception","7","14151","10","yes","1024"
"72.7272727273","yes","72.7272727273","1376.36363636","1376.36363636","white","no","xpyriment","Ich habe die obigen Informationen gelesen und verstanden.","legacy","legacy","0","uniform","1","0","0","undefined","undefined","1","f","2","1","NA","0","1","0","0","0","0","0","0","0","0","20","20","20","0","0","0","NA","0","0","2","0","0","0","2","20","20","20","20","20","Fri Oct 27 11:16:02 2017","Forced-choice identification task with a practice and an experimental phase","yes","NAP_GER_AA_4blocks_noglides.osexp","/Users/aviadalbert/Documents/Academisch/UoC/Dissertation/Experiment/OpenSesame/NAP-FC/NAP_GER_AA_4blocks_noglides","yes","no","sans","no","20","no","black","no","Weiter","yes","768","legacy","10","9","0","/Users/aviadalbert/Documents/Academisch/UoC/Dissertation/Experiment/OpenSesame/NAP-FC/NAP_GER_AA_4blocks_noglides/subject-30.csv","xpyriment","Jazzy James","3.1.9","yes","yes","59a800d99ad5a1025d81bb03","59a801616c613b0251691de0","no","no","0","f","j","space","NA","space","space","f","989","2385","18165","NA","43142","10718","989","2","legacy","1024","1","44100","-16","experiment","fsal","2","1","1","0","1","ENG","30","","even","5868503","5849817","NA","NA","5870889","5868499","NA","5045450","5868040","5045451","5045450","5759877","5803023","5904595","5903091","5905585","5818041","5814033","5849816","NA","5713226","5747054","5848160","5813802","5868503","5814036","NA","5904595","5904595","NA","NA","5903087","NAP perception","8","15140","11","yes","1024"
"75","yes","75","1372.75","1372.75","white","no","xpyriment","Ich habe die obigen Informationen gelesen und verstanden.","legacy","legacy","0","uniform","1","0","0","undefined","undefined","1","f","2","1","NA","0","1","0","0","0","0","0","0","0","0","21","21","21","0","0","0","NA","0","0","2","0","0","0","2","21","21","21","21","21","Fri Oct 27 11:16:02 2017","Forced-choice identification task with a practice and an experimental phase","yes","NAP_GER_AA_4blocks_noglides.osexp","/Users/aviadalbert/Documents/Academisch/UoC/Dissertation/Experiment/OpenSesame/NAP-FC/NAP_GER_AA_4blocks_noglides","yes","no","sans","no","20","no","black","no","Weiter","yes","768","legacy","11","9","0","/Users/aviadalbert/Documents/Academisch/UoC/Dissertation/Experiment/OpenSesame/NAP-FC/NAP_GER_AA_4blocks_noglides/subject-30.csv","xpyriment","Jazzy James","3.1.9","yes","yes","59a800d99ad5a1025d81bb03","59a801616c613b0251691de0","no","no","0","f","j","space","NA","space","space","f","1333","2385","18165","NA","43142","10718","1333","2","legacy","1024","1","44100","-16","experiment","fsal","2","1","1","0","1","ENG","30","","even","5868503","5849817","NA","NA","5870889","5868499","NA","5045450","5868040","5045451","5045450","5759877","5803023","5907378","5905875","5908712","5818041","5814033","5849816","NA","5713226","5747054","5848160","5813802","5868503","5814036","NA","5907378","5907378","NA","NA","5905871","NAP perception","9","16473","12","yes","1024"
"76.9230769231","yes","76.9230769231","1393.07692308","1393.07692308","white","no","xpyriment","Ich habe die obigen Informationen gelesen und verstanden.","legacy","legacy","0","uniform","1","0","0","undefined","undefined","1","f","2","1","NA","0","1","0","0","0","0","0","0","0","0","22","22","22","0","0","0","NA","0","0","2","0","0","0","2","22","22","22","22","22","Fri Oct 27 11:16:02 2017","Forced-choice identification task with a practice and an experimental phase","yes","NAP_GER_AA_4blocks_noglides.osexp","/Users/aviadalbert/Documents/Academisch/UoC/Dissertation/Experiment/OpenSesame/NAP-FC/NAP_GER_AA_4blocks_noglides","yes","no","sans","no","20","no","black","no","Weiter","yes","768","legacy","12","9","0","/Users/aviadalbert/Documents/Academisch/UoC/Dissertation/Experiment/OpenSesame/NAP-FC/NAP_GER_AA_4blocks_noglides/subject-30.csv","xpyriment","Jazzy James","3.1.9","yes","yes","59a800d99ad5a1025d81bb03","59a801616c613b0251691de0","no","no","0","f","j","space","NA","space","space","f","1637","2385","18165","NA","43142","10718","1637","2","legacy","1024","1","44100","-16","experiment","ʃfal","2","1","1","0","1","ENG","30","","even","5868503","5849817","NA","NA","5870889","5868499","NA","5045450","5868040","5045451","5045450","5759877","5803023","5910497","5908991","5912136","5818041","5814033","5849816","NA","5713226","5747054","5848160","5813802","5868503","5814036","NA","5910496","5910496","NA","NA","5908987","NAP perception","10","18110","13","yes","1024"
"71.4285714286","yes","71.4285714286","1467.07142857","1467.07142857","white","no","xpyriment","Ich habe die obigen Informationen gelesen und verstanden.","legacy","legacy","0","uniform","0","0","0","undefined","undefined","0","f","2","1","NA","0","1","0","0","0","0","0","0","0","0","23","23","23","0","0","0","NA","0","0","2","0","0","0","2","23","23","23","23","23","Fri Oct 27 11:16:02 2017","Forced-choice identification task with a practice and an experimental phase","yes","NAP_GER_AA_4blocks_noglides.osexp","/Users/aviadalbert/Documents/Academisch/UoC/Dissertation/Experiment/OpenSesame/NAP-FC/NAP_GER_AA_4blocks_noglides","yes","no","sans","no","20","no","black","no","Weiter","yes","768","legacy","13","9","0","/Users/aviadalbert/Documents/Academisch/UoC/Dissertation/Experiment/OpenSesame/NAP-FC/NAP_GER_AA_4blocks_noglides/subject-30.csv","xpyriment","Jazzy James","3.1.9","yes","yes","59a800d99ad5a1025d81bb03","59a801616c613b0251691de0","no","no","0","j","j","space","NA","space","space","j","2429","2385","18165","NA","43142","10718","2429","2","legacy","1024","1","44100","-16","experiment","lfal","2","1","1","0","1","ENG","30","","even","5868503","5849817","NA","NA","5870889","5868499","NA","5045450","5868040","5045451","5045450","5759877","5803023","5913922","5912417","5916353","5818041","5814033","5849816","NA","5713226","5747054","5848160","5813802","5868503","5814036","NA","5913922","5913922","NA","NA","5912412","NAP perception","10","20539","14","yes","1024"
"73.3333333333","yes","73.3333333333","1512.8","1512.8","white","no","xpyriment","Ich habe die obigen Informationen gelesen und verstanden.","legacy","legacy","0","uniform","1","0","0","undefined","undefined","1","j","2","1","NA","0","1","0","0","0","0","0","0","0","0","24","24","24","0","0","0","NA","0","0","2","0","0","0","2","24","24","24","24","24","Fri Oct 27 11:16:02 2017","Forced-choice identification task with a practice and an experimental phase","yes","NAP_GER_AA_4blocks_noglides.osexp","/Users/aviadalbert/Documents/Academisch/UoC/Dissertation/Experiment/OpenSesame/NAP-FC/NAP_GER_AA_4blocks_noglides","yes","no","sans","no","20","no","black","no","Weiter","yes","768","legacy","14","9","0","/Users/aviadalbert/Documents/Academisch/UoC/Dissertation/Experiment/OpenSesame/NAP-FC/NAP_GER_AA_4blocks_noglides/subject-30.csv","xpyriment","Jazzy James","3.1.9","yes","yes","59a800d99ad5a1025d81bb03","59a801616c613b0251691de0","no","no","0","j","j","space","NA","space","space","j","2153","2385","18165","NA","43142","10718","2153","2","legacy","1024","1","44100","-16","experiment","elval","2","1","1","0","1","ENG","30","","even","5868503","5849817","NA","NA","5870889","5868499","NA","5045450","5868040","5045451","5045450","5759877","5803023","5918124","5916620","5920278","5818041","5814033","5849816","NA","5713226","5747054","5848160","5813802","5868503","5814036","NA","5918124","5918124","NA","NA","5916616","NAP perception","11","22692","15","yes","1024"
"68.75","yes","68.75","1541.0625","1541.0625","white","no","xpyriment","Ich habe die obigen Informationen gelesen und verstanden.","legacy","legacy","0","uniform","0","0","0","undefined","undefined","0","f","2","1","NA","0","1","0","0","0","0","0","0","0","0","25","25","25","0","0","0","NA","0","0","2","0","0","0","2","25","25","25","25","25","Fri Oct 27 11:16:02 2017","Forced-choice identification task with a practice and an experimental phase","yes","NAP_GER_AA_4blocks_noglides.osexp","/Users/aviadalbert/Documents/Academisch/UoC/Dissertation/Experiment/OpenSesame/NAP-FC/NAP_GER_AA_4blocks_noglides","yes","no","sans","no","20","no","black","no","Weiter","yes","768","legacy","15","9","0","/Users/aviadalbert/Documents/Academisch/UoC/Dissertation/Experiment/OpenSesame/NAP-FC/NAP_GER_AA_4blocks_noglides/subject-30.csv","xpyriment","Jazzy James","3.1.9","yes","yes","59a800d99ad5a1025d81bb03","59a801616c613b0251691de0","no","no","0","j","j","space","NA","space","space","j","1965","2385","18165","NA","43142","10718","1965","2","legacy","1024","1","44100","-16","experiment","lmal","2","1","1","0","1","ENG","30","","even","5868503","5849817","NA","NA","5870889","5868499","NA","5045450","5868040","5045451","5045450","5759877","5803023","5922061","5920558","5924027","5818041","5814033","5849816","NA","5713226","5747054","5848160","5813802","5868503","5814036","NA","5922061","5922061","NA","NA","5920554","NAP perception","11","24657","16","yes","1024"
"70.5882352941","yes","70.5882352941","1518.41176471","1518.41176471","white","no","xpyriment","Ich habe die obigen Informationen gelesen und verstanden.","legacy","legacy","0","uniform","1","0","0","undefined","undefined","1","j","2","1","NA","0","1","0","0","0","0","0","0","0","0","26","26","26","0","0","0","NA","0","0","2","0","0","0","2","26","26","26","26","26","Fri Oct 27 11:16:02 2017","Forced-choice identification task with a practice and an experimental phase","yes","NAP_GER_AA_4blocks_noglides.osexp","/Users/aviadalbert/Documents/Academisch/UoC/Dissertation/Experiment/OpenSesame/NAP-FC/NAP_GER_AA_4blocks_noglides","yes","no","sans","no","20","no","black","no","Weiter","yes","768","legacy","16","9","0","/Users/aviadalbert/Documents/Academisch/UoC/Dissertation/Experiment/OpenSesame/NAP-FC/NAP_GER_AA_4blocks_noglides/subject-30.csv","xpyriment","Jazzy James","3.1.9","yes","yes","59a800d99ad5a1025d81bb03","59a801616c613b0251691de0","no","no","0","j","j","space","NA","space","space","j","1156","2385","18165","NA","43142","10718","1156","2","legacy","1024","1","44100","-16","experiment","melal","2","1","1","0","1","ENG","30","","even","5868503","5849817","NA","NA","5870889","5868499","NA","5045450","5868040","5045451","5045450","5759877","5803023","5925810","5924303","5926968","5818041","5814033","5849816","NA","5713226","5747054","5848160","5813802","5868503","5814036","NA","5925810","5925810","NA","NA","5924299","NAP perception","12","25813","17","yes","1024"
"72.2222222222","yes","72.2222222222","1519.33333333","1519.33333333","white","no","xpyriment","Ich habe die obigen Informationen gelesen und verstanden.","legacy","legacy","0","uniform","1","0","0","undefined","undefined","1","j","2","1","NA","0","1","0","0","0","0","0","0","0","0","27","27","27","0","0","0","NA","0","0","2","0","0","0","2","27","27","27","27","27","Fri Oct 27 11:16:02 2017","Forced-choice identification task with a practice and an experimental phase","yes","NAP_GER_AA_4blocks_noglides.osexp","/Users/aviadalbert/Documents/Academisch/UoC/Dissertation/Experiment/OpenSesame/NAP-FC/NAP_GER_AA_4blocks_noglides","yes","no","sans","no","20","no","black","no","Weiter","yes","768","legacy","17","9","0","/Users/aviadalbert/Documents/Academisch/UoC/Dissertation/Experiment/OpenSesame/NAP-FC/NAP_GER_AA_4blocks_noglides/subject-30.csv","xpyriment","Jazzy James","3.1.9","yes","yes","59a800d99ad5a1025d81bb03","59a801616c613b0251691de0","no","no","0","j","j","space","NA","space","space","j","1535","2385","18165","NA","43142","10718","1535","2","legacy","1024","1","44100","-16","experiment","zeval","2","1","1","0","1","ENG","30","","even","5868503","5849817","NA","NA","5870889","5868499","NA","5045450","5868040","5045451","5045450","5759877","5803023","5928760","5927253","5930297","5818041","5814033","5849816","NA","5713226","5747054","5848160","5813802","5868503","5814036","NA","5928760","5928760","NA","NA","5927250","NAP perception","13","27348","18","yes","1024"
"73.6842105263","yes","73.6842105263","1485.89473684","1485.89473684","white","no","xpyriment","Ich habe die obigen Informationen gelesen und verstanden.","legacy","legacy","0","uniform","1","0","0","undefined","undefined","1","f","2","1","NA","0","1","0","0","0","0","0","0","0","0","28","28","28","0","0","0","NA","0","0","2","0","0","0","2","28","28","28","28","28","Fri Oct 27 11:16:02 2017","Forced-choice identification task with a practice and an experimental phase","yes","NAP_GER_AA_4blocks_noglides.osexp","/Users/aviadalbert/Documents/Academisch/UoC/Dissertation/Experiment/OpenSesame/NAP-FC/NAP_GER_AA_4blocks_noglides","yes","no","sans","no","20","no","black","no","Weiter","yes","768","legacy","18","9","0","/Users/aviadalbert/Documents/Academisch/UoC/Dissertation/Experiment/OpenSesame/NAP-FC/NAP_GER_AA_4blocks_noglides/subject-30.csv","xpyriment","Jazzy James","3.1.9","yes","yes","59a800d99ad5a1025d81bb03","59a801616c613b0251691de0","no","no","0","f","j","space","NA","space","space","f","884","2385","18165","NA","43142","10718","884","2","legacy","1024","1","44100","-16","experiment","sfal","2","1","1","0","1","ENG","30","","even","5868503","5849817","NA","NA","5870889","5868499","NA","5045450","5868040","5045451","5045450","5759877","5803023","5932092","5930586","5932977","5818041","5814033","5849816","NA","5713226","5747054","5848160","5813802","5868503","5814036","NA","5932092","5932092","NA","NA","5930582","NAP perception","14","28232","19","yes","1024"
"75","yes","75","1475","1475","white","no","xpyriment","Ich habe die obigen Informationen gelesen und verstanden.","legacy","legacy","0","uniform","1","0","0","undefined","undefined","1","j","2","1","NA","0","1","0","0","0","0","0","0","0","0","29","29","29","0","0","0","NA","0","0","2","0","0","0","2","29","29","29","29","29","Fri Oct 27 11:16:02 2017","Forced-choice identification task with a practice and an experimental phase","yes","NAP_GER_AA_4blocks_noglides.osexp","/Users/aviadalbert/Documents/Academisch/UoC/Dissertation/Experiment/OpenSesame/NAP-FC/NAP_GER_AA_4blocks_noglides","yes","no","sans","no","20","no","black","no","Weiter","yes","768","legacy","19","9","0","/Users/aviadalbert/Documents/Academisch/UoC/Dissertation/Experiment/OpenSesame/NAP-FC/NAP_GER_AA_4blocks_noglides/subject-30.csv","xpyriment","Jazzy James","3.1.9","yes","yes","59a800d99ad5a1025d81bb03","59a801616c613b0251691de0","no","no","0","j","j","space","NA","space","space","j","1268","2385","18165","NA","43142","10718","1268","2","legacy","1024","1","44100","-16","experiment","sepal","2","1","1","0","1","ENG","30","","even","5868503","5849817","NA","NA","5870889","5868499","NA","5045450","5868040","5045451","5045450","5759877","5803023","5934763","5933260","5936032","5818041","5814033","5849816","NA","5713226","5747054","5848160","5813802","5868503","5814036","NA","5934763","5934763","NA","NA","5933256","NAP perception","15","29500","20","yes","1024"
"76.1904761905","yes","76.1904761905","1448.19047619","1448.19047619","white","no","xpyriment","Ich habe die obigen Informationen gelesen und verstanden.","legacy","legacy","0","uniform","1","0","0","undefined","undefined","1","f","2","1","NA","0","1","0","0","0","0","0","0","0","0","30","30","30","0","0","0","NA","0","0","2","0","0","0","2","30","30","30","30","30","Fri Oct 27 11:16:02 2017","Forced-choice identification task with a practice and an experimental phase","yes","NAP_GER_AA_4blocks_noglides.osexp","/Users/aviadalbert/Documents/Academisch/UoC/Dissertation/Experiment/OpenSesame/NAP-FC/NAP_GER_AA_4blocks_noglides","yes","no","sans","no","20","no","black","no","Weiter","yes","768","legacy","20","9","0","/Users/aviadalbert/Documents/Academisch/UoC/Dissertation/Experiment/OpenSesame/NAP-FC/NAP_GER_AA_4blocks_noglides/subject-30.csv","xpyriment","Jazzy James","3.1.9","yes","yes","59a800d99ad5a1025d81bb03","59a801616c613b0251691de0","no","no","0","f","j","space","NA","space","space","f","912","2385","18165","NA","43142","10718","912","2","legacy","1024","1","44100","-16","experiment","flal","2","1","1","0","1","ENG","30","","even","5868503","5849817","NA","NA","5870889","5868499","NA","5045450","5868040","5045451","5045450","5759877","5803023","5937816","5936313","5938729","5818041","5814033","5849816","NA","5713226","5747054","5848160","5813802","5868503","5814036","NA","5937816","5937816","NA","NA","5936309","NAP perception","16","30412","21","yes","1024"
"77.2727272727","yes","77.2727272727","1430.63636364","1430.63636364","white","no","xpyriment","Ich habe die obigen Informationen gelesen und verstanden.","legacy","legacy","0","uniform","1","0","0","undefined","undefined","1","j","2","1","NA","0","1","0","0","0","0","0","0","0","0","31","31","31","0","0","0","NA","0","0","2","0","0","0","2","31","31","31","31","31","Fri Oct 27 11:16:02 2017","Forced-choice identification task with a practice and an experimental phase","yes","NAP_GER_AA_4blocks_noglides.osexp","/Users/aviadalbert/Documents/Academisch/UoC/Dissertation/Experiment/OpenSesame/NAP-FC/NAP_GER_AA_4blocks_noglides","yes","no","sans","no","20","no","black","no","Weiter","yes","768","legacy","21","9","0","/Users/aviadalbert/Documents/Academisch/UoC/Dissertation/Experiment/OpenSesame/NAP-FC/NAP_GER_AA_4blocks_noglides/subject-30.csv","xpyriment","Jazzy James","3.1.9","yes","yes","59a800d99ad5a1025d81bb03","59a801616c613b0251691de0","no","no","0","j","j","space","NA","space","space","j","1062","2385","18165","NA","43142","10718","1062","2","legacy","1024","1","44100","-16","experiment","lefal","2","1","1","0","1","ENG","30","","even","5868503","5849817","NA","NA","5870889","5868499","NA","5045450","5868040","5045451","5045450","5759877","5803023","5940502","5938999","5941565","5818041","5814033","5849816","NA","5713226","5747054","5848160","5813802","5868503","5814036","NA","5940502","5940502","NA","NA","5938995","NAP perception","17","31474","22","yes","1024"
"78.2608695652","yes","78.2608695652","1442.13043478","1442.13043478","white","no","xpyriment","Ich habe die obigen Informationen gelesen und verstanden.","legacy","legacy","0","uniform","1","0","0","undefined","undefined","1","j","2","1","NA","0","1","0","0","0","0","0","0","0","0","32","32","32","0","0","0","NA","0","0","2","0","0","0","2","32","32","32","32","32","Fri Oct 27 11:16:02 2017","Forced-choice identification task with a practice and an experimental phase","yes","NAP_GER_AA_4blocks_noglides.osexp","/Users/aviadalbert/Documents/Academisch/UoC/Dissertation/Experiment/OpenSesame/NAP-FC/NAP_GER_AA_4blocks_noglides","yes","no","sans","no","20","no","black","no","Weiter","yes","768","legacy","22","9","0","/Users/aviadalbert/Documents/Academisch/UoC/Dissertation/Experiment/OpenSesame/NAP-FC/NAP_GER_AA_4blocks_noglides/subject-30.csv","xpyriment","Jazzy James","3.1.9","yes","yes","59a800d99ad5a1025d81bb03","59a801616c613b0251691de0","no","no","0","j","j","space","NA","space","space","j","1695","2385","18165","NA","43142","10718","1695","2","legacy","1024","1","44100","-16","experiment","fesal","2","1","1","0","1","ENG","30","","even","5868503","5849817","NA","NA","5870889","5868499","NA","5045450","5868040","5045451","5045450","5759877","5803023","5943348","5941844","5945046","5818041","5814033","5849816","NA","5713226","5747054","5848160","5813802","5868503","5814036","NA","5943347","5943348","NA","NA","5941840","NAP perception","18","33169","23","yes","1024"
"79.1666666667","yes","79.1666666667","1439.91666667","1439.91666667","white","no","xpyriment","Ich habe die obigen Informationen gelesen und verstanden.","legacy","legacy","0","uniform","1","0","0","undefined","undefined","1","f","2","1","NA","0","1","0","0","0","0","0","0","0","0","33","33","33","0","0","0","NA","0","0","2","0","0","0","2","33","33","33","33","33","Fri Oct 27 11:16:02 2017","Forced-choice identification task with a practice and an experimental phase","yes","NAP_GER_AA_4blocks_noglides.osexp","/Users/aviadalbert/Documents/Academisch/UoC/Dissertation/Experiment/OpenSesame/NAP-FC/NAP_GER_AA_4blocks_noglides","yes","no","sans","no","20","no","black","no","Weiter","yes","768","legacy","23","9","0","/Users/aviadalbert/Documents/Academisch/UoC/Dissertation/Experiment/OpenSesame/NAP-FC/NAP_GER_AA_4blocks_noglides/subject-30.csv","xpyriment","Jazzy James","3.1.9","yes","yes","59a800d99ad5a1025d81bb03","59a801616c613b0251691de0","no","no","0","f","j","space","NA","space","space","f","1389","2385","18165","NA","43142","10718","1389","2","legacy","1024","1","44100","-16","experiment","vlal","2","1","1","0","1","ENG","30","","even","5868503","5849817","NA","NA","5870889","5868499","NA","5045450","5868040","5045451","5045450","5759877","5803023","5946836","5945330","5948226","5818041","5814033","5849816","NA","5713226","5747054","5848160","5813802","5868503","5814036","NA","5946836","5946836","NA","NA","5945326","NAP perception","19","34558","24","yes","1024"
"80","yes","80","1422.72","1422.72","white","no","xpyriment","Ich habe die obigen Informationen gelesen und verstanden.","legacy","legacy","0","uniform","1","0","0","undefined","undefined","1","j","2","1","NA","0","1","0","0","0","0","0","0","0","0","34","34","34","0","0","0","NA","0","0","2","0","0","0","2","34","34","34","34","34","Fri Oct 27 11:16:02 2017","Forced-choice identification task with a practice and an experimental phase","yes","NAP_GER_AA_4blocks_noglides.osexp","/Users/aviadalbert/Documents/Academisch/UoC/Dissertation/Experiment/OpenSesame/NAP-FC/NAP_GER_AA_4blocks_noglides","yes","no","sans","no","20","no","black","no","Weiter","yes","768","legacy","24","9","0","/Users/aviadalbert/Documents/Academisch/UoC/Dissertation/Experiment/OpenSesame/NAP-FC/NAP_GER_AA_4blocks_noglides/subject-30.csv","xpyriment","Jazzy James","3.1.9","yes","yes","59a800d99ad5a1025d81bb03","59a801616c613b0251691de0","no","no","0","j","j","space","NA","space","space","j","1010","2385","18165","NA","43142","10718","1010","2","legacy","1024","1","44100","-16","experiment","fetal","2","1","1","0","1","ENG","30","","even","5868503","5849817","NA","NA","5870889","5868499","NA","5045450","5868040","5045451","5045450","5759877","5803023","5950017","5948510","5951028","5818041","5814033","5849816","NA","5713226","5747054","5848160","5813802","5868503","5814036","NA","5950017","5950017","NA","NA","5948507","NAP perception","20","35568","25","yes","1024"
"80.7692307692","yes","80.7692307692","1436.76923077","1436.76923077","white","no","xpyriment","Ich habe die obigen Informationen gelesen und verstanden.","legacy","legacy","0","uniform","1","0","0","undefined","undefined","1","j","2","1","NA","0","1","0","0","0","0","0","0","0","0","35","35","35","0","0","0","NA","0","0","2","0","0","0","2","35","35","35","35","35","Fri Oct 27 11:16:02 2017","Forced-choice identification task with a practice and an experimental phase","yes","NAP_GER_AA_4blocks_noglides.osexp","/Users/aviadalbert/Documents/Academisch/UoC/Dissertation/Experiment/OpenSesame/NAP-FC/NAP_GER_AA_4blocks_noglides","yes","no","sans","no","20","no","black","no","Weiter","yes","768","legacy","25","9","0","/Users/aviadalbert/Documents/Academisch/UoC/Dissertation/Experiment/OpenSesame/NAP-FC/NAP_GER_AA_4blocks_noglides/subject-30.csv","xpyriment","Jazzy James","3.1.9","yes","yes","59a800d99ad5a1025d81bb03","59a801616c613b0251691de0","no","no","0","j","j","space","NA","space","space","j","1788","2385","18165","NA","43142","10718","1788","2","legacy","1024","1","44100","-16","experiment","eʃpal","2","1","1","0","1","ENG","30","","even","5868503","5849817","NA","NA","5870889","5868499","NA","5045450","5868040","5045451","5045450","5759877","5803023","5952816","5951312","5954605","5818041","5814033","5849816","NA","5713226","5747054","5848160","5813802","5868503","5814036","NA","5952816","5952816","NA","NA","5951308","NAP perception","21","37356","26","yes","1024"
"81.4814814815","yes","81.4814814815","1446.18518519","1446.18518519","white","no","xpyriment","Ich habe die obigen Informationen gelesen und verstanden.","legacy","legacy","0","uniform","1","0","0","undefined","undefined","1","j","2","1","NA","0","1","0","0","0","0","0","0","0","0","36","36","36","0","0","0","NA","0","0","2","0","0","0","2","36","36","36","36","36","Fri Oct 27 11:16:02 2017","Forced-choice identification task with a practice and an experimental phase","yes","NAP_GER_AA_4blocks_noglides.osexp","/Users/aviadalbert/Documents/Academisch/UoC/Dissertation/Experiment/OpenSesame/NAP-FC/NAP_GER_AA_4blocks_noglides","yes","no","sans","no","20","no","black","no","Weiter","yes","768","legacy","26","9","0","/Users/aviadalbert/Documents/Academisch/UoC/Dissertation/Experiment/OpenSesame/NAP-FC/NAP_GER_AA_4blocks_noglides/subject-30.csv","xpyriment","Jazzy James","3.1.9","yes","yes","59a800d99ad5a1025d81bb03","59a801616c613b0251691de0","no","no","0","j","j","space","NA","space","space","j","1691","2385","18165","NA","43142","10718","1691","2","legacy","1024","1","44100","-16","experiment","emlal","2","1","1","0","1","ENG","30","","even","5868503","5849817","NA","NA","5870889","5868499","NA","5045450","5868040","5045451","5045450","5759877","5803023","5956393","5954888","5958085","5818041","5814033","5849816","NA","5713226","5747054","5848160","5813802","5868503","5814036","NA","5956392","5956393","NA","NA","5954885","NAP perception","22","39047","27","yes","1024"
"82.1428571429","yes","82.1428571429","1447.96428571","1447.96428571","white","no","xpyriment","Ich habe die obigen Informationen gelesen und verstanden.","legacy","legacy","0","uniform","1","0","0","undefined","undefined","1","f","2","1","NA","0","1","0","0","0","0","0","0","0","0","37","37","37","0","0","0","NA","0","0","2","0","0","0","2","37","37","37","37","37","Fri Oct 27 11:16:02 2017","Forced-choice identification task with a practice and an experimental phase","yes","NAP_GER_AA_4blocks_noglides.osexp","/Users/aviadalbert/Documents/Academisch/UoC/Dissertation/Experiment/OpenSesame/NAP-FC/NAP_GER_AA_4blocks_noglides","yes","no","sans","no","20","no","black","no","Weiter","yes","768","legacy","27","9","0","/Users/aviadalbert/Documents/Academisch/UoC/Dissertation/Experiment/OpenSesame/NAP-FC/NAP_GER_AA_4blocks_noglides/subject-30.csv","xpyriment","Jazzy James","3.1.9","yes","yes","59a800d99ad5a1025d81bb03","59a801616c613b0251691de0","no","no","0","f","j","space","NA","space","space","f","1496","2385","18165","NA","43142","10718","1496","2","legacy","1024","1","44100","-16","experiment","npal","2","1","1","0","1","ENG","30","","even","5868503","5849817","NA","NA","5870889","5868499","NA","5045450","5868040","5045451","5045450","5759877","5803023","5959875","5958369","5961372","5818041","5814033","5849816","NA","5713226","5747054","5848160","5813802","5868503","5814036","NA","5959875","5959875","NA","NA","5958365","NAP perception","23","40543","28","yes","1024"
"82.7586206897","yes","82.7586206897","1465.93103448","1465.93103448","white","no","xpyriment","Ich habe die obigen Informationen gelesen und verstanden.","legacy","legacy","0","uniform","1","0","0","undefined","undefined","1","j","2","1","NA","0","1","0","0","0","0","0","0","0","0","38","38","38","0","0","0","NA","0","0","2","0","0","0","2","38","38","38","38","38","Fri Oct 27 11:16:02 2017","Forced-choice identification task with a practice and an experimental phase","yes","NAP_GER_AA_4blocks_noglides.osexp","/Users/aviadalbert/Documents/Academisch/UoC/Dissertation/Experiment/OpenSesame/NAP-FC/NAP_GER_AA_4blocks_noglides","yes","no","sans","no","20","no","black","no","Weiter","yes","768","legacy","28","9","0","/Users/aviadalbert/Documents/Academisch/UoC/Dissertation/Experiment/OpenSesame/NAP-FC/NAP_GER_AA_4blocks_noglides/subject-30.csv","xpyriment","Jazzy James","3.1.9","yes","yes","59a800d99ad5a1025d81bb03","59a801616c613b0251691de0","no","no","0","j","j","space","NA","space","space","j","1969","2385","18165","NA","43142","10718","1969","2","legacy","1024","1","44100","-16","experiment","emsal","2","1","1","0","1","ENG","30","","even","5868503","5849817","NA","NA","5870889","5868499","NA","5045450","5868040","5045451","5045450","5759877","5803023","5963151","5961648","5965122","5818041","5814033","5849816","NA","5713226","5747054","5848160","5813802","5868503","5814036","NA","5963151","5963151","NA","NA","5961644","NAP perception","24","42512","29","yes","1024"
"83.3333333333","yes","83.3333333333","1446.83333333","1446.83333333","white","no","xpyriment","Ich habe die obigen Informationen gelesen und verstanden.","legacy","legacy","0","uniform","1","0","0","undefined","undefined","1","f","2","1","NA","0","1","0","0","0","0","0","0","0","0","39","39","39","0","0","0","NA","0","0","2","0","0","0","2","39","39","39","39","39","Fri Oct 27 11:16:02 2017","Forced-choice identification task with a practice and an experimental phase","yes","NAP_GER_AA_4blocks_noglides.osexp","/Users/aviadalbert/Documents/Academisch/UoC/Dissertation/Experiment/OpenSesame/NAP-FC/NAP_GER_AA_4blocks_noglides","yes","no","sans","no","20","no","black","no","Weiter","yes","768","legacy","29","9","0","/Users/aviadalbert/Documents/Academisch/UoC/Dissertation/Experiment/OpenSesame/NAP-FC/NAP_GER_AA_4blocks_noglides/subject-30.csv","xpyriment","Jazzy James","3.1.9","yes","yes","59a800d99ad5a1025d81bb03","59a801616c613b0251691de0","no","no","0","f","j","space","NA","space","space","f","893","2385","18165","NA","43142","10718","893","2","legacy","1024","1","44100","-16","experiment","sfal","2","1","1","0","1","ENG","30","","even","5868503","5849817","NA","NA","5870889","5868499","NA","5045450","5868040","5045451","5045450","5759877","5803023","5966905","5965401","5967799","5818041","5814033","5849816","NA","5713226","5747054","5848160","5813802","5868503","5814036","NA","5966904","5966904","NA","NA","5965397","NAP perception","25","43405","30","yes","1024"
"80.6451612903","yes","80.6451612903","1456.70967742","1456.70967742","white","no","xpyriment","Ich habe die obigen Informationen gelesen und verstanden.","legacy","legacy","0","uniform","0","0","0","undefined","undefined","0","f","2","1","NA","0","1","0","0","0","0","0","0","0","0","40","40","40","0","0","0","NA","0","0","2","0","0","0","2","40","40","40","40","40","Fri Oct 27 11:16:02 2017","Forced-choice identification task with a practice and an experimental phase","yes","NAP_GER_AA_4blocks_noglides.osexp","/Users/aviadalbert/Documents/Academisch/UoC/Dissertation/Experiment/OpenSesame/NAP-FC/NAP_GER_AA_4blocks_noglides","yes","no","sans","no","20","no","black","no","Weiter","yes","768","legacy","30","9","0","/Users/aviadalbert/Documents/Academisch/UoC/Dissertation/Experiment/OpenSesame/NAP-FC/NAP_GER_AA_4blocks_noglides/subject-30.csv","xpyriment","Jazzy James","3.1.9","yes","yes","59a800d99ad5a1025d81bb03","59a801616c613b0251691de0","no","no","0","j","j","space","NA","space","space","j","1753","2385","18165","NA","43142","10718","1753","2","legacy","1024","1","44100","-16","experiment","mlal","2","1","1","0","1","ENG","30","","even","5868503","5849817","NA","NA","5870889","5868499","NA","5045450","5868040","5045451","5045450","5759877","5803023","5969573","5968069","5971328","5818041","5814033","5849816","NA","5713226","5747054","5848160","5813802","5868503","5814036","NA","5969573","5969573","NA","NA","5968065","NAP perception","25","45158","31","yes","1024"
"81.25","yes","81.25","1452.03125","1452.03125","white","no","xpyriment","Ich habe die obigen Informationen gelesen und verstanden.","legacy","legacy","0","uniform","1","0","0","undefined","undefined","1","j","2","1","NA","0","1","0","0","0","0","0","0","0","0","41","41","41","0","0","0","NA","0","0","2","0","0","0","2","41","41","41","41","41","Fri Oct 27 11:16:02 2017","Forced-choice identification task with a practice and an experimental phase","yes","NAP_GER_AA_4blocks_noglides.osexp","/Users/aviadalbert/Documents/Academisch/UoC/Dissertation/Experiment/OpenSesame/NAP-FC/NAP_GER_AA_4blocks_noglides","yes","no","sans","no","20","no","black","no","Weiter","yes","768","legacy","31","9","0","/Users/aviadalbert/Documents/Academisch/UoC/Dissertation/Experiment/OpenSesame/NAP-FC/NAP_GER_AA_4blocks_noglides/subject-30.csv","xpyriment","Jazzy James","3.1.9","yes","yes","59a800d99ad5a1025d81bb03","59a801616c613b0251691de0","no","no","0","j","j","space","NA","space","space","j","1307","2385","18165","NA","43142","10718","1307","2","legacy","1024","1","44100","-16","experiment","nepal","2","1","1","0","1","ENG","30","","even","5868503","5849817","NA","NA","5870889","5868499","NA","5045450","5868040","5045451","5045450","5759877","5803023","5973123","5971617","5974431","5818041","5814033","5849816","NA","5713226","5747054","5848160","5813802","5868503","5814036","NA","5973123","5973123","NA","NA","5971614","NAP perception","26","46465","32","yes","1024"
"78.7878787879","yes","78.7878787879","1450.60606061","1450.60606061","white","no","xpyriment","Ich habe die obigen Informationen gelesen und verstanden.","legacy","legacy","0","uniform","0","0","0","undefined","undefined","0","j","2","1","NA","0","1","0","0","0","0","0","0","0","0","42","42","42","0","0","0","NA","0","0","2","0","0","0","2","42","42","42","42","42","Fri Oct 27 11:16:02 2017","Forced-choice identification task with a practice and an experimental phase","yes","NAP_GER_AA_4blocks_noglides.osexp","/Users/aviadalbert/Documents/Academisch/UoC/Dissertation/Experiment/OpenSesame/NAP-FC/NAP_GER_AA_4blocks_noglides","yes","no","sans","no","20","no","black","no","Weiter","yes","768","legacy","32","9","0","/Users/aviadalbert/Documents/Academisch/UoC/Dissertation/Experiment/OpenSesame/NAP-FC/NAP_GER_AA_4blocks_noglides/subject-30.csv","xpyriment","Jazzy James","3.1.9","yes","yes","59a800d99ad5a1025d81bb03","59a801616c613b0251691de0","no","no","0","f","j","space","NA","space","space","f","1405","2385","18165","NA","43142","10718","1405","2","legacy","1024","1","44100","-16","experiment","eftal","2","1","1","0","1","ENG","30","","even","5868503","5849817","NA","NA","5870889","5868499","NA","5045450","5868040","5045451","5045450","5759877","5803023","5976219","5974713","5977626","5818041","5814033","5849816","NA","5713226","5747054","5848160","5813802","5868503","5814036","NA","5976219","5976219","NA","NA","5974709","NAP perception","26","47870","33","yes","1024"
"79.4117647059","yes","79.4117647059","1453.38235294","1453.38235294","white","no","xpyriment","Ich habe die obigen Informationen gelesen und verstanden.","legacy","legacy","0","uniform","1","0","0","undefined","undefined","1","f","2","1","NA","0","1","0","0","0","0","0","0","0","0","43","43","43","0","0","0","NA","0","0","2","0","0","0","2","43","43","43","43","43","Fri Oct 27 11:16:02 2017","Forced-choice identification task with a practice and an experimental phase","yes","NAP_GER_AA_4blocks_noglides.osexp","/Users/aviadalbert/Documents/Academisch/UoC/Dissertation/Experiment/OpenSesame/NAP-FC/NAP_GER_AA_4blocks_noglides","yes","no","sans","no","20","no","black","no","Weiter","yes","768","legacy","33","9","0","/Users/aviadalbert/Documents/Academisch/UoC/Dissertation/Experiment/OpenSesame/NAP-FC/NAP_GER_AA_4blocks_noglides/subject-30.csv","xpyriment","Jazzy James","3.1.9","yes","yes","59a800d99ad5a1025d81bb03","59a801616c613b0251691de0","no","no","0","f","j","space","NA","space","space","f","1545","2385","18165","NA","43142","10718","1545","2","legacy","1024","1","44100","-16","experiment","zmal","2","1","1","0","1","ENG","30","","even","5868503","5849817","NA","NA","5870889","5868499","NA","5045450","5868040","5045451","5045450","5759877","5803023","5979416","5977913","5980963","5818041","5814033","5849816","NA","5713226","5747054","5848160","5813802","5868503","5814036","NA","5979416","5979416","NA","NA","5977909","NAP perception","27","49415","34","yes","1024"
"80","yes","80","1442.97142857","1442.97142857","white","no","xpyriment","Ich habe die obigen Informationen gelesen und verstanden.","legacy","legacy","0","uniform","1","0","0","undefined","undefined","1","j","2","1","NA","0","1","0","0","0","0","0","0","0","0","44","44","44","0","0","0","NA","0","0","2","0","0","0","2","44","44","44","44","44","Fri Oct 27 11:16:02 2017","Forced-choice identification task with a practice and an experimental phase","yes","NAP_GER_AA_4blocks_noglides.osexp","/Users/aviadalbert/Documents/Academisch/UoC/Dissertation/Experiment/OpenSesame/NAP-FC/NAP_GER_AA_4blocks_noglides","yes","no","sans","no","20","no","black","no","Weiter","yes","768","legacy","34","9","0","/Users/aviadalbert/Documents/Academisch/UoC/Dissertation/Experiment/OpenSesame/NAP-FC/NAP_GER_AA_4blocks_noglides/subject-30.csv","xpyriment","Jazzy James","3.1.9","yes","yes","59a800d99ad5a1025d81bb03","59a801616c613b0251691de0","no","no","0","j","j","space","NA","space","space","j","1089","2385","18165","NA","43142","10718","1089","2","legacy","1024","1","44100","-16","experiment","enmal","2","1","1","0","1","ENG","30","","even","5868503","5849817","NA","NA","5870889","5868499","NA","5045450","5868040","5045451","5045450","5759877","5803023","5982739","5981236","5983830","5818041","5814033","5849816","NA","5713226","5747054","5848160","5813802","5868503","5814036","NA","5982739","5982739","NA","NA","5981232","NAP perception","28","50504","35","yes","1024"
"80.5555555556","yes","80.5555555556","1457.16666667","1457.16666667","white","no","xpyriment","Ich habe die obigen Informationen gelesen und verstanden.","legacy","legacy","0","uniform","1","0","0","undefined","undefined","1","j","2","1","NA","0","1","0","0","0","0","0","0","0","0","45","45","45","0","0","0","NA","0","0","2","0","0","0","2","45","45","45","45","45","Fri Oct 27 11:16:02 2017","Forced-choice identification task with a practice and an experimental phase","yes","NAP_GER_AA_4blocks_noglides.osexp","/Users/aviadalbert/Documents/Academisch/UoC/Dissertation/Experiment/OpenSesame/NAP-FC/NAP_GER_AA_4blocks_noglides","yes","no","sans","no","20","no","black","no","Weiter","yes","768","legacy","35","9","0","/Users/aviadalbert/Documents/Academisch/UoC/Dissertation/Experiment/OpenSesame/NAP-FC/NAP_GER_AA_4blocks_noglides/subject-30.csv","xpyriment","Jazzy James","3.1.9","yes","yes","59a800d99ad5a1025d81bb03","59a801616c613b0251691de0","no","no","0","j","j","space","NA","space","space","j","1954","2385","18165","NA","43142","10718","1954","2","legacy","1024","1","44100","-16","experiment","mesal","2","1","1","0","1","ENG","30","","even","5868503","5849817","NA","NA","5870889","5868499","NA","5045450","5868040","5045451","5045450","5759877","5803023","5985627","5984123","5987582","5818041","5814033","5849816","NA","5713226","5747054","5848160","5813802","5868503","5814036","NA","5985627","5985627","NA","NA","5984120","NAP perception","29","52458","36","yes","1024"
"81.0810810811","yes","81.0810810811","1451.62162162","1451.62162162","white","no","xpyriment","Ich habe die obigen Informationen gelesen und verstanden.","legacy","legacy","0","uniform","1","0","0","undefined","undefined","1","f","2","1","NA","0","1","0","0","0","0","0","0","0","0","46","46","46","0","0","0","NA","0","0","2","0","0","0","2","46","46","46","46","46","Fri Oct 27 11:16:02 2017","Forced-choice identification task with a practice and an experimental phase","yes","NAP_GER_AA_4blocks_noglides.osexp","/Users/aviadalbert/Documents/Academisch/UoC/Dissertation/Experiment/OpenSesame/NAP-FC/NAP_GER_AA_4blocks_noglides","yes","no","sans","no","20","no","black","no","Weiter","yes","768","legacy","36","9","0","/Users/aviadalbert/Documents/Academisch/UoC/Dissertation/Experiment/OpenSesame/NAP-FC/NAP_GER_AA_4blocks_noglides/subject-30.csv","xpyriment","Jazzy James","3.1.9","yes","yes","59a800d99ad5a1025d81bb03","59a801616c613b0251691de0","no","no","0","f","j","space","NA","space","space","f","1252","2385","18165","NA","43142","10718","1252","2","legacy","1024","1","44100","-16","experiment","ʃmal","2","1","1","0","1","ENG","30","","even","5868503","5849817","NA","NA","5870889","5868499","NA","5045450","5868040","5045451","5045450","5759877","5803023","5989366","5987862","5990620","5818041","5814033","5849816","NA","5713226","5747054","5848160","5813802","5868503","5814036","NA","5989365","5989365","NA","NA","5987858","NAP perception","30","53710","37","yes","1024"
"81.5789473684","yes","81.5789473684","1471.84210526","1471.84210526","white","no","xpyriment","Ich habe die obigen Informationen gelesen und verstanden.","legacy","legacy","0","uniform","1","0","0","undefined","undefined","1","f","2","1","NA","0","1","0","0","0","0","0","0","0","0","47","47","47","0","0","0","NA","0","0","2","0","0","0","2","47","47","47","47","47","Fri Oct 27 11:16:02 2017","Forced-choice identification task with a practice and an experimental phase","yes","NAP_GER_AA_4blocks_noglides.osexp","/Users/aviadalbert/Documents/Academisch/UoC/Dissertation/Experiment/OpenSesame/NAP-FC/NAP_GER_AA_4blocks_noglides","yes","no","sans","no","20","no","black","no","Weiter","yes","768","legacy","37","9","0","/Users/aviadalbert/Documents/Academisch/UoC/Dissertation/Experiment/OpenSesame/NAP-FC/NAP_GER_AA_4blocks_noglides/subject-30.csv","xpyriment","Jazzy James","3.1.9","yes","yes","59a800d99ad5a1025d81bb03","59a801616c613b0251691de0","no","no","0","f","j","space","NA","space","space","f","2220","2385","18165","NA","43142","10718","2220","2","legacy","1024","1","44100","-16","experiment","nval","2","1","1","0","1","ENG","30","","even","5868503","5849817","NA","NA","5870889","5868499","NA","5045450","5868040","5045451","5045450","5759877","5803023","5992421","5990918","5994643","5818041","5814033","5849816","NA","5713226","5747054","5848160","5813802","5868503","5814036","NA","5992421","5992421","NA","NA","5990914","NAP perception","31","55930","38","yes","1024"
"82.0512820513","yes","82.0512820513","1467.38461538","1467.38461538","white","no","xpyriment","Ich habe die obigen Informationen gelesen und verstanden.","legacy","legacy","0","uniform","1","0","0","undefined","undefined","1","f","2","1","NA","0","1","0","0","0","0","0","0","0","0","48","48","48","0","0","0","NA","0","0","2","0","0","0","2","48","48","48","48","48","Fri Oct 27 11:16:02 2017","Forced-choice identification task with a practice and an experimental phase","yes","NAP_GER_AA_4blocks_noglides.osexp","/Users/aviadalbert/Documents/Academisch/UoC/Dissertation/Experiment/OpenSesame/NAP-FC/NAP_GER_AA_4blocks_noglides","yes","no","sans","no","20","no","black","no","Weiter","yes","768","legacy","38","9","0","/Users/aviadalbert/Documents/Academisch/UoC/Dissertation/Experiment/OpenSesame/NAP-FC/NAP_GER_AA_4blocks_noglides/subject-30.csv","xpyriment","Jazzy James","3.1.9","yes","yes","59a800d99ad5a1025d81bb03","59a801616c613b0251691de0","no","no","0","f","j","space","NA","space","space","f","1298","2385","18165","NA","43142","10718","1298","2","legacy","1024","1","44100","-16","experiment","spal","2","1","1","0","1","ENG","30","","even","5868503","5849817","NA","NA","5870889","5868499","NA","5045450","5868040","5045451","5045450","5759877","5803023","5996424","5994919","5997723","5818041","5814033","5849816","NA","5713226","5747054","5848160","5813802","5868503","5814036","NA","5996424","5996424","NA","NA","5994915","NAP perception","32","57228","39","yes","1024"
"82.5","yes","82.5","1471.125","1471.125","white","no","xpyriment","Ich habe die obigen Informationen gelesen und verstanden.","legacy","legacy","0","uniform","1","0","0","undefined","undefined","1","f","2","1","NA","0","1","0","0","0","0","0","0","0","0","49","49","49","0","0","0","NA","0","0","2","0","0","0","2","49","49","49","49","49","Fri Oct 27 11:16:02 2017","Forced-choice identification task with a practice and an experimental phase","yes","NAP_GER_AA_4blocks_noglides.osexp","/Users/aviadalbert/Documents/Academisch/UoC/Dissertation/Experiment/OpenSesame/NAP-FC/NAP_GER_AA_4blocks_noglides","yes","no","sans","no","20","no","black","no","Weiter","yes","768","legacy","39","9","0","/Users/aviadalbert/Documents/Academisch/UoC/Dissertation/Experiment/OpenSesame/NAP-FC/NAP_GER_AA_4blocks_noglides/subject-30.csv","xpyriment","Jazzy James","3.1.9","yes","yes","59a800d99ad5a1025d81bb03","59a801616c613b0251691de0","no","no","0","f","j","space","NA","space","space","f","1617","2385","18165","NA","43142","10718","1617","2","legacy","1024","1","44100","-16","experiment","vzal","2","1","1","0","1","ENG","30","","even","5868503","5849817","NA","NA","5870889","5868499","NA","5045450","5868040","5045451","5045450","5759877","5803023","5999501","5997997","6001120","5818041","5814033","5849816","NA","5713226","5747054","5848160","5813802","5868503","5814036","NA","5999501","5999501","NA","NA","5997993","NAP perception","33","58845","40","yes","1024"
"82.9268292683","yes","82.9268292683","1459.75609756","1459.75609756","white","no","xpyriment","Ich habe die obigen Informationen gelesen und verstanden.","legacy","legacy","0","uniform","1","0","0","undefined","undefined","1","j","2","1","NA","0","1","0","0","0","0","0","0","0","0","50","50","50","0","0","0","NA","0","0","2","0","0","0","2","50","50","50","50","50","Fri Oct 27 11:16:02 2017","Forced-choice identification task with a practice and an experimental phase","yes","NAP_GER_AA_4blocks_noglides.osexp","/Users/aviadalbert/Documents/Academisch/UoC/Dissertation/Experiment/OpenSesame/NAP-FC/NAP_GER_AA_4blocks_noglides","yes","no","sans","no","20","no","black","no","Weiter","yes","768","legacy","40","9","0","/Users/aviadalbert/Documents/Academisch/UoC/Dissertation/Experiment/OpenSesame/NAP-FC/NAP_GER_AA_4blocks_noglides/subject-30.csv","xpyriment","Jazzy James","3.1.9","yes","yes","59a800d99ad5a1025d81bb03","59a801616c613b0251691de0","no","no","0","j","j","space","NA","space","space","j","1005","2385","18165","NA","43142","10718","1005","2","legacy","1024","1","44100","-16","experiment","emnal","2","1","1","0","1","ENG","30","","even","5868503","5849817","NA","NA","5870889","5868499","NA","5045450","5868040","5045451","5045450","5759877","5803023","6002910","6001406","6003918","5818041","5814033","5849816","NA","5713226","5747054","5848160","5813802","5868503","5814036","NA","6002909","6002910","NA","NA","6001402","NAP perception","34","59850","41","yes","1024"
"83.3333333333","yes","83.3333333333","1476.0952381","1476.0952381","white","no","xpyriment","Ich habe die obigen Informationen gelesen und verstanden.","legacy","legacy","0","uniform","1","0","0","undefined","undefined","1","j","2","1","NA","0","1","0","0","0","0","0","0","0","0","51","51","51","0","0","0","NA","0","0","2","0","0","0","2","51","51","51","51","51","Fri Oct 27 11:16:02 2017","Forced-choice identification task with a practice and an experimental phase","yes","NAP_GER_AA_4blocks_noglides.osexp","/Users/aviadalbert/Documents/Academisch/UoC/Dissertation/Experiment/OpenSesame/NAP-FC/NAP_GER_AA_4blocks_noglides","yes","no","sans","no","20","no","black","no","Weiter","yes","768","legacy","41","9","0","/Users/aviadalbert/Documents/Academisch/UoC/Dissertation/Experiment/OpenSesame/NAP-FC/NAP_GER_AA_4blocks_noglides/subject-30.csv","xpyriment","Jazzy James","3.1.9","yes","yes","59a800d99ad5a1025d81bb03","59a801616c613b0251691de0","no","no","0","j","j","space","NA","space","space","j","2146","2385","18165","NA","43142","10718","2146","2","legacy","1024","1","44100","-16","experiment","esmal","2","1","1","0","1","ENG","30","","even","5868503","5849817","NA","NA","5870889","5868499","NA","5045450","5868040","5045451","5045450","5759877","5803023","6005694","6004191","6007841","5818041","5814033","5849816","NA","5713226","5747054","5848160","5813802","5868503","5814036","NA","6005694","6005694","NA","NA","6004187","NAP perception","35","61996","42","yes","1024"
"83.7209302326","yes","83.7209302326","1465.69767442","1465.69767442","white","no","xpyriment","Ich habe die obigen Informationen gelesen und verstanden.","legacy","legacy","0","uniform","1","0","0","undefined","undefined","1","j","2","1","NA","0","1","0","0","0","0","0","0","0","0","52","52","52","0","0","0","NA","0","0","2","0","0","0","2","52","52","52","52","52","Fri Oct 27 11:16:02 2017","Forced-choice identification task with a practice and an experimental phase","yes","NAP_GER_AA_4blocks_noglides.osexp","/Users/aviadalbert/Documents/Academisch/UoC/Dissertation/Experiment/OpenSesame/NAP-FC/NAP_GER_AA_4blocks_noglides","yes","no","sans","no","20","no","black","no","Weiter","yes","768","legacy","42","9","0","/Users/aviadalbert/Documents/Academisch/UoC/Dissertation/Experiment/OpenSesame/NAP-FC/NAP_GER_AA_4blocks_noglides/subject-30.csv","xpyriment","Jazzy James","3.1.9","yes","yes","59a800d99ad5a1025d81bb03","59a801616c613b0251691de0","no","no","0","j","j","space","NA","space","space","j","1029","2385","18165","NA","43142","10718","1029","2","legacy","1024","1","44100","-16","experiment","elmal","2","1","1","0","1","ENG","30","","even","5868503","5849817","NA","NA","5870889","5868499","NA","5045450","5868040","5045451","5045450","5759877","5803023","6009621","6008117","6010651","5818041","5814033","5849816","NA","5713226","5747054","5848160","5813802","5868503","5814036","NA","6009621","6009621","NA","NA","6008113","NAP perception","36","63025","43","yes","1024"
"84.0909090909","yes","84.0909090909","1456.65909091","1456.65909091","white","no","xpyriment","Ich habe die obigen Informationen gelesen und verstanden.","legacy","legacy","0","uniform","1","0","0","undefined","undefined","1","f","2","1","NA","0","1","0","0","0","0","0","0","0","0","53","53","53","0","0","0","NA","0","0","2","0","0","0","2","53","53","53","53","53","Fri Oct 27 11:16:02 2017","Forced-choice identification task with a practice and an experimental phase","yes","NAP_GER_AA_4blocks_noglides.osexp","/Users/aviadalbert/Documents/Academisch/UoC/Dissertation/Experiment/OpenSesame/NAP-FC/NAP_GER_AA_4blocks_noglides","yes","no","sans","no","20","no","black","no","Weiter","yes","768","legacy","43","9","0","/Users/aviadalbert/Documents/Academisch/UoC/Dissertation/Experiment/OpenSesame/NAP-FC/NAP_GER_AA_4blocks_noglides/subject-30.csv","xpyriment","Jazzy James","3.1.9","yes","yes","59a800d99ad5a1025d81bb03","59a801616c613b0251691de0","no","no","0","f","j","space","NA","space","space","f","1068","2385","18165","NA","43142","10718","1068","2","legacy","1024","1","44100","-16","experiment","fnal","2","1","1","0","1","ENG","30","","even","5868503","5849817","NA","NA","5870889","5868499","NA","5045450","5868040","5045451","5045450","5759877","5803023","6012423","6010917","6013493","5818041","5814033","5849816","NA","5713226","5747054","5848160","5813802","5868503","5814036","NA","6012423","6012423","NA","NA","6010913","NAP perception","37","64093","44","yes","1024"
"82.2222222222","yes","82.2222222222","1482.53333333","1482.53333333","white","no","xpyriment","Ich habe die obigen Informationen gelesen und verstanden.","legacy","legacy","0","uniform","0","0","0","undefined","undefined","0","f","2","1","NA","0","1","0","0","0","0","0","0","0","0","54","54","54","0","0","0","NA","0","0","2","0","0","0","2","54","54","54","54","54","Fri Oct 27 11:16:02 2017","Forced-choice identification task with a practice and an experimental phase","yes","NAP_GER_AA_4blocks_noglides.osexp","/Users/aviadalbert/Documents/Academisch/UoC/Dissertation/Experiment/OpenSesame/NAP-FC/NAP_GER_AA_4blocks_noglides","yes","no","sans","no","20","no","black","no","Weiter","yes","768","legacy","44","9","0","/Users/aviadalbert/Documents/Academisch/UoC/Dissertation/Experiment/OpenSesame/NAP-FC/NAP_GER_AA_4blocks_noglides/subject-30.csv","xpyriment","Jazzy James","3.1.9","yes","yes","59a800d99ad5a1025d81bb03","59a801616c613b0251691de0","no","no","0","j","j","space","NA","space","space","j","2621","2385","18165","NA","43142","10718","2621","2","legacy","1024","1","44100","-16","experiment","msal","2","1","1","0","1","ENG","30","","even","5868503","5849817","NA","NA","5870889","5868499","NA","5045450","5868040","5045451","5045450","5759877","5803023","6015268","6013765","6017891","5818041","5814033","5849816","NA","5713226","5747054","5848160","5813802","5868503","5814036","NA","6015268","6015268","NA","NA","6013761","NAP perception","37","66714","45","yes","1024"
"82.6086956522","yes","82.6086956522","1474.84782609","1474.84782609","white","no","xpyriment","Ich habe die obigen Informationen gelesen und verstanden.","legacy","legacy","0","uniform","1","0","0","undefined","undefined","1","j","2","1","NA","0","1","0","0","0","0","0","0","0","0","55","55","55","0","0","0","NA","0","0","2","0","0","0","2","55","55","55","55","55","Fri Oct 27 11:16:02 2017","Forced-choice identification task with a practice and an experimental phase","yes","NAP_GER_AA_4blocks_noglides.osexp","/Users/aviadalbert/Documents/Academisch/UoC/Dissertation/Experiment/OpenSesame/NAP-FC/NAP_GER_AA_4blocks_noglides","yes","no","sans","no","20","no","black","no","Weiter","yes","768","legacy","45","9","0","/Users/aviadalbert/Documents/Academisch/UoC/Dissertation/Experiment/OpenSesame/NAP-FC/NAP_GER_AA_4blocks_noglides/subject-30.csv","xpyriment","Jazzy James","3.1.9","yes","yes","59a800d99ad5a1025d81bb03","59a801616c613b0251691de0","no","no","0","j","j","space","NA","space","space","j","1129","2385","18165","NA","43142","10718","1129","2","legacy","1024","1","44100","-16","experiment","lekal","2","1","1","0","1","ENG","30","","even","5868503","5849817","NA","NA","5870889","5868499","NA","5045450","5868040","5045451","5045450","5759877","5803023","6019673","6018166","6020804","5818041","5814033","5849816","NA","5713226","5747054","5848160","5813802","5868503","5814036","NA","6019673","6019673","NA","NA","6018162","NAP perception","38","67843","46","yes","1024"
"82.9787234043","yes","82.9787234043","1462.34042553","1462.34042553","white","no","xpyriment","Ich habe die obigen Informationen gelesen und verstanden.","legacy","legacy","0","uniform","1","0","0","undefined","undefined","1","f","2","1","NA","0","1","0","0","0","0","0","0","0","0","56","56","56","0","0","0","NA","0","0","2","0","0","0","2","56","56","56","56","56","Fri Oct 27 11:16:02 2017","Forced-choice identification task with a practice and an experimental phase","yes","NAP_GER_AA_4blocks_noglides.osexp","/Users/aviadalbert/Documents/Academisch/UoC/Dissertation/Experiment/OpenSesame/NAP-FC/NAP_GER_AA_4blocks_noglides","yes","no","sans","no","20","no","black","no","Weiter","yes","768","legacy","46","9","0","/Users/aviadalbert/Documents/Academisch/UoC/Dissertation/Experiment/OpenSesame/NAP-FC/NAP_GER_AA_4blocks_noglides/subject-30.csv","xpyriment","Jazzy James","3.1.9","yes","yes","59a800d99ad5a1025d81bb03","59a801616c613b0251691de0","no","no","0","f","j","space","NA","space","space","f","887","2385","18165","NA","43142","10718","887","2","legacy","1024","1","44100","-16","experiment","ʃfal","2","1","1","0","1","ENG","30","","even","5868503","5849817","NA","NA","5870889","5868499","NA","5045450","5868040","5045451","5045450","5759877","5803023","6022586","6021083","6023475","5818041","5814033","5849816","NA","5713226","5747054","5848160","5813802","5868503","5814036","NA","6022586","6022586","NA","NA","6021079","NAP perception","39","68730","47","yes","1024"
"83.3333333333","yes","83.3333333333","1454.66666667","1454.66666667","white","no","xpyriment","Ich habe die obigen Informationen gelesen und verstanden.","legacy","legacy","0","uniform","1","0","0","undefined","undefined","1","j","2","1","NA","0","1","0","0","0","0","0","0","0","0","57","57","57","0","0","0","NA","0","0","2","0","0","0","2","57","57","57","57","57","Fri Oct 27 11:16:02 2017","Forced-choice identification task with a practice and an experimental phase","yes","NAP_GER_AA_4blocks_noglides.osexp","/Users/aviadalbert/Documents/Academisch/UoC/Dissertation/Experiment/OpenSesame/NAP-FC/NAP_GER_AA_4blocks_noglides","yes","no","sans","no","20","no","black","no","Weiter","yes","768","legacy","47","9","0","/Users/aviadalbert/Documents/Academisch/UoC/Dissertation/Experiment/OpenSesame/NAP-FC/NAP_GER_AA_4blocks_noglides/subject-30.csv","xpyriment","Jazzy James","3.1.9","yes","yes","59a800d99ad5a1025d81bb03","59a801616c613b0251691de0","no","no","0","j","j","space","NA","space","space","j","1094","2385","18165","NA","43142","10718","1094","2","legacy","1024","1","44100","-16","experiment","elkal","2","1","1","0","1","ENG","30","","even","5868503","5849817","NA","NA","5870889","5868499","NA","5045450","5868040","5045451","5045450","5759877","5803023","6025258","6023754","6026354","5818041","5814033","5849816","NA","5713226","5747054","5848160","5813802","5868503","5814036","NA","6025257","6025258","NA","NA","6023750","NAP perception","40","69824","48","yes","1024"
"83.6734693878","yes","83.6734693878","1452.59183673","1452.59183673","white","no","xpyriment","Ich habe die obigen Informationen gelesen und verstanden.","legacy","legacy","0","uniform","1","0","0","undefined","undefined","1","f","2","1","NA","0","1","0","0","0","0","0","0","0","0","58","58","58","0","0","0","NA","0","0","2","0","0","0","2","58","58","58","58","58","Fri Oct 27 11:16:02 2017","Forced-choice identification task with a practice and an experimental phase","yes","NAP_GER_AA_4blocks_noglides.osexp","/Users/aviadalbert/Documents/Academisch/UoC/Dissertation/Experiment/OpenSesame/NAP-FC/NAP_GER_AA_4blocks_noglides","yes","no","sans","no","20","no","black","no","Weiter","yes","768","legacy","48","9","0","/Users/aviadalbert/Documents/Academisch/UoC/Dissertation/Experiment/OpenSesame/NAP-FC/NAP_GER_AA_4blocks_noglides/subject-30.csv","xpyriment","Jazzy James","3.1.9","yes","yes","59a800d99ad5a1025d81bb03","59a801616c613b0251691de0","no","no","0","f","j","space","NA","space","space","f","1353","2385","18165","NA","43142","10718","1353","2","legacy","1024","1","44100","-16","experiment","vnal","2","1","1","0","1","ENG","30","","even","5868503","5849817","NA","NA","5870889","5868499","NA","5045450","5868040","5045451","5045450","5759877","5803023","6028147","6026644","6029502","5818041","5814033","5849816","NA","5713226","5747054","5848160","5813802","5868503","5814036","NA","6028147","6028147","NA","NA","6026640","NAP perception","41","71177","49","yes","1024"
"84","yes","84","1440.38","1440.38","white","no","xpyriment","Ich habe die obigen Informationen gelesen und verstanden.","legacy","legacy","0","uniform","1","0","0","undefined","undefined","1","f","2","1","NA","0","1","0","0","0","0","0","0","0","0","59","59","59","0","0","0","NA","0","0","2","0","0","0","2","59","59","59","59","59","Fri Oct 27 11:16:02 2017","Forced-choice identification task with a practice and an experimental phase","yes","NAP_GER_AA_4blocks_noglides.osexp","/Users/aviadalbert/Documents/Academisch/UoC/Dissertation/Experiment/OpenSesame/NAP-FC/NAP_GER_AA_4blocks_noglides","yes","no","sans","no","20","no","black","no","Weiter","yes","768","legacy","49","9","0","/Users/aviadalbert/Documents/Academisch/UoC/Dissertation/Experiment/OpenSesame/NAP-FC/NAP_GER_AA_4blocks_noglides/subject-30.csv","xpyriment","Jazzy James","3.1.9","yes","yes","59a800d99ad5a1025d81bb03","59a801616c613b0251691de0","no","no","0","f","j","space","NA","space","space","f","842","2385","18165","NA","43142","10718","842","2","legacy","1024","1","44100","-16","experiment","mzal","2","1","1","0","1","ENG","30","","even","5868503","5849817","NA","NA","5870889","5868499","NA","5045450","5868040","5045451","5045450","5759877","5803023","6031269","6029765","6032113","5818041","5814033","5849816","NA","5713226","5747054","5848160","5813802","5868503","5814036","NA","6031269","6031269","NA","NA","6029762","NAP perception","42","72019","50","yes","1024"
"84.3137254902","yes","84.3137254902","1435.47058824","1435.47058824","white","no","xpyriment","Ich habe die obigen Informationen gelesen und verstanden.","legacy","legacy","0","uniform","1","0","0","undefined","undefined","1","j","2","1","NA","0","1","0","0","0","0","0","0","0","0","60","60","60","0","0","0","NA","0","0","2","0","0","0","2","60","60","60","60","60","Fri Oct 27 11:16:02 2017","Forced-choice identification task with a practice and an experimental phase","yes","NAP_GER_AA_4blocks_noglides.osexp","/Users/aviadalbert/Documents/Academisch/UoC/Dissertation/Experiment/OpenSesame/NAP-FC/NAP_GER_AA_4blocks_noglides","yes","no","sans","no","20","no","black","no","Weiter","yes","768","legacy","50","9","0","/Users/aviadalbert/Documents/Academisch/UoC/Dissertation/Experiment/OpenSesame/NAP-FC/NAP_GER_AA_4blocks_noglides/subject-30.csv","xpyriment","Jazzy James","3.1.9","yes","yes","59a800d99ad5a1025d81bb03","59a801616c613b0251691de0","no","no","0","j","j","space","NA","space","space","j","1190","2385","18165","NA","43142","10718","1190","2","legacy","1024","1","44100","-16","experiment","zemal","2","1","1","0","1","ENG","30","","even","5868503","5849817","NA","NA","5870889","5868499","NA","5045450","5868040","5045451","5045450","5759877","5803023","6033905","6032397","6035097","5818041","5814033","5849816","NA","5713226","5747054","5848160","5813802","5868503","5814036","NA","6033905","6033905","NA","NA","6032394","NAP perception","43","73209","51","yes","1024"
"84.6153846154","yes","84.6153846154","1428.61538462","1428.61538462","white","no","xpyriment","Ich habe die obigen Informationen gelesen und verstanden.","legacy","legacy","0","uniform","1","0","0","undefined","undefined","1","j","2","1","NA","0","1","0","0","0","0","0","0","0","0","61","61","61","0","0","0","NA","0","0","2","0","0","0","2","61","61","61","61","61","Fri Oct 27 11:16:02 2017","Forced-choice identification task with a practice and an experimental phase","yes","NAP_GER_AA_4blocks_noglides.osexp","/Users/aviadalbert/Documents/Academisch/UoC/Dissertation/Experiment/OpenSesame/NAP-FC/NAP_GER_AA_4blocks_noglides","yes","no","sans","no","20","no","black","no","Weiter","yes","768","legacy","51","9","0","/Users/aviadalbert/Documents/Academisch/UoC/Dissertation/Experiment/OpenSesame/NAP-FC/NAP_GER_AA_4blocks_noglides/subject-30.csv","xpyriment","Jazzy James","3.1.9","yes","yes","59a800d99ad5a1025d81bb03","59a801616c613b0251691de0","no","no","0","j","j","space","NA","space","space","j","1079","2385","18165","NA","43142","10718","1079","2","legacy","1024","1","44100","-16","experiment","lepal","2","1","1","0","1","ENG","30","","even","5868503","5849817","NA","NA","5870889","5868499","NA","5045450","5868040","5045451","5045450","5759877","5803023","6036875","6035372","6037955","5818041","5814033","5849816","NA","5713226","5747054","5848160","5813802","5868503","5814036","NA","6036875","6036875","NA","NA","6035368","NAP perception","44","74288","52","yes","1024"
"84.9056603774","yes","84.9056603774","1427.22641509","1427.22641509","white","no","xpyriment","Ich habe die obigen Informationen gelesen und verstanden.","legacy","legacy","0","uniform","1","0","0","undefined","undefined","1","j","2","1","NA","0","1","0","0","0","0","0","0","0","0","62","62","62","0","0","0","NA","0","0","2","0","0","0","2","62","62","62","62","62","Fri Oct 27 11:16:02 2017","Forced-choice identification task with a practice and an experimental phase","yes","NAP_GER_AA_4blocks_noglides.osexp","/Users/aviadalbert/Documents/Academisch/UoC/Dissertation/Experiment/OpenSesame/NAP-FC/NAP_GER_AA_4blocks_noglides","yes","no","sans","no","20","no","black","no","Weiter","yes","768","legacy","52","9","0","/Users/aviadalbert/Documents/Academisch/UoC/Dissertation/Experiment/OpenSesame/NAP-FC/NAP_GER_AA_4blocks_noglides/subject-30.csv","xpyriment","Jazzy James","3.1.9","yes","yes","59a800d99ad5a1025d81bb03","59a801616c613b0251691de0","no","no","0","j","j","space","NA","space","space","j","1355","2385","18165","NA","43142","10718","1355","2","legacy","1024","1","44100","-16","experiment","nefal","2","1","1","0","1","ENG","30","","even","5868503","5849817","NA","NA","5870889","5868499","NA","5045450","5868040","5045451","5045450","5759877","5803023","6039733","6038229","6041089","5818041","5814033","5849816","NA","5713226","5747054","5848160","5813802","5868503","5814036","NA","6039732","6039733","NA","NA","6038225","NAP perception","45","75643","53","yes","1024"
"85.1851851852","yes","85.1851851852","1422.7037037","1422.7037037","white","no","xpyriment","Ich habe die obigen Informationen gelesen und verstanden.","legacy","legacy","0","uniform","1","0","0","undefined","undefined","1","j","2","1","NA","0","1","0","0","0","0","0","0","0","0","63","63","63","0","0","0","NA","0","0","2","0","0","0","2","63","63","63","63","63","Fri Oct 27 11:16:02 2017","Forced-choice identification task with a practice and an experimental phase","yes","NAP_GER_AA_4blocks_noglides.osexp","/Users/aviadalbert/Documents/Academisch/UoC/Dissertation/Experiment/OpenSesame/NAP-FC/NAP_GER_AA_4blocks_noglides","yes","no","sans","no","20","no","black","no","Weiter","yes","768","legacy","53","9","0","/Users/aviadalbert/Documents/Academisch/UoC/Dissertation/Experiment/OpenSesame/NAP-FC/NAP_GER_AA_4blocks_noglides/subject-30.csv","xpyriment","Jazzy James","3.1.9","yes","yes","59a800d99ad5a1025d81bb03","59a801616c613b0251691de0","no","no","0","j","j","space","NA","space","space","j","1183","2385","18165","NA","43142","10718","1183","2","legacy","1024","1","44100","-16","experiment","ʃepal","2","1","1","0","1","ENG","30","","even","5868503","5849817","NA","NA","5870889","5868499","NA","5045450","5868040","5045451","5045450","5759877","5803023","6042867","6041364","6044051","5818041","5814033","5849816","NA","5713226","5747054","5848160","5813802","5868503","5814036","NA","6042867","6042867","NA","NA","6041360","NAP perception","46","76826","54","yes","1024"
"85.4545454545","yes","85.4545454545","1427.83636364","1427.83636364","white","no","xpyriment","Ich habe die obigen Informationen gelesen und verstanden.","legacy","legacy","0","uniform","1","0","0","undefined","undefined","1","j","2","1","NA","0","1","0","0","0","0","0","0","0","0","64","64","64","0","0","0","NA","0","0","2","0","0","0","2","64","64","64","64","64","Fri Oct 27 11:16:02 2017","Forced-choice identification task with a practice and an experimental phase","yes","NAP_GER_AA_4blocks_noglides.osexp","/Users/aviadalbert/Documents/Academisch/UoC/Dissertation/Experiment/OpenSesame/NAP-FC/NAP_GER_AA_4blocks_noglides","yes","no","sans","no","20","no","black","no","Weiter","yes","768","legacy","54","9","0","/Users/aviadalbert/Documents/Academisch/UoC/Dissertation/Experiment/OpenSesame/NAP-FC/NAP_GER_AA_4blocks_noglides/subject-30.csv","xpyriment","Jazzy James","3.1.9","yes","yes","59a800d99ad5a1025d81bb03","59a801616c613b0251691de0","no","no","0","j","j","space","NA","space","space","j","1705","2385","18165","NA","43142","10718","1705","2","legacy","1024","1","44100","-16","experiment","efsal","2","1","1","0","1","ENG","30","","even","5868503","5849817","NA","NA","5870889","5868499","NA","5045450","5868040","5045451","5045450","5759877","5803023","6045838","6044333","6047544","5818041","5814033","5849816","NA","5713226","5747054","5848160","5813802","5868503","5814036","NA","6045838","6045838","NA","NA","6044329","NAP perception","47","78531","55","yes","1024"
