"acc","accept_status","accuracy","average_response_time","avg_rt","background","bidi","canvas_backend","checkbox_status","clock_backend","color_backend","compensation","coordinates","correct","correct_block_activation","correct_block_exit","correct_instructions_1","correct_instructions_2","correct_keyboard_response","correct_response","count_block_activation","count_block_exit","count_block_info_QA","count_cont_e_block_message","count_e_block_loop","count_e_block_sequence","count_end_of_experiment","count_experiment","count_experimental_loop","count_form_consent","count_info_forms","count_instructions_1","count_instructions_2","count_keyboard_response","count_listen_message","count_logger","count_p_block_loop","count_p_block_sequence","count_p_feedback","count_pause_feedback","count_personal_details_form_1","count_personal_details_form_2","count_post_loop_blank","count_practice_loop","count_pre_e_block_message","count_pre_p_block_message","count_reset_feedback","count_stimulus_image","count_stimulus_sound","count_timeout_message","count_timeout_sound","count_trial_sequence","datetime","description","disable_garbage_collection","experiment_file","experiment_path","expyriment_opengl","font_bold","font_family","font_italic","font_size","font_underline","foreground","form_clicks","form_response","fullscreen","height","keyboard_backend","live_row","live_row_p_block_loop","live_row_practice_loop","logfile","mouse_backend","opensesame_codename","opensesame_version","osf_always_upload_data","osf_always_upload_experiment","osf_datanode_id","osf_id","practice","pygame_doublebuf","repeat_cycle","response","response_block_activation","response_block_exit","response_block_info_QA","response_instructions_1","response_instructions_2","response_keyboard_response","response_time","response_time_block_activation","response_time_block_exit","response_time_block_info_QA","response_time_instructions_1","response_time_instructions_2","response_time_keyboard_response","round_decimals","sampler_backend","sound_buf_size","sound_channels","sound_freq","sound_sample_size","start","stimulus","subject_age","subject_education","subject_gender","subject_german_native","subject_handedness","subject_language_other","subject_nr","subject_other_native_lang","subject_parity","time_block_activation","time_block_exit","time_block_info_QA","time_cont_e_block_message","time_e_block_loop","time_e_block_sequence","time_end_of_experiment","time_experiment","time_experimental_loop","time_form_consent","time_info_forms","time_instructions_1","time_instructions_2","time_keyboard_response","time_listen_message","time_logger","time_p_block_loop","time_p_block_sequence","time_p_feedback","time_pause_feedback","time_personal_details_form_1","time_personal_details_form_2","time_post_loop_blank","time_practice_loop","time_pre_e_block_message","time_pre_p_block_message","time_reset_feedback","time_stimulus_image","time_stimulus_sound","time_timeout_message","time_timeout_sound","time_trial_sequence","title","total_correct","total_response_time","total_responses","uniform_coordinates","width"
"100","yes","100","1441","1441","white","no","xpyriment","Ich habe die obigen Informationen gelesen und verstanden.","legacy","legacy","0","uniform","1","0","NA","undefined","undefined","1","f","0","0","NA","NA","NA","NA","NA","0","0","0","0","0","0","0","0","0","0","0","NA","NA","0","0","0","0","NA","0","0","0","0","0","0","0","Wed Oct 25 16:22:42 2017","Forced-choice identification task with a practice and an experimental phase","yes","NAP_GER_AA_4blocks_noglides.osexp","/Users/aviadalbert/Documents/Academisch/UoC/Dissertation/Experiment/OpenSesame/NAP-FC/NAP_GER_AA_4blocks_noglides","yes","no","sans","no","20","no","black","no","Weiter","yes","768","legacy","0","0","0","/Users/aviadalbert/Documents/Academisch/UoC/Dissertation/Experiment/OpenSesame/NAP-FC/NAP_GER_AA_4blocks_noglides/subject-18.csv","xpyriment","Jazzy James","3.1.9","yes","yes","59a800d99ad5a1025d81bb03","59a801616c613b0251691de0","yes","no","0","f","f","NA","NA","space","d","f","1441","2183","NA","NA","17297","35868","1441","2","legacy","1024","1","44100","-16","experiment","flal","2","0","1","0","1","English, French","18","","even","4478779","NA","NA","NA","NA","NA","NA","2170426","NA","2170427","2170427","4425336","4442637","4482678","4481171","4484120","4480963","4478775","NA","NA","4355636","4407740","NA","4478567","NA","4478779","NA","4482678","4482678","NA","NA","4481168","NAP perception","1","1441","1","yes","1024"
"100","yes","100","1236.5","1236.5","white","no","xpyriment","Ich habe die obigen Informationen gelesen und verstanden.","legacy","legacy","0","uniform","1","0","NA","undefined","undefined","1","j","0","0","NA","NA","NA","NA","NA","0","0","0","0","0","0","1","1","1","0","0","NA","NA","0","0","0","0","NA","0","0","1","1","1","1","1","Wed Oct 25 16:22:42 2017","Forced-choice identification task with a practice and an experimental phase","yes","NAP_GER_AA_4blocks_noglides.osexp","/Users/aviadalbert/Documents/Academisch/UoC/Dissertation/Experiment/OpenSesame/NAP-FC/NAP_GER_AA_4blocks_noglides","yes","no","sans","no","20","no","black","no","Weiter","yes","768","legacy","1","1","0","/Users/aviadalbert/Documents/Academisch/UoC/Dissertation/Experiment/OpenSesame/NAP-FC/NAP_GER_AA_4blocks_noglides/subject-18.csv","xpyriment","Jazzy James","3.1.9","yes","yes","59a800d99ad5a1025d81bb03","59a801616c613b0251691de0","yes","no","0","j","f","NA","NA","space","d","j","1032","2183","NA","NA","17297","35868","1032","2","legacy","1024","1","44100","-16","experiment","lepal","2","0","1","0","1","English, French","18","","even","4478779","NA","NA","NA","NA","NA","NA","2170426","NA","2170427","2170427","4425336","4442637","4485905","4484402","4486939","4480963","4478775","NA","NA","4355636","4407740","NA","4478567","NA","4478779","NA","4485905","4485905","NA","NA","4484398","NAP perception","2","2473","2","yes","1024"
"100","yes","100","1127.33333333","1127.33333333","white","no","xpyriment","Ich habe die obigen Informationen gelesen und verstanden.","legacy","legacy","0","uniform","1","0","NA","undefined","undefined","1","j","0","0","NA","NA","NA","NA","NA","0","0","0","0","0","0","2","2","2","0","0","NA","NA","0","0","0","0","NA","0","0","2","2","2","2","2","Wed Oct 25 16:22:42 2017","Forced-choice identification task with a practice and an experimental phase","yes","NAP_GER_AA_4blocks_noglides.osexp","/Users/aviadalbert/Documents/Academisch/UoC/Dissertation/Experiment/OpenSesame/NAP-FC/NAP_GER_AA_4blocks_noglides","yes","no","sans","no","20","no","black","no","Weiter","yes","768","legacy","2","2","0","/Users/aviadalbert/Documents/Academisch/UoC/Dissertation/Experiment/OpenSesame/NAP-FC/NAP_GER_AA_4blocks_noglides/subject-18.csv","xpyriment","Jazzy James","3.1.9","yes","yes","59a800d99ad5a1025d81bb03","59a801616c613b0251691de0","yes","no","0","j","f","NA","NA","space","d","j","909","2183","NA","NA","17297","35868","909","2","legacy","1024","1","44100","-16","experiment","emtal","2","0","1","0","1","English, French","18","","even","4478779","NA","NA","NA","NA","NA","NA","2170426","NA","2170427","2170427","4425336","4442637","4488721","4487218","4489631","4480963","4478775","NA","NA","4355636","4407740","NA","4478567","NA","4478779","NA","4488721","4488721","NA","NA","4487214","NAP perception","3","3382","3","yes","1024"
"100","yes","100","1076.5","1076.5","white","no","xpyriment","Ich habe die obigen Informationen gelesen und verstanden.","legacy","legacy","0","uniform","1","0","NA","undefined","undefined","1","f","0","0","NA","NA","NA","NA","NA","0","0","0","0","0","0","3","3","3","0","0","NA","NA","0","0","0","0","NA","0","0","3","3","3","3","3","Wed Oct 25 16:22:42 2017","Forced-choice identification task with a practice and an experimental phase","yes","NAP_GER_AA_4blocks_noglides.osexp","/Users/aviadalbert/Documents/Academisch/UoC/Dissertation/Experiment/OpenSesame/NAP-FC/NAP_GER_AA_4blocks_noglides","yes","no","sans","no","20","no","black","no","Weiter","yes","768","legacy","3","3","0","/Users/aviadalbert/Documents/Academisch/UoC/Dissertation/Experiment/OpenSesame/NAP-FC/NAP_GER_AA_4blocks_noglides/subject-18.csv","xpyriment","Jazzy James","3.1.9","yes","yes","59a800d99ad5a1025d81bb03","59a801616c613b0251691de0","yes","no","0","f","f","NA","NA","space","d","f","924","2183","NA","NA","17297","35868","924","2","legacy","1024","1","44100","-16","experiment","ʃpal","2","0","1","0","1","English, French","18","","even","4478779","NA","NA","NA","NA","NA","NA","2170426","NA","2170427","2170427","4425336","4442637","4491415","4489909","4492340","4480963","4478775","NA","NA","4355636","4407740","NA","4478567","NA","4478779","NA","4491415","4491415","NA","NA","4489906","NAP perception","4","4306","4","yes","1024"
"100","yes","100","1052.4","1052.4","white","no","xpyriment","Ich habe die obigen Informationen gelesen und verstanden.","legacy","legacy","0","uniform","1","0","NA","undefined","undefined","1","j","0","0","NA","NA","NA","NA","NA","0","0","0","0","0","0","4","4","4","0","0","NA","NA","0","0","0","0","NA","0","0","4","4","4","4","4","Wed Oct 25 16:22:42 2017","Forced-choice identification task with a practice and an experimental phase","yes","NAP_GER_AA_4blocks_noglides.osexp","/Users/aviadalbert/Documents/Academisch/UoC/Dissertation/Experiment/OpenSesame/NAP-FC/NAP_GER_AA_4blocks_noglides","yes","no","sans","no","20","no","black","no","Weiter","yes","768","legacy","4","4","0","/Users/aviadalbert/Documents/Academisch/UoC/Dissertation/Experiment/OpenSesame/NAP-FC/NAP_GER_AA_4blocks_noglides/subject-18.csv","xpyriment","Jazzy James","3.1.9","yes","yes","59a800d99ad5a1025d81bb03","59a801616c613b0251691de0","yes","no","0","j","f","NA","NA","space","d","j","956","2183","NA","NA","17297","35868","956","2","legacy","1024","1","44100","-16","experiment","nefal","2","0","1","0","1","English, French","18","","even","4478779","NA","NA","NA","NA","NA","NA","2170426","NA","2170427","2170427","4425336","4442637","4494140","4492635","4495097","4480963","4478775","NA","NA","4355636","4407740","NA","4478567","NA","4478779","NA","4494139","4494140","NA","NA","4492631","NAP perception","5","5262","5","yes","1024"
"100","yes","100","1023.83333333","1023.83333333","white","no","xpyriment","Ich habe die obigen Informationen gelesen und verstanden.","legacy","legacy","0","uniform","1","0","NA","undefined","undefined","1","f","0","0","NA","NA","NA","NA","NA","0","0","0","0","0","0","5","5","5","0","0","NA","NA","0","0","0","0","NA","0","0","5","5","5","5","5","Wed Oct 25 16:22:42 2017","Forced-choice identification task with a practice and an experimental phase","yes","NAP_GER_AA_4blocks_noglides.osexp","/Users/aviadalbert/Documents/Academisch/UoC/Dissertation/Experiment/OpenSesame/NAP-FC/NAP_GER_AA_4blocks_noglides","yes","no","sans","no","20","no","black","no","Weiter","yes","768","legacy","5","5","0","/Users/aviadalbert/Documents/Academisch/UoC/Dissertation/Experiment/OpenSesame/NAP-FC/NAP_GER_AA_4blocks_noglides/subject-18.csv","xpyriment","Jazzy James","3.1.9","yes","yes","59a800d99ad5a1025d81bb03","59a801616c613b0251691de0","yes","no","0","f","f","NA","NA","space","d","f","881","2183","NA","NA","17297","35868","881","2","legacy","1024","1","44100","-16","experiment","sfal","2","0","1","0","1","English, French","18","","even","4478779","NA","NA","NA","NA","NA","NA","2170426","NA","2170427","2170427","4425336","4442637","4496879","4495372","4497761","4480963","4478775","NA","NA","4355636","4407740","NA","4478567","NA","4478779","NA","4496879","4496879","NA","NA","4495368","NAP perception","6","6143","6","yes","1024"
"85.7142857143","yes","85.7142857143","1036.71428571","1036.71428571","white","no","xpyriment","Ich habe die obigen Informationen gelesen und verstanden.","legacy","legacy","0","uniform","0","0","NA","undefined","undefined","0","f","0","0","NA","NA","NA","NA","NA","0","0","0","0","0","0","6","6","6","0","0","NA","NA","0","0","0","0","NA","0","0","6","6","6","6","6","Wed Oct 25 16:22:42 2017","Forced-choice identification task with a practice and an experimental phase","yes","NAP_GER_AA_4blocks_noglides.osexp","/Users/aviadalbert/Documents/Academisch/UoC/Dissertation/Experiment/OpenSesame/NAP-FC/NAP_GER_AA_4blocks_noglides","yes","no","sans","no","20","no","black","no","Weiter","yes","768","legacy","6","6","0","/Users/aviadalbert/Documents/Academisch/UoC/Dissertation/Experiment/OpenSesame/NAP-FC/NAP_GER_AA_4blocks_noglides/subject-18.csv","xpyriment","Jazzy James","3.1.9","yes","yes","59a800d99ad5a1025d81bb03","59a801616c613b0251691de0","yes","no","0","j","f","NA","NA","space","d","j","1114","2183","NA","NA","17297","35868","1114","2","legacy","1024","1","44100","-16","experiment","zmal","2","0","1","0","1","English, French","18","","even","4478779","NA","NA","NA","NA","NA","NA","2170426","NA","2170427","2170427","4425336","4442637","4499536","4498032","4500651","4480963","4478775","NA","NA","4355636","4407740","NA","4478567","NA","4478779","NA","4499536","4499536","NA","NA","4498029","NAP perception","6","7257","7","yes","1024"
"87.5","yes","87.5","1022.25","1022.25","white","no","xpyriment","Ich habe die obigen Informationen gelesen und verstanden.","legacy","legacy","0","uniform","1","0","NA","undefined","undefined","1","j","0","0","NA","NA","NA","NA","NA","0","0","0","0","0","0","7","7","7","0","0","NA","NA","0","0","0","0","NA","0","0","7","7","7","7","7","Wed Oct 25 16:22:42 2017","Forced-choice identification task with a practice and an experimental phase","yes","NAP_GER_AA_4blocks_noglides.osexp","/Users/aviadalbert/Documents/Academisch/UoC/Dissertation/Experiment/OpenSesame/NAP-FC/NAP_GER_AA_4blocks_noglides","yes","no","sans","no","20","no","black","no","Weiter","yes","768","legacy","7","7","0","/Users/aviadalbert/Documents/Academisch/UoC/Dissertation/Experiment/OpenSesame/NAP-FC/NAP_GER_AA_4blocks_noglides/subject-18.csv","xpyriment","Jazzy James","3.1.9","yes","yes","59a800d99ad5a1025d81bb03","59a801616c613b0251691de0","yes","no","0","j","f","NA","NA","space","d","j","921","2183","NA","NA","17297","35868","921","2","legacy","1024","1","44100","-16","experiment","mesal","2","0","1","0","1","English, French","18","","even","4478779","NA","NA","NA","NA","NA","NA","2170426","NA","2170427","2170427","4425336","4442637","4502428","4500922","4503350","4480963","4478775","NA","NA","4355636","4407740","NA","4478567","NA","4478779","NA","4502428","4502428","NA","NA","4500918","NAP perception","7","8178","8","yes","1024"
"88.8888888889","yes","88.8888888889","1005.33333333","1005.33333333","white","no","xpyriment","Ich habe die obigen Informationen gelesen und verstanden.","legacy","legacy","0","uniform","1","0","NA","undefined","undefined","1","j","0","0","NA","NA","NA","NA","NA","0","0","0","0","0","0","8","8","8","0","0","NA","NA","0","0","0","0","NA","0","0","8","8","8","8","8","Wed Oct 25 16:22:42 2017","Forced-choice identification task with a practice and an experimental phase","yes","NAP_GER_AA_4blocks_noglides.osexp","/Users/aviadalbert/Documents/Academisch/UoC/Dissertation/Experiment/OpenSesame/NAP-FC/NAP_GER_AA_4blocks_noglides","yes","no","sans","no","20","no","black","no","Weiter","yes","768","legacy","8","8","0","/Users/aviadalbert/Documents/Academisch/UoC/Dissertation/Experiment/OpenSesame/NAP-FC/NAP_GER_AA_4blocks_noglides/subject-18.csv","xpyriment","Jazzy James","3.1.9","yes","yes","59a800d99ad5a1025d81bb03","59a801616c613b0251691de0","yes","no","0","j","f","NA","NA","space","d","j","870","2183","NA","NA","17297","35868","870","2","legacy","1024","1","44100","-16","experiment","enval","2","0","1","0","1","English, French","18","","even","4478779","NA","NA","NA","NA","NA","NA","2170426","NA","2170427","2170427","4425336","4442637","4505137","4503632","4506008","4480963","4478775","NA","NA","4355636","4407740","NA","4478567","NA","4478779","NA","4505137","4505137","NA","NA","4503628","NAP perception","8","9048","9","yes","1024"
"90","yes","90","995.5","995.5","white","no","xpyriment","Ich habe die obigen Informationen gelesen und verstanden.","legacy","legacy","0","uniform","1","0","NA","undefined","undefined","1","f","0","0","NA","NA","NA","NA","NA","0","0","0","0","0","0","9","9","9","0","0","NA","NA","0","0","0","0","NA","0","0","9","9","9","9","9","Wed Oct 25 16:22:42 2017","Forced-choice identification task with a practice and an experimental phase","yes","NAP_GER_AA_4blocks_noglides.osexp","/Users/aviadalbert/Documents/Academisch/UoC/Dissertation/Experiment/OpenSesame/NAP-FC/NAP_GER_AA_4blocks_noglides","yes","no","sans","no","20","no","black","no","Weiter","yes","768","legacy","9","9","0","/Users/aviadalbert/Documents/Academisch/UoC/Dissertation/Experiment/OpenSesame/NAP-FC/NAP_GER_AA_4blocks_noglides/subject-18.csv","xpyriment","Jazzy James","3.1.9","yes","yes","59a800d99ad5a1025d81bb03","59a801616c613b0251691de0","yes","no","0","f","f","NA","NA","space","d","f","907","2183","NA","NA","17297","35868","907","2","legacy","1024","1","44100","-16","experiment","vlal","2","0","1","0","1","English, French","18","","even","4478779","NA","NA","NA","NA","NA","NA","2170426","NA","2170427","2170427","4425336","4442637","4507785","4506281","4508693","4480963","4478775","NA","NA","4355636","4407740","NA","4478567","NA","4478779","NA","4507785","4507785","NA","NA","4506277","NAP perception","9","9955","10","yes","1024"
"0","yes","0","1194","1194","white","no","xpyriment","Ich habe die obigen Informationen gelesen und verstanden.","legacy","legacy","0","uniform","0","0","0","undefined","undefined","0","f","2","1","NA","0","1","0","0","0","0","0","0","0","0","10","10","10","0","0","0","NA","0","0","2","0","0","0","2","10","10","10","10","10","Wed Oct 25 16:22:42 2017","Forced-choice identification task with a practice and an experimental phase","yes","NAP_GER_AA_4blocks_noglides.osexp","/Users/aviadalbert/Documents/Academisch/UoC/Dissertation/Experiment/OpenSesame/NAP-FC/NAP_GER_AA_4blocks_noglides","yes","no","sans","no","20","no","black","no","Weiter","yes","768","legacy","0","9","0","/Users/aviadalbert/Documents/Academisch/UoC/Dissertation/Experiment/OpenSesame/NAP-FC/NAP_GER_AA_4blocks_noglides/subject-18.csv","xpyriment","Jazzy James","3.1.9","yes","yes","59a800d99ad5a1025d81bb03","59a801616c613b0251691de0","no","no","0","j","f","space","NA","space","d","j","1194","1379","30759","NA","17297","35868","1194","2","legacy","1024","1","44100","-16","experiment","mtal","2","0","1","0","1","English, French","18","","even","4541700","4510406","NA","NA","4543080","4541696","NA","2170426","4541222","2170427","2170427","4425336","4442637","4544804","4543301","4545999","4480963","4478775","4510405","NA","4355636","4407740","4508755","4478567","4541699","4478779","NA","4544804","4544804","NA","NA","4543298","NAP perception","0","1194","1","yes","1024"
"0","yes","0","1006.5","1006.5","white","no","xpyriment","Ich habe die obigen Informationen gelesen und verstanden.","legacy","legacy","0","uniform","0","0","0","undefined","undefined","0","f","2","1","NA","0","1","0","0","0","0","0","0","0","0","11","11","11","0","0","0","NA","0","0","2","0","0","0","2","11","11","11","11","11","Wed Oct 25 16:22:42 2017","Forced-choice identification task with a practice and an experimental phase","yes","NAP_GER_AA_4blocks_noglides.osexp","/Users/aviadalbert/Documents/Academisch/UoC/Dissertation/Experiment/OpenSesame/NAP-FC/NAP_GER_AA_4blocks_noglides","yes","no","sans","no","20","no","black","no","Weiter","yes","768","legacy","1","9","0","/Users/aviadalbert/Documents/Academisch/UoC/Dissertation/Experiment/OpenSesame/NAP-FC/NAP_GER_AA_4blocks_noglides/subject-18.csv","xpyriment","Jazzy James","3.1.9","yes","yes","59a800d99ad5a1025d81bb03","59a801616c613b0251691de0","no","no","0","j","f","space","NA","space","d","j","819","1379","30759","NA","17297","35868","819","2","legacy","1024","1","44100","-16","experiment","lkal","2","0","1","0","1","English, French","18","","even","4541700","4510406","NA","NA","4543080","4541696","NA","2170426","4541222","2170427","2170427","4425336","4442637","4547775","4546271","4548595","4480963","4478775","4510405","NA","4355636","4407740","4508755","4478567","4541699","4478779","NA","4547775","4547775","NA","NA","4546268","NAP perception","0","2013","2","yes","1024"
"33.3333333333","yes","33.3333333333","996","996","white","no","xpyriment","Ich habe die obigen Informationen gelesen und verstanden.","legacy","legacy","0","uniform","1","0","0","undefined","undefined","1","j","2","1","NA","0","1","0","0","0","0","0","0","0","0","12","12","12","0","0","0","NA","0","0","2","0","0","0","2","12","12","12","12","12","Wed Oct 25 16:22:42 2017","Forced-choice identification task with a practice and an experimental phase","yes","NAP_GER_AA_4blocks_noglides.osexp","/Users/aviadalbert/Documents/Academisch/UoC/Dissertation/Experiment/OpenSesame/NAP-FC/NAP_GER_AA_4blocks_noglides","yes","no","sans","no","20","no","black","no","Weiter","yes","768","legacy","2","9","0","/Users/aviadalbert/Documents/Academisch/UoC/Dissertation/Experiment/OpenSesame/NAP-FC/NAP_GER_AA_4blocks_noglides/subject-18.csv","xpyriment","Jazzy James","3.1.9","yes","yes","59a800d99ad5a1025d81bb03","59a801616c613b0251691de0","no","no","0","j","f","space","NA","space","d","j","975","1379","30759","NA","17297","35868","975","2","legacy","1024","1","44100","-16","experiment","ʃepal","2","0","1","0","1","English, French","18","","even","4541700","4510406","NA","NA","4543080","4541696","NA","2170426","4541222","2170427","2170427","4425336","4442637","4550366","4548863","4551342","4480963","4478775","4510405","NA","4355636","4407740","4508755","4478567","4541699","4478779","NA","4550366","4550366","NA","NA","4548859","NAP perception","1","2988","3","yes","1024"
"50","yes","50","921.75","921.75","white","no","xpyriment","Ich habe die obigen Informationen gelesen und verstanden.","legacy","legacy","0","uniform","1","0","0","undefined","undefined","1","j","2","1","NA","0","1","0","0","0","0","0","0","0","0","13","13","13","0","0","0","NA","0","0","2","0","0","0","2","13","13","13","13","13","Wed Oct 25 16:22:42 2017","Forced-choice identification task with a practice and an experimental phase","yes","NAP_GER_AA_4blocks_noglides.osexp","/Users/aviadalbert/Documents/Academisch/UoC/Dissertation/Experiment/OpenSesame/NAP-FC/NAP_GER_AA_4blocks_noglides","yes","no","sans","no","20","no","black","no","Weiter","yes","768","legacy","3","9","0","/Users/aviadalbert/Documents/Academisch/UoC/Dissertation/Experiment/OpenSesame/NAP-FC/NAP_GER_AA_4blocks_noglides/subject-18.csv","xpyriment","Jazzy James","3.1.9","yes","yes","59a800d99ad5a1025d81bb03","59a801616c613b0251691de0","no","no","0","j","f","space","NA","space","d","j","699","1379","30759","NA","17297","35868","699","2","legacy","1024","1","44100","-16","experiment","venal","2","0","1","0","1","English, French","18","","even","4541700","4510406","NA","NA","4543080","4541696","NA","2170426","4541222","2170427","2170427","4425336","4442637","4553123","4551619","4553823","4480963","4478775","4510405","NA","4355636","4407740","4508755","4478567","4541699","4478779","NA","4553123","4553123","NA","NA","4551615","NAP perception","2","3687","4","yes","1024"
"60","yes","60","889","889","white","no","xpyriment","Ich habe die obigen Informationen gelesen und verstanden.","legacy","legacy","0","uniform","1","0","0","undefined","undefined","1","j","2","1","NA","0","1","0","0","0","0","0","0","0","0","14","14","14","0","0","0","NA","0","0","2","0","0","0","2","14","14","14","14","14","Wed Oct 25 16:22:42 2017","Forced-choice identification task with a practice and an experimental phase","yes","NAP_GER_AA_4blocks_noglides.osexp","/Users/aviadalbert/Documents/Academisch/UoC/Dissertation/Experiment/OpenSesame/NAP-FC/NAP_GER_AA_4blocks_noglides","yes","no","sans","no","20","no","black","no","Weiter","yes","768","legacy","4","9","0","/Users/aviadalbert/Documents/Academisch/UoC/Dissertation/Experiment/OpenSesame/NAP-FC/NAP_GER_AA_4blocks_noglides/subject-18.csv","xpyriment","Jazzy James","3.1.9","yes","yes","59a800d99ad5a1025d81bb03","59a801616c613b0251691de0","no","no","0","j","f","space","NA","space","d","j","758","1379","30759","NA","17297","35868","758","2","legacy","1024","1","44100","-16","experiment","ezval","2","0","1","0","1","English, French","18","","even","4541700","4510406","NA","NA","4543080","4541696","NA","2170426","4541222","2170427","2170427","4425336","4442637","4555597","4554092","4556356","4480963","4478775","4510405","NA","4355636","4407740","4508755","4478567","4541699","4478779","NA","4555596","4555597","NA","NA","4554089","NAP perception","3","4445","5","yes","1024"
"66.6666666667","yes","66.6666666667","900.333333333","900.333333333","white","no","xpyriment","Ich habe die obigen Informationen gelesen und verstanden.","legacy","legacy","0","uniform","1","0","0","undefined","undefined","1","j","2","1","NA","0","1","0","0","0","0","0","0","0","0","15","15","15","0","0","0","NA","0","0","2","0","0","0","2","15","15","15","15","15","Wed Oct 25 16:22:42 2017","Forced-choice identification task with a practice and an experimental phase","yes","NAP_GER_AA_4blocks_noglides.osexp","/Users/aviadalbert/Documents/Academisch/UoC/Dissertation/Experiment/OpenSesame/NAP-FC/NAP_GER_AA_4blocks_noglides","yes","no","sans","no","20","no","black","no","Weiter","yes","768","legacy","5","9","0","/Users/aviadalbert/Documents/Academisch/UoC/Dissertation/Experiment/OpenSesame/NAP-FC/NAP_GER_AA_4blocks_noglides/subject-18.csv","xpyriment","Jazzy James","3.1.9","yes","yes","59a800d99ad5a1025d81bb03","59a801616c613b0251691de0","no","no","0","j","f","space","NA","space","d","j","957","1379","30759","NA","17297","35868","957","2","legacy","1024","1","44100","-16","experiment","nefal","2","0","1","0","1","English, French","18","","even","4541700","4510406","NA","NA","4543080","4541696","NA","2170426","4541222","2170427","2170427","4425336","4442637","4558139","4556636","4559097","4480963","4478775","4510405","NA","4355636","4407740","4508755","4478567","4541699","4478779","NA","4558139","4558139","NA","NA","4556632","NAP perception","4","5402","6","yes","1024"
"57.1428571429","yes","57.1428571429","942.714285714","942.714285714","white","no","xpyriment","Ich habe die obigen Informationen gelesen und verstanden.","legacy","legacy","0","uniform","0","0","0","undefined","undefined","0","f","2","1","NA","0","1","0","0","0","0","0","0","0","0","16","16","16","0","0","0","NA","0","0","2","0","0","0","2","16","16","16","16","16","Wed Oct 25 16:22:42 2017","Forced-choice identification task with a practice and an experimental phase","yes","NAP_GER_AA_4blocks_noglides.osexp","/Users/aviadalbert/Documents/Academisch/UoC/Dissertation/Experiment/OpenSesame/NAP-FC/NAP_GER_AA_4blocks_noglides","yes","no","sans","no","20","no","black","no","Weiter","yes","768","legacy","6","9","0","/Users/aviadalbert/Documents/Academisch/UoC/Dissertation/Experiment/OpenSesame/NAP-FC/NAP_GER_AA_4blocks_noglides/subject-18.csv","xpyriment","Jazzy James","3.1.9","yes","yes","59a800d99ad5a1025d81bb03","59a801616c613b0251691de0","no","no","0","j","f","space","NA","space","d","j","1197","1379","30759","NA","17297","35868","1197","2","legacy","1024","1","44100","-16","experiment","mzal","2","0","1","0","1","English, French","18","","even","4541700","4510406","NA","NA","4543080","4541696","NA","2170426","4541222","2170427","2170427","4425336","4442637","4560870","4559366","4562068","4480963","4478775","4510405","NA","4355636","4407740","4508755","4478567","4541699","4478779","NA","4560870","4560870","NA","NA","4559362","NAP perception","4","6599","7","yes","1024"
"62.5","yes","62.5","987.75","987.75","white","no","xpyriment","Ich habe die obigen Informationen gelesen und verstanden.","legacy","legacy","0","uniform","1","0","0","undefined","undefined","1","j","2","1","NA","0","1","0","0","0","0","0","0","0","0","17","17","17","0","0","0","NA","0","0","2","0","0","0","2","17","17","17","17","17","Wed Oct 25 16:22:42 2017","Forced-choice identification task with a practice and an experimental phase","yes","NAP_GER_AA_4blocks_noglides.osexp","/Users/aviadalbert/Documents/Academisch/UoC/Dissertation/Experiment/OpenSesame/NAP-FC/NAP_GER_AA_4blocks_noglides","yes","no","sans","no","20","no","black","no","Weiter","yes","768","legacy","7","9","0","/Users/aviadalbert/Documents/Academisch/UoC/Dissertation/Experiment/OpenSesame/NAP-FC/NAP_GER_AA_4blocks_noglides/subject-18.csv","xpyriment","Jazzy James","3.1.9","yes","yes","59a800d99ad5a1025d81bb03","59a801616c613b0251691de0","no","no","0","j","f","space","NA","space","d","j","1303","1379","30759","NA","17297","35868","1303","2","legacy","1024","1","44100","-16","experiment","elmal","2","0","1","0","1","English, French","18","","even","4541700","4510406","NA","NA","4543080","4541696","NA","2170426","4541222","2170427","2170427","4425336","4442637","4563852","4562349","4565156","4480963","4478775","4510405","NA","4355636","4407740","4508755","4478567","4541699","4478779","NA","4563852","4563852","NA","NA","4562345","NAP perception","5","7902","8","yes","1024"
"66.6666666667","yes","66.6666666667","974","974","white","no","xpyriment","Ich habe die obigen Informationen gelesen und verstanden.","legacy","legacy","0","uniform","1","0","0","undefined","undefined","1","j","2","1","NA","0","1","0","0","0","0","0","0","0","0","18","18","18","0","0","0","NA","0","0","2","0","0","0","2","18","18","18","18","18","Wed Oct 25 16:22:42 2017","Forced-choice identification task with a practice and an experimental phase","yes","NAP_GER_AA_4blocks_noglides.osexp","/Users/aviadalbert/Documents/Academisch/UoC/Dissertation/Experiment/OpenSesame/NAP-FC/NAP_GER_AA_4blocks_noglides","yes","no","sans","no","20","no","black","no","Weiter","yes","768","legacy","8","9","0","/Users/aviadalbert/Documents/Academisch/UoC/Dissertation/Experiment/OpenSesame/NAP-FC/NAP_GER_AA_4blocks_noglides/subject-18.csv","xpyriment","Jazzy James","3.1.9","yes","yes","59a800d99ad5a1025d81bb03","59a801616c613b0251691de0","no","no","0","j","f","space","NA","space","d","j","864","1379","30759","NA","17297","35868","864","2","legacy","1024","1","44100","-16","experiment","evzal","2","0","1","0","1","English, French","18","","even","4541700","4510406","NA","NA","4543080","4541696","NA","2170426","4541222","2170427","2170427","4425336","4442637","4566933","4565429","4567798","4480963","4478775","4510405","NA","4355636","4407740","4508755","4478567","4541699","4478779","NA","4566932","4566933","NA","NA","4565425","NAP perception","6","8766","9","yes","1024"
"60","yes","60","977.2","977.2","white","no","xpyriment","Ich habe die obigen Informationen gelesen und verstanden.","legacy","legacy","0","uniform","0","0","0","undefined","undefined","0","f","2","1","NA","0","1","0","0","0","0","0","0","0","0","19","19","19","0","0","0","NA","0","0","2","0","0","0","2","19","19","19","19","19","Wed Oct 25 16:22:42 2017","Forced-choice identification task with a practice and an experimental phase","yes","NAP_GER_AA_4blocks_noglides.osexp","/Users/aviadalbert/Documents/Academisch/UoC/Dissertation/Experiment/OpenSesame/NAP-FC/NAP_GER_AA_4blocks_noglides","yes","no","sans","no","20","no","black","no","Weiter","yes","768","legacy","9","9","0","/Users/aviadalbert/Documents/Academisch/UoC/Dissertation/Experiment/OpenSesame/NAP-FC/NAP_GER_AA_4blocks_noglides/subject-18.csv","xpyriment","Jazzy James","3.1.9","yes","yes","59a800d99ad5a1025d81bb03","59a801616c613b0251691de0","no","no","0","j","f","space","NA","space","d","j","1006","1379","30759","NA","17297","35868","1006","2","legacy","1024","1","44100","-16","experiment","lpal","2","0","1","0","1","English, French","18","","even","4541700","4510406","NA","NA","4543080","4541696","NA","2170426","4541222","2170427","2170427","4425336","4442637","4569577","4568074","4570585","4480963","4478775","4510405","NA","4355636","4407740","4508755","4478567","4541699","4478779","NA","4569577","4569577","NA","NA","4568070","NAP perception","6","9772","10","yes","1024"
"63.6363636364","yes","63.6363636364","975.818181818","975.818181818","white","no","xpyriment","Ich habe die obigen Informationen gelesen und verstanden.","legacy","legacy","0","uniform","1","0","0","undefined","undefined","1","f","2","1","NA","0","1","0","0","0","0","0","0","0","0","20","20","20","0","0","0","NA","0","0","2","0","0","0","2","20","20","20","20","20","Wed Oct 25 16:22:42 2017","Forced-choice identification task with a practice and an experimental phase","yes","NAP_GER_AA_4blocks_noglides.osexp","/Users/aviadalbert/Documents/Academisch/UoC/Dissertation/Experiment/OpenSesame/NAP-FC/NAP_GER_AA_4blocks_noglides","yes","no","sans","no","20","no","black","no","Weiter","yes","768","legacy","10","9","0","/Users/aviadalbert/Documents/Academisch/UoC/Dissertation/Experiment/OpenSesame/NAP-FC/NAP_GER_AA_4blocks_noglides/subject-18.csv","xpyriment","Jazzy James","3.1.9","yes","yes","59a800d99ad5a1025d81bb03","59a801616c613b0251691de0","no","no","0","f","f","space","NA","space","d","f","962","1379","30759","NA","17297","35868","962","2","legacy","1024","1","44100","-16","experiment","fsal","2","0","1","0","1","English, French","18","","even","4541700","4510406","NA","NA","4543080","4541696","NA","2170426","4541222","2170427","2170427","4425336","4442637","4572365","4570861","4573328","4480963","4478775","4510405","NA","4355636","4407740","4508755","4478567","4541699","4478779","NA","4572364","4572364","NA","NA","4570858","NAP perception","7","10734","11","yes","1024"
"66.6666666667","yes","66.6666666667","997.166666667","997.166666667","white","no","xpyriment","Ich habe die obigen Informationen gelesen und verstanden.","legacy","legacy","0","uniform","1","0","0","undefined","undefined","1","f","2","1","NA","0","1","0","0","0","0","0","0","0","0","21","21","21","0","0","0","NA","0","0","2","0","0","0","2","21","21","21","21","21","Wed Oct 25 16:22:42 2017","Forced-choice identification task with a practice and an experimental phase","yes","NAP_GER_AA_4blocks_noglides.osexp","/Users/aviadalbert/Documents/Academisch/UoC/Dissertation/Experiment/OpenSesame/NAP-FC/NAP_GER_AA_4blocks_noglides","yes","no","sans","no","20","no","black","no","Weiter","yes","768","legacy","11","9","0","/Users/aviadalbert/Documents/Academisch/UoC/Dissertation/Experiment/OpenSesame/NAP-FC/NAP_GER_AA_4blocks_noglides/subject-18.csv","xpyriment","Jazzy James","3.1.9","yes","yes","59a800d99ad5a1025d81bb03","59a801616c613b0251691de0","no","no","0","f","f","space","NA","space","d","f","1232","1379","30759","NA","17297","35868","1232","2","legacy","1024","1","44100","-16","experiment","mlal","2","0","1","0","1","English, French","18","","even","4541700","4510406","NA","NA","4543080","4541696","NA","2170426","4541222","2170427","2170427","4425336","4442637","4575113","4573607","4576346","4480963","4478775","4510405","NA","4355636","4407740","4508755","4478567","4541699","4478779","NA","4575113","4575113","NA","NA","4573603","NAP perception","8","11966","12","yes","1024"
"69.2307692308","yes","69.2307692308","987.923076923","987.923076923","white","no","xpyriment","Ich habe die obigen Informationen gelesen und verstanden.","legacy","legacy","0","uniform","1","0","0","undefined","undefined","1","j","2","1","NA","0","1","0","0","0","0","0","0","0","0","22","22","22","0","0","0","NA","0","0","2","0","0","0","2","22","22","22","22","22","Wed Oct 25 16:22:42 2017","Forced-choice identification task with a practice and an experimental phase","yes","NAP_GER_AA_4blocks_noglides.osexp","/Users/aviadalbert/Documents/Academisch/UoC/Dissertation/Experiment/OpenSesame/NAP-FC/NAP_GER_AA_4blocks_noglides","yes","no","sans","no","20","no","black","no","Weiter","yes","768","legacy","12","9","0","/Users/aviadalbert/Documents/Academisch/UoC/Dissertation/Experiment/OpenSesame/NAP-FC/NAP_GER_AA_4blocks_noglides/subject-18.csv","xpyriment","Jazzy James","3.1.9","yes","yes","59a800d99ad5a1025d81bb03","59a801616c613b0251691de0","no","no","0","j","f","space","NA","space","d","j","877","1379","30759","NA","17297","35868","877","2","legacy","1024","1","44100","-16","experiment","leval","2","0","1","0","1","English, French","18","","even","4541700","4510406","NA","NA","4543080","4541696","NA","2170426","4541222","2170427","2170427","4425336","4442637","4578113","4576608","4578991","4480963","4478775","4510405","NA","4355636","4407740","4508755","4478567","4541699","4478779","NA","4578112","4578112","NA","NA","4576604","NAP perception","9","12843","13","yes","1024"
"71.4285714286","yes","71.4285714286","1013.14285714","1013.14285714","white","no","xpyriment","Ich habe die obigen Informationen gelesen und verstanden.","legacy","legacy","0","uniform","1","0","0","undefined","undefined","1","f","2","1","NA","0","1","0","0","0","0","0","0","0","0","23","23","23","0","0","0","NA","0","0","2","0","0","0","2","23","23","23","23","23","Wed Oct 25 16:22:42 2017","Forced-choice identification task with a practice and an experimental phase","yes","NAP_GER_AA_4blocks_noglides.osexp","/Users/aviadalbert/Documents/Academisch/UoC/Dissertation/Experiment/OpenSesame/NAP-FC/NAP_GER_AA_4blocks_noglides","yes","no","sans","no","20","no","black","no","Weiter","yes","768","legacy","13","9","0","/Users/aviadalbert/Documents/Academisch/UoC/Dissertation/Experiment/OpenSesame/NAP-FC/NAP_GER_AA_4blocks_noglides/subject-18.csv","xpyriment","Jazzy James","3.1.9","yes","yes","59a800d99ad5a1025d81bb03","59a801616c613b0251691de0","no","no","0","f","f","space","NA","space","d","f","1341","1379","30759","NA","17297","35868","1341","2","legacy","1024","1","44100","-16","experiment","ftal","2","0","1","0","1","English, French","18","","even","4541700","4510406","NA","NA","4543080","4541696","NA","2170426","4541222","2170427","2170427","4425336","4442637","4580756","4579252","4582098","4480963","4478775","4510405","NA","4355636","4407740","4508755","4478567","4541699","4478779","NA","4580756","4580756","NA","NA","4579248","NAP perception","10","14184","14","yes","1024"
"73.3333333333","yes","73.3333333333","1014.8","1014.8","white","no","xpyriment","Ich habe die obigen Informationen gelesen und verstanden.","legacy","legacy","0","uniform","1","0","0","undefined","undefined","1","j","2","1","NA","0","1","0","0","0","0","0","0","0","0","24","24","24","0","0","0","NA","0","0","2","0","0","0","2","24","24","24","24","24","Wed Oct 25 16:22:42 2017","Forced-choice identification task with a practice and an experimental phase","yes","NAP_GER_AA_4blocks_noglides.osexp","/Users/aviadalbert/Documents/Academisch/UoC/Dissertation/Experiment/OpenSesame/NAP-FC/NAP_GER_AA_4blocks_noglides","yes","no","sans","no","20","no","black","no","Weiter","yes","768","legacy","14","9","0","/Users/aviadalbert/Documents/Academisch/UoC/Dissertation/Experiment/OpenSesame/NAP-FC/NAP_GER_AA_4blocks_noglides/subject-18.csv","xpyriment","Jazzy James","3.1.9","yes","yes","59a800d99ad5a1025d81bb03","59a801616c613b0251691de0","no","no","0","j","f","space","NA","space","d","j","1038","1379","30759","NA","17297","35868","1038","2","legacy","1024","1","44100","-16","experiment","elkal","2","0","1","0","1","English, French","18","","even","4541700","4510406","NA","NA","4543080","4541696","NA","2170426","4541222","2170427","2170427","4425336","4442637","4583874","4582369","4584913","4480963","4478775","4510405","NA","4355636","4407740","4508755","4478567","4541699","4478779","NA","4583874","4583874","NA","NA","4582365","NAP perception","11","15222","15","yes","1024"
"75","yes","75","1026.875","1026.875","white","no","xpyriment","Ich habe die obigen Informationen gelesen und verstanden.","legacy","legacy","0","uniform","1","0","0","undefined","undefined","1","f","2","1","NA","0","1","0","0","0","0","0","0","0","0","25","25","25","0","0","0","NA","0","0","2","0","0","0","2","25","25","25","25","25","Wed Oct 25 16:22:42 2017","Forced-choice identification task with a practice and an experimental phase","yes","NAP_GER_AA_4blocks_noglides.osexp","/Users/aviadalbert/Documents/Academisch/UoC/Dissertation/Experiment/OpenSesame/NAP-FC/NAP_GER_AA_4blocks_noglides","yes","no","sans","no","20","no","black","no","Weiter","yes","768","legacy","15","9","0","/Users/aviadalbert/Documents/Academisch/UoC/Dissertation/Experiment/OpenSesame/NAP-FC/NAP_GER_AA_4blocks_noglides/subject-18.csv","xpyriment","Jazzy James","3.1.9","yes","yes","59a800d99ad5a1025d81bb03","59a801616c613b0251691de0","no","no","0","f","f","space","NA","space","d","f","1208","1379","30759","NA","17297","35868","1208","2","legacy","1024","1","44100","-16","experiment","nfal","2","0","1","0","1","English, French","18","","even","4541700","4510406","NA","NA","4543080","4541696","NA","2170426","4541222","2170427","2170427","4425336","4442637","4586713","4585208","4587923","4480963","4478775","4510405","NA","4355636","4407740","4508755","4478567","4541699","4478779","NA","4586712","4586712","NA","NA","4585204","NAP perception","12","16430","16","yes","1024"
"76.4705882353","yes","76.4705882353","1030.05882353","1030.05882353","white","no","xpyriment","Ich habe die obigen Informationen gelesen und verstanden.","legacy","legacy","0","uniform","1","0","0","undefined","undefined","1","f","2","1","NA","0","1","0","0","0","0","0","0","0","0","26","26","26","0","0","0","NA","0","0","2","0","0","0","2","26","26","26","26","26","Wed Oct 25 16:22:42 2017","Forced-choice identification task with a practice and an experimental phase","yes","NAP_GER_AA_4blocks_noglides.osexp","/Users/aviadalbert/Documents/Academisch/UoC/Dissertation/Experiment/OpenSesame/NAP-FC/NAP_GER_AA_4blocks_noglides","yes","no","sans","no","20","no","black","no","Weiter","yes","768","legacy","16","9","0","/Users/aviadalbert/Documents/Academisch/UoC/Dissertation/Experiment/OpenSesame/NAP-FC/NAP_GER_AA_4blocks_noglides/subject-18.csv","xpyriment","Jazzy James","3.1.9","yes","yes","59a800d99ad5a1025d81bb03","59a801616c613b0251691de0","no","no","0","f","f","space","NA","space","d","f","1081","1379","30759","NA","17297","35868","1081","2","legacy","1024","1","44100","-16","experiment","nval","2","0","1","0","1","English, French","18","","even","4541700","4510406","NA","NA","4543080","4541696","NA","2170426","4541222","2170427","2170427","4425336","4442637","4589722","4588218","4590804","4480963","4478775","4510405","NA","4355636","4407740","4508755","4478567","4541699","4478779","NA","4589722","4589722","NA","NA","4588214","NAP perception","13","17511","17","yes","1024"
"77.7777777778","yes","77.7777777778","1021.5","1021.5","white","no","xpyriment","Ich habe die obigen Informationen gelesen und verstanden.","legacy","legacy","0","uniform","1","0","0","undefined","undefined","1","j","2","1","NA","0","1","0","0","0","0","0","0","0","0","27","27","27","0","0","0","NA","0","0","2","0","0","0","2","27","27","27","27","27","Wed Oct 25 16:22:42 2017","Forced-choice identification task with a practice and an experimental phase","yes","NAP_GER_AA_4blocks_noglides.osexp","/Users/aviadalbert/Documents/Academisch/UoC/Dissertation/Experiment/OpenSesame/NAP-FC/NAP_GER_AA_4blocks_noglides","yes","no","sans","no","20","no","black","no","Weiter","yes","768","legacy","17","9","0","/Users/aviadalbert/Documents/Academisch/UoC/Dissertation/Experiment/OpenSesame/NAP-FC/NAP_GER_AA_4blocks_noglides/subject-18.csv","xpyriment","Jazzy James","3.1.9","yes","yes","59a800d99ad5a1025d81bb03","59a801616c613b0251691de0","no","no","0","j","f","space","NA","space","d","j","876","1379","30759","NA","17297","35868","876","2","legacy","1024","1","44100","-16","experiment","fetal","2","0","1","0","1","English, French","18","","even","4541700","4510406","NA","NA","4543080","4541696","NA","2170426","4541222","2170427","2170427","4425336","4442637","4592592","4591087","4593470","4480963","4478775","4510405","NA","4355636","4407740","4508755","4478567","4541699","4478779","NA","4592592","4592592","NA","NA","4591083","NAP perception","14","18387","18","yes","1024"
"78.9473684211","yes","78.9473684211","1023.21052632","1023.21052632","white","no","xpyriment","Ich habe die obigen Informationen gelesen und verstanden.","legacy","legacy","0","uniform","1","0","0","undefined","undefined","1","f","2","1","NA","0","1","0","0","0","0","0","0","0","0","28","28","28","0","0","0","NA","0","0","2","0","0","0","2","28","28","28","28","28","Wed Oct 25 16:22:42 2017","Forced-choice identification task with a practice and an experimental phase","yes","NAP_GER_AA_4blocks_noglides.osexp","/Users/aviadalbert/Documents/Academisch/UoC/Dissertation/Experiment/OpenSesame/NAP-FC/NAP_GER_AA_4blocks_noglides","yes","no","sans","no","20","no","black","no","Weiter","yes","768","legacy","18","9","0","/Users/aviadalbert/Documents/Academisch/UoC/Dissertation/Experiment/OpenSesame/NAP-FC/NAP_GER_AA_4blocks_noglides/subject-18.csv","xpyriment","Jazzy James","3.1.9","yes","yes","59a800d99ad5a1025d81bb03","59a801616c613b0251691de0","no","no","0","f","f","space","NA","space","d","f","1054","1379","30759","NA","17297","35868","1054","2","legacy","1024","1","44100","-16","experiment","fnal","2","0","1","0","1","English, French","18","","even","4541700","4510406","NA","NA","4543080","4541696","NA","2170426","4541222","2170427","2170427","4425336","4442637","4595247","4593741","4596303","4480963","4478775","4510405","NA","4355636","4407740","4508755","4478567","4541699","4478779","NA","4595247","4595247","NA","NA","4593737","NAP perception","15","19441","19","yes","1024"
"80","yes","80","1016.1","1016.1","white","no","xpyriment","Ich habe die obigen Informationen gelesen und verstanden.","legacy","legacy","0","uniform","1","0","0","undefined","undefined","1","j","2","1","NA","0","1","0","0","0","0","0","0","0","0","29","29","29","0","0","0","NA","0","0","2","0","0","0","2","29","29","29","29","29","Wed Oct 25 16:22:42 2017","Forced-choice identification task with a practice and an experimental phase","yes","NAP_GER_AA_4blocks_noglides.osexp","/Users/aviadalbert/Documents/Academisch/UoC/Dissertation/Experiment/OpenSesame/NAP-FC/NAP_GER_AA_4blocks_noglides","yes","no","sans","no","20","no","black","no","Weiter","yes","768","legacy","19","9","0","/Users/aviadalbert/Documents/Academisch/UoC/Dissertation/Experiment/OpenSesame/NAP-FC/NAP_GER_AA_4blocks_noglides/subject-18.csv","xpyriment","Jazzy James","3.1.9","yes","yes","59a800d99ad5a1025d81bb03","59a801616c613b0251691de0","no","no","0","j","f","space","NA","space","d","j","881","1379","30759","NA","17297","35868","881","2","legacy","1024","1","44100","-16","experiment","semal","2","0","1","0","1","English, French","18","","even","4541700","4510406","NA","NA","4543080","4541696","NA","2170426","4541222","2170427","2170427","4425336","4442637","4598080","4596577","4598963","4480963","4478775","4510405","NA","4355636","4407740","4508755","4478567","4541699","4478779","NA","4598080","4598080","NA","NA","4596573","NAP perception","16","20322","20","yes","1024"
"80.9523809524","yes","80.9523809524","1040.80952381","1040.80952381","white","no","xpyriment","Ich habe die obigen Informationen gelesen und verstanden.","legacy","legacy","0","uniform","1","0","0","undefined","undefined","1","j","2","1","NA","0","1","0","0","0","0","0","0","0","0","30","30","30","0","0","0","NA","0","0","2","0","0","0","2","30","30","30","30","30","Wed Oct 25 16:22:42 2017","Forced-choice identification task with a practice and an experimental phase","yes","NAP_GER_AA_4blocks_noglides.osexp","/Users/aviadalbert/Documents/Academisch/UoC/Dissertation/Experiment/OpenSesame/NAP-FC/NAP_GER_AA_4blocks_noglides","yes","no","sans","no","20","no","black","no","Weiter","yes","768","legacy","20","9","0","/Users/aviadalbert/Documents/Academisch/UoC/Dissertation/Experiment/OpenSesame/NAP-FC/NAP_GER_AA_4blocks_noglides/subject-18.csv","xpyriment","Jazzy James","3.1.9","yes","yes","59a800d99ad5a1025d81bb03","59a801616c613b0251691de0","no","no","0","j","f","space","NA","space","d","j","1535","1379","30759","NA","17297","35868","1535","2","legacy","1024","1","44100","-16","experiment","nepal","2","0","1","0","1","English, French","18","","even","4541700","4510406","NA","NA","4543080","4541696","NA","2170426","4541222","2170427","2170427","4425336","4442637","4600751","4599247","4602287","4480963","4478775","4510405","NA","4355636","4407740","4508755","4478567","4541699","4478779","NA","4600750","4600751","NA","NA","4599243","NAP perception","17","21857","21","yes","1024"
"81.8181818182","yes","81.8181818182","1044.36363636","1044.36363636","white","no","xpyriment","Ich habe die obigen Informationen gelesen und verstanden.","legacy","legacy","0","uniform","1","0","0","undefined","undefined","1","j","2","1","NA","0","1","0","0","0","0","0","0","0","0","31","31","31","0","0","0","NA","0","0","2","0","0","0","2","31","31","31","31","31","Wed Oct 25 16:22:42 2017","Forced-choice identification task with a practice and an experimental phase","yes","NAP_GER_AA_4blocks_noglides.osexp","/Users/aviadalbert/Documents/Academisch/UoC/Dissertation/Experiment/OpenSesame/NAP-FC/NAP_GER_AA_4blocks_noglides","yes","no","sans","no","20","no","black","no","Weiter","yes","768","legacy","21","9","0","/Users/aviadalbert/Documents/Academisch/UoC/Dissertation/Experiment/OpenSesame/NAP-FC/NAP_GER_AA_4blocks_noglides/subject-18.csv","xpyriment","Jazzy James","3.1.9","yes","yes","59a800d99ad5a1025d81bb03","59a801616c613b0251691de0","no","no","0","j","f","space","NA","space","d","j","1119","1379","30759","NA","17297","35868","1119","2","legacy","1024","1","44100","-16","experiment","sepal","2","0","1","0","1","English, French","18","","even","4541700","4510406","NA","NA","4543080","4541696","NA","2170426","4541222","2170427","2170427","4425336","4442637","4604073","4602570","4605193","4480963","4478775","4510405","NA","4355636","4407740","4508755","4478567","4541699","4478779","NA","4604073","4604073","NA","NA","4602566","NAP perception","18","22976","22","yes","1024"
"82.6086956522","yes","82.6086956522","1044.56521739","1044.56521739","white","no","xpyriment","Ich habe die obigen Informationen gelesen und verstanden.","legacy","legacy","0","uniform","1","0","0","undefined","undefined","1","f","2","1","NA","0","1","0","0","0","0","0","0","0","0","32","32","32","0","0","0","NA","0","0","2","0","0","0","2","32","32","32","32","32","Wed Oct 25 16:22:42 2017","Forced-choice identification task with a practice and an experimental phase","yes","NAP_GER_AA_4blocks_noglides.osexp","/Users/aviadalbert/Documents/Academisch/UoC/Dissertation/Experiment/OpenSesame/NAP-FC/NAP_GER_AA_4blocks_noglides","yes","no","sans","no","20","no","black","no","Weiter","yes","768","legacy","22","9","0","/Users/aviadalbert/Documents/Academisch/UoC/Dissertation/Experiment/OpenSesame/NAP-FC/NAP_GER_AA_4blocks_noglides/subject-18.csv","xpyriment","Jazzy James","3.1.9","yes","yes","59a800d99ad5a1025d81bb03","59a801616c613b0251691de0","no","no","0","f","f","space","NA","space","d","f","1049","1379","30759","NA","17297","35868","1049","2","legacy","1024","1","44100","-16","experiment","fnal","2","0","1","0","1","English, French","18","","even","4541700","4510406","NA","NA","4543080","4541696","NA","2170426","4541222","2170427","2170427","4425336","4442637","4606967","4605464","4608018","4480963","4478775","4510405","NA","4355636","4407740","4508755","4478567","4541699","4478779","NA","4606967","4606967","NA","NA","4605460","NAP perception","19","24025","23","yes","1024"
"79.1666666667","yes","79.1666666667","1089.33333333","1089.33333333","white","no","xpyriment","Ich habe die obigen Informationen gelesen und verstanden.","legacy","legacy","0","uniform","0","0","0","undefined","undefined","0","f","2","1","NA","0","1","0","0","0","0","0","0","0","0","33","33","33","0","0","0","NA","0","0","2","0","0","0","2","33","33","33","33","33","Wed Oct 25 16:22:42 2017","Forced-choice identification task with a practice and an experimental phase","yes","NAP_GER_AA_4blocks_noglides.osexp","/Users/aviadalbert/Documents/Academisch/UoC/Dissertation/Experiment/OpenSesame/NAP-FC/NAP_GER_AA_4blocks_noglides","yes","no","sans","no","20","no","black","no","Weiter","yes","768","legacy","23","9","0","/Users/aviadalbert/Documents/Academisch/UoC/Dissertation/Experiment/OpenSesame/NAP-FC/NAP_GER_AA_4blocks_noglides/subject-18.csv","xpyriment","Jazzy James","3.1.9","yes","yes","59a800d99ad5a1025d81bb03","59a801616c613b0251691de0","no","no","0","j","f","space","NA","space","d","j","2119","1379","30759","NA","17297","35868","2119","2","legacy","1024","1","44100","-16","experiment","vnal","2","0","1","0","1","English, French","18","","even","4541700","4510406","NA","NA","4543080","4541696","NA","2170426","4541222","2170427","2170427","4425336","4442637","4609793","4608290","4611914","4480963","4478775","4510405","NA","4355636","4407740","4508755","4478567","4541699","4478779","NA","4609793","4609793","NA","NA","4608286","NAP perception","19","26144","24","yes","1024"
"80","yes","80","1085.76","1085.76","white","no","xpyriment","Ich habe die obigen Informationen gelesen und verstanden.","legacy","legacy","0","uniform","1","0","0","undefined","undefined","1","j","2","1","NA","0","1","0","0","0","0","0","0","0","0","34","34","34","0","0","0","NA","0","0","2","0","0","0","2","34","34","34","34","34","Wed Oct 25 16:22:42 2017","Forced-choice identification task with a practice and an experimental phase","yes","NAP_GER_AA_4blocks_noglides.osexp","/Users/aviadalbert/Documents/Academisch/UoC/Dissertation/Experiment/OpenSesame/NAP-FC/NAP_GER_AA_4blocks_noglides","yes","no","sans","no","20","no","black","no","Weiter","yes","768","legacy","24","9","0","/Users/aviadalbert/Documents/Academisch/UoC/Dissertation/Experiment/OpenSesame/NAP-FC/NAP_GER_AA_4blocks_noglides/subject-18.csv","xpyriment","Jazzy James","3.1.9","yes","yes","59a800d99ad5a1025d81bb03","59a801616c613b0251691de0","no","no","0","j","f","space","NA","space","d","j","1000","1379","30759","NA","17297","35868","1000","2","legacy","1024","1","44100","-16","experiment","elfal","2","0","1","0","1","English, French","18","","even","4541700","4510406","NA","NA","4543080","4541696","NA","2170426","4541222","2170427","2170427","4425336","4442637","4613702","4612198","4614704","4480963","4478775","4510405","NA","4355636","4407740","4508755","4478567","4541699","4478779","NA","4613702","4613702","NA","NA","4612194","NAP perception","20","27144","25","yes","1024"
"80.7692307692","yes","80.7692307692","1072.42307692","1072.42307692","white","no","xpyriment","Ich habe die obigen Informationen gelesen und verstanden.","legacy","legacy","0","uniform","1","0","0","undefined","undefined","1","j","2","1","NA","0","1","0","0","0","0","0","0","0","0","35","35","35","0","0","0","NA","0","0","2","0","0","0","2","35","35","35","35","35","Wed Oct 25 16:22:42 2017","Forced-choice identification task with a practice and an experimental phase","yes","NAP_GER_AA_4blocks_noglides.osexp","/Users/aviadalbert/Documents/Academisch/UoC/Dissertation/Experiment/OpenSesame/NAP-FC/NAP_GER_AA_4blocks_noglides","yes","no","sans","no","20","no","black","no","Weiter","yes","768","legacy","25","9","0","/Users/aviadalbert/Documents/Academisch/UoC/Dissertation/Experiment/OpenSesame/NAP-FC/NAP_GER_AA_4blocks_noglides/subject-18.csv","xpyriment","Jazzy James","3.1.9","yes","yes","59a800d99ad5a1025d81bb03","59a801616c613b0251691de0","no","no","0","j","f","space","NA","space","d","j","739","1379","30759","NA","17297","35868","739","2","legacy","1024","1","44100","-16","experiment","emtal","2","0","1","0","1","English, French","18","","even","4541700","4510406","NA","NA","4543080","4541696","NA","2170426","4541222","2170427","2170427","4425336","4442637","4616487","4614982","4617228","4480963","4478775","4510405","NA","4355636","4407740","4508755","4478567","4541699","4478779","NA","4616486","4616487","NA","NA","4614978","NAP perception","21","27883","26","yes","1024"
"81.4814814815","yes","81.4814814815","1091.40740741","1091.40740741","white","no","xpyriment","Ich habe die obigen Informationen gelesen und verstanden.","legacy","legacy","0","uniform","1","0","0","undefined","undefined","1","j","2","1","NA","0","1","0","0","0","0","0","0","0","0","36","36","36","0","0","0","NA","0","0","2","0","0","0","2","36","36","36","36","36","Wed Oct 25 16:22:42 2017","Forced-choice identification task with a practice and an experimental phase","yes","NAP_GER_AA_4blocks_noglides.osexp","/Users/aviadalbert/Documents/Academisch/UoC/Dissertation/Experiment/OpenSesame/NAP-FC/NAP_GER_AA_4blocks_noglides","yes","no","sans","no","20","no","black","no","Weiter","yes","768","legacy","26","9","0","/Users/aviadalbert/Documents/Academisch/UoC/Dissertation/Experiment/OpenSesame/NAP-FC/NAP_GER_AA_4blocks_noglides/subject-18.csv","xpyriment","Jazzy James","3.1.9","yes","yes","59a800d99ad5a1025d81bb03","59a801616c613b0251691de0","no","no","0","j","f","space","NA","space","d","j","1585","1379","30759","NA","17297","35868","1585","2","legacy","1024","1","44100","-16","experiment","esfal","2","0","1","0","1","English, French","18","","even","4541700","4510406","NA","NA","4543080","4541696","NA","2170426","4541222","2170427","2170427","4425336","4442637","4619011","4617507","4620598","4480963","4478775","4510405","NA","4355636","4407740","4508755","4478567","4541699","4478779","NA","4619011","4619011","NA","NA","4617504","NAP perception","22","29468","27","yes","1024"
"82.1428571429","yes","82.1428571429","1114.89285714","1114.89285714","white","no","xpyriment","Ich habe die obigen Informationen gelesen und verstanden.","legacy","legacy","0","uniform","1","0","0","undefined","undefined","1","j","2","1","NA","0","1","0","0","0","0","0","0","0","0","37","37","37","0","0","0","NA","0","0","2","0","0","0","2","37","37","37","37","37","Wed Oct 25 16:22:42 2017","Forced-choice identification task with a practice and an experimental phase","yes","NAP_GER_AA_4blocks_noglides.osexp","/Users/aviadalbert/Documents/Academisch/UoC/Dissertation/Experiment/OpenSesame/NAP-FC/NAP_GER_AA_4blocks_noglides","yes","no","sans","no","20","no","black","no","Weiter","yes","768","legacy","27","9","0","/Users/aviadalbert/Documents/Academisch/UoC/Dissertation/Experiment/OpenSesame/NAP-FC/NAP_GER_AA_4blocks_noglides/subject-18.csv","xpyriment","Jazzy James","3.1.9","yes","yes","59a800d99ad5a1025d81bb03","59a801616c613b0251691de0","no","no","0","j","f","space","NA","space","d","j","1749","1379","30759","NA","17297","35868","1749","2","legacy","1024","1","44100","-16","experiment","enfal","2","0","1","0","1","English, French","18","","even","4541700","4510406","NA","NA","4543080","4541696","NA","2170426","4541222","2170427","2170427","4425336","4442637","4622374","4620870","4624124","4480963","4478775","4510405","NA","4355636","4407740","4508755","4478567","4541699","4478779","NA","4622374","4622374","NA","NA","4620866","NAP perception","23","31217","28","yes","1024"
"82.7586206897","yes","82.7586206897","1111.86206897","1111.86206897","white","no","xpyriment","Ich habe die obigen Informationen gelesen und verstanden.","legacy","legacy","0","uniform","1","0","0","undefined","undefined","1","j","2","1","NA","0","1","0","0","0","0","0","0","0","0","38","38","38","0","0","0","NA","0","0","2","0","0","0","2","38","38","38","38","38","Wed Oct 25 16:22:42 2017","Forced-choice identification task with a practice and an experimental phase","yes","NAP_GER_AA_4blocks_noglides.osexp","/Users/aviadalbert/Documents/Academisch/UoC/Dissertation/Experiment/OpenSesame/NAP-FC/NAP_GER_AA_4blocks_noglides","yes","no","sans","no","20","no","black","no","Weiter","yes","768","legacy","28","9","0","/Users/aviadalbert/Documents/Academisch/UoC/Dissertation/Experiment/OpenSesame/NAP-FC/NAP_GER_AA_4blocks_noglides/subject-18.csv","xpyriment","Jazzy James","3.1.9","yes","yes","59a800d99ad5a1025d81bb03","59a801616c613b0251691de0","no","no","0","j","f","space","NA","space","d","j","1027","1379","30759","NA","17297","35868","1027","2","legacy","1024","1","44100","-16","experiment","fesal","2","0","1","0","1","English, French","18","","even","4541700","4510406","NA","NA","4543080","4541696","NA","2170426","4541222","2170427","2170427","4425336","4442637","4625901","4624396","4626929","4480963","4478775","4510405","NA","4355636","4407740","4508755","4478567","4541699","4478779","NA","4625901","4625901","NA","NA","4624393","NAP perception","24","32244","29","yes","1024"
"83.3333333333","yes","83.3333333333","1106.83333333","1106.83333333","white","no","xpyriment","Ich habe die obigen Informationen gelesen und verstanden.","legacy","legacy","0","uniform","1","0","0","undefined","undefined","1","j","2","1","NA","0","1","0","0","0","0","0","0","0","0","39","39","39","0","0","0","NA","0","0","2","0","0","0","2","39","39","39","39","39","Wed Oct 25 16:22:42 2017","Forced-choice identification task with a practice and an experimental phase","yes","NAP_GER_AA_4blocks_noglides.osexp","/Users/aviadalbert/Documents/Academisch/UoC/Dissertation/Experiment/OpenSesame/NAP-FC/NAP_GER_AA_4blocks_noglides","yes","no","sans","no","20","no","black","no","Weiter","yes","768","legacy","29","9","0","/Users/aviadalbert/Documents/Academisch/UoC/Dissertation/Experiment/OpenSesame/NAP-FC/NAP_GER_AA_4blocks_noglides/subject-18.csv","xpyriment","Jazzy James","3.1.9","yes","yes","59a800d99ad5a1025d81bb03","59a801616c613b0251691de0","no","no","0","j","f","space","NA","space","d","j","961","1379","30759","NA","17297","35868","961","2","legacy","1024","1","44100","-16","experiment","elpal","2","0","1","0","1","English, French","18","","even","4541700","4510406","NA","NA","4543080","4541696","NA","2170426","4541222","2170427","2170427","4425336","4442637","4628711","4627207","4629673","4480963","4478775","4510405","NA","4355636","4407740","4508755","4478567","4541699","4478779","NA","4628711","4628711","NA","NA","4627204","NAP perception","25","33205","30","yes","1024"
"83.8709677419","yes","83.8709677419","1102.32258065","1102.32258065","white","no","xpyriment","Ich habe die obigen Informationen gelesen und verstanden.","legacy","legacy","0","uniform","1","0","0","undefined","undefined","1","j","2","1","NA","0","1","0","0","0","0","0","0","0","0","40","40","40","0","0","0","NA","0","0","2","0","0","0","2","40","40","40","40","40","Wed Oct 25 16:22:42 2017","Forced-choice identification task with a practice and an experimental phase","yes","NAP_GER_AA_4blocks_noglides.osexp","/Users/aviadalbert/Documents/Academisch/UoC/Dissertation/Experiment/OpenSesame/NAP-FC/NAP_GER_AA_4blocks_noglides","yes","no","sans","no","20","no","black","no","Weiter","yes","768","legacy","30","9","0","/Users/aviadalbert/Documents/Academisch/UoC/Dissertation/Experiment/OpenSesame/NAP-FC/NAP_GER_AA_4blocks_noglides/subject-18.csv","xpyriment","Jazzy James","3.1.9","yes","yes","59a800d99ad5a1025d81bb03","59a801616c613b0251691de0","no","no","0","j","f","space","NA","space","d","j","967","1379","30759","NA","17297","35868","967","2","legacy","1024","1","44100","-16","experiment","neval","2","0","1","0","1","English, French","18","","even","4541700","4510406","NA","NA","4543080","4541696","NA","2170426","4541222","2170427","2170427","4425336","4442637","4631453","4629950","4632421","4480963","4478775","4510405","NA","4355636","4407740","4508755","4478567","4541699","4478779","NA","4631453","4631453","NA","NA","4629946","NAP perception","26","34172","31","yes","1024"
"84.375","yes","84.375","1096.875","1096.875","white","no","xpyriment","Ich habe die obigen Informationen gelesen und verstanden.","legacy","legacy","0","uniform","1","0","0","undefined","undefined","1","j","2","1","NA","0","1","0","0","0","0","0","0","0","0","41","41","41","0","0","0","NA","0","0","2","0","0","0","2","41","41","41","41","41","Wed Oct 25 16:22:42 2017","Forced-choice identification task with a practice and an experimental phase","yes","NAP_GER_AA_4blocks_noglides.osexp","/Users/aviadalbert/Documents/Academisch/UoC/Dissertation/Experiment/OpenSesame/NAP-FC/NAP_GER_AA_4blocks_noglides","yes","no","sans","no","20","no","black","no","Weiter","yes","768","legacy","31","9","0","/Users/aviadalbert/Documents/Academisch/UoC/Dissertation/Experiment/OpenSesame/NAP-FC/NAP_GER_AA_4blocks_noglides/subject-18.csv","xpyriment","Jazzy James","3.1.9","yes","yes","59a800d99ad5a1025d81bb03","59a801616c613b0251691de0","no","no","0","j","f","space","NA","space","d","j","928","1379","30759","NA","17297","35868","928","2","legacy","1024","1","44100","-16","experiment","emnal","2","0","1","0","1","English, French","18","","even","4541700","4510406","NA","NA","4543080","4541696","NA","2170426","4541222","2170427","2170427","4425336","4442637","4634210","4632704","4635139","4480963","4478775","4510405","NA","4355636","4407740","4508755","4478567","4541699","4478779","NA","4634210","4634210","NA","NA","4632700","NAP perception","27","35100","32","yes","1024"
"84.8484848485","yes","84.8484848485","1088.18181818","1088.18181818","white","no","xpyriment","Ich habe die obigen Informationen gelesen und verstanden.","legacy","legacy","0","uniform","1","0","0","undefined","undefined","1","j","2","1","NA","0","1","0","0","0","0","0","0","0","0","42","42","42","0","0","0","NA","0","0","2","0","0","0","2","42","42","42","42","42","Wed Oct 25 16:22:42 2017","Forced-choice identification task with a practice and an experimental phase","yes","NAP_GER_AA_4blocks_noglides.osexp","/Users/aviadalbert/Documents/Academisch/UoC/Dissertation/Experiment/OpenSesame/NAP-FC/NAP_GER_AA_4blocks_noglides","yes","no","sans","no","20","no","black","no","Weiter","yes","768","legacy","32","9","0","/Users/aviadalbert/Documents/Academisch/UoC/Dissertation/Experiment/OpenSesame/NAP-FC/NAP_GER_AA_4blocks_noglides/subject-18.csv","xpyriment","Jazzy James","3.1.9","yes","yes","59a800d99ad5a1025d81bb03","59a801616c613b0251691de0","no","no","0","j","f","space","NA","space","d","j","810","1379","30759","NA","17297","35868","810","2","legacy","1024","1","44100","-16","experiment","evlal","2","0","1","0","1","English, French","18","","even","4541700","4510406","NA","NA","4543080","4541696","NA","2170426","4541222","2170427","2170427","4425336","4442637","4636926","4635422","4637737","4480963","4478775","4510405","NA","4355636","4407740","4508755","4478567","4541699","4478779","NA","4636926","4636926","NA","NA","4635418","NAP perception","28","35910","33","yes","1024"
"82.3529411765","yes","82.3529411765","1098.97058824","1098.97058824","white","no","xpyriment","Ich habe die obigen Informationen gelesen und verstanden.","legacy","legacy","0","uniform","0","0","0","undefined","undefined","0","f","2","1","NA","0","1","0","0","0","0","0","0","0","0","43","43","43","0","0","0","NA","0","0","2","0","0","0","2","43","43","43","43","43","Wed Oct 25 16:22:42 2017","Forced-choice identification task with a practice and an experimental phase","yes","NAP_GER_AA_4blocks_noglides.osexp","/Users/aviadalbert/Documents/Academisch/UoC/Dissertation/Experiment/OpenSesame/NAP-FC/NAP_GER_AA_4blocks_noglides","yes","no","sans","no","20","no","black","no","Weiter","yes","768","legacy","33","9","0","/Users/aviadalbert/Documents/Academisch/UoC/Dissertation/Experiment/OpenSesame/NAP-FC/NAP_GER_AA_4blocks_noglides/subject-18.csv","xpyriment","Jazzy James","3.1.9","yes","yes","59a800d99ad5a1025d81bb03","59a801616c613b0251691de0","no","no","0","j","f","space","NA","space","d","j","1455","1379","30759","NA","17297","35868","1455","2","legacy","1024","1","44100","-16","experiment","lval","2","0","1","0","1","English, French","18","","even","4541700","4510406","NA","NA","4543080","4541696","NA","2170426","4541222","2170427","2170427","4425336","4442637","4639527","4638023","4640983","4480963","4478775","4510405","NA","4355636","4407740","4508755","4478567","4541699","4478779","NA","4639527","4639527","NA","NA","4638019","NAP perception","28","37365","34","yes","1024"
"80","yes","80","1113.88571429","1113.88571429","white","no","xpyriment","Ich habe die obigen Informationen gelesen und verstanden.","legacy","legacy","0","uniform","0","0","0","undefined","undefined","0","f","2","1","NA","0","1","0","0","0","0","0","0","0","0","44","44","44","0","0","0","NA","0","0","2","0","0","0","2","44","44","44","44","44","Wed Oct 25 16:22:42 2017","Forced-choice identification task with a practice and an experimental phase","yes","NAP_GER_AA_4blocks_noglides.osexp","/Users/aviadalbert/Documents/Academisch/UoC/Dissertation/Experiment/OpenSesame/NAP-FC/NAP_GER_AA_4blocks_noglides","yes","no","sans","no","20","no","black","no","Weiter","yes","768","legacy","34","9","0","/Users/aviadalbert/Documents/Academisch/UoC/Dissertation/Experiment/OpenSesame/NAP-FC/NAP_GER_AA_4blocks_noglides/subject-18.csv","xpyriment","Jazzy James","3.1.9","yes","yes","59a800d99ad5a1025d81bb03","59a801616c613b0251691de0","no","no","0","j","f","space","NA","space","d","j","1621","1379","30759","NA","17297","35868","1621","2","legacy","1024","1","44100","-16","experiment","lmal","2","0","1","0","1","English, French","18","","even","4541700","4510406","NA","NA","4543080","4541696","NA","2170426","4541222","2170427","2170427","4425336","4442637","4642755","4641248","4644377","4480963","4478775","4510405","NA","4355636","4407740","4508755","4478567","4541699","4478779","NA","4642755","4642755","NA","NA","4641245","NAP perception","28","38986","35","yes","1024"
"80.5555555556","yes","80.5555555556","1106.88888889","1106.88888889","white","no","xpyriment","Ich habe die obigen Informationen gelesen und verstanden.","legacy","legacy","0","uniform","1","0","0","undefined","undefined","1","j","2","1","NA","0","1","0","0","0","0","0","0","0","0","45","45","45","0","0","0","NA","0","0","2","0","0","0","2","45","45","45","45","45","Wed Oct 25 16:22:42 2017","Forced-choice identification task with a practice and an experimental phase","yes","NAP_GER_AA_4blocks_noglides.osexp","/Users/aviadalbert/Documents/Academisch/UoC/Dissertation/Experiment/OpenSesame/NAP-FC/NAP_GER_AA_4blocks_noglides","yes","no","sans","no","20","no","black","no","Weiter","yes","768","legacy","35","9","0","/Users/aviadalbert/Documents/Academisch/UoC/Dissertation/Experiment/OpenSesame/NAP-FC/NAP_GER_AA_4blocks_noglides/subject-18.csv","xpyriment","Jazzy James","3.1.9","yes","yes","59a800d99ad5a1025d81bb03","59a801616c613b0251691de0","no","no","0","j","f","space","NA","space","d","j","862","1379","30759","NA","17297","35868","862","2","legacy","1024","1","44100","-16","experiment","elval","2","0","1","0","1","English, French","18","","even","4541700","4510406","NA","NA","4543080","4541696","NA","2170426","4541222","2170427","2170427","4425336","4442637","4646147","4644642","4647010","4480963","4478775","4510405","NA","4355636","4407740","4508755","4478567","4541699","4478779","NA","4646147","4646147","NA","NA","4644637","NAP perception","29","39848","36","yes","1024"
"81.0810810811","yes","81.0810810811","1100.62162162","1100.62162162","white","no","xpyriment","Ich habe die obigen Informationen gelesen und verstanden.","legacy","legacy","0","uniform","1","0","0","undefined","undefined","1","j","2","1","NA","0","1","0","0","0","0","0","0","0","0","46","46","46","0","0","0","NA","0","0","2","0","0","0","2","46","46","46","46","46","Wed Oct 25 16:22:42 2017","Forced-choice identification task with a practice and an experimental phase","yes","NAP_GER_AA_4blocks_noglides.osexp","/Users/aviadalbert/Documents/Academisch/UoC/Dissertation/Experiment/OpenSesame/NAP-FC/NAP_GER_AA_4blocks_noglides","yes","no","sans","no","20","no","black","no","Weiter","yes","768","legacy","36","9","0","/Users/aviadalbert/Documents/Academisch/UoC/Dissertation/Experiment/OpenSesame/NAP-FC/NAP_GER_AA_4blocks_noglides/subject-18.csv","xpyriment","Jazzy James","3.1.9","yes","yes","59a800d99ad5a1025d81bb03","59a801616c613b0251691de0","no","no","0","j","f","space","NA","space","d","j","875","1379","30759","NA","17297","35868","875","2","legacy","1024","1","44100","-16","experiment","zeval","2","0","1","0","1","English, French","18","","even","4541700","4510406","NA","NA","4543080","4541696","NA","2170426","4541222","2170427","2170427","4425336","4442637","4648793","4647287","4649670","4480963","4478775","4510405","NA","4355636","4407740","4508755","4478567","4541699","4478779","NA","4648793","4648793","NA","NA","4647283","NAP perception","30","40723","37","yes","1024"
"78.9473684211","yes","78.9473684211","1101.42105263","1101.42105263","white","no","xpyriment","Ich habe die obigen Informationen gelesen und verstanden.","legacy","legacy","0","uniform","0","0","0","undefined","undefined","0","f","2","1","NA","0","1","0","0","0","0","0","0","0","0","47","47","47","0","0","0","NA","0","0","2","0","0","0","2","47","47","47","47","47","Wed Oct 25 16:22:42 2017","Forced-choice identification task with a practice and an experimental phase","yes","NAP_GER_AA_4blocks_noglides.osexp","/Users/aviadalbert/Documents/Academisch/UoC/Dissertation/Experiment/OpenSesame/NAP-FC/NAP_GER_AA_4blocks_noglides","yes","no","sans","no","20","no","black","no","Weiter","yes","768","legacy","37","9","0","/Users/aviadalbert/Documents/Academisch/UoC/Dissertation/Experiment/OpenSesame/NAP-FC/NAP_GER_AA_4blocks_noglides/subject-18.csv","xpyriment","Jazzy James","3.1.9","yes","yes","59a800d99ad5a1025d81bb03","59a801616c613b0251691de0","no","no","0","j","f","space","NA","space","d","j","1131","1379","30759","NA","17297","35868","1131","2","legacy","1024","1","44100","-16","experiment","lval","2","0","1","0","1","English, French","18","","even","4541700","4510406","NA","NA","4543080","4541696","NA","2170426","4541222","2170427","2170427","4425336","4442637","4651439","4649935","4652572","4480963","4478775","4510405","NA","4355636","4407740","4508755","4478567","4541699","4478779","NA","4651439","4651439","NA","NA","4649931","NAP perception","30","41854","38","yes","1024"
"79.4871794872","yes","79.4871794872","1098.46153846","1098.46153846","white","no","xpyriment","Ich habe die obigen Informationen gelesen und verstanden.","legacy","legacy","0","uniform","1","0","0","undefined","undefined","1","f","2","1","NA","0","1","0","0","0","0","0","0","0","0","48","48","48","0","0","0","NA","0","0","2","0","0","0","2","48","48","48","48","48","Wed Oct 25 16:22:42 2017","Forced-choice identification task with a practice and an experimental phase","yes","NAP_GER_AA_4blocks_noglides.osexp","/Users/aviadalbert/Documents/Academisch/UoC/Dissertation/Experiment/OpenSesame/NAP-FC/NAP_GER_AA_4blocks_noglides","yes","no","sans","no","20","no","black","no","Weiter","yes","768","legacy","38","9","0","/Users/aviadalbert/Documents/Academisch/UoC/Dissertation/Experiment/OpenSesame/NAP-FC/NAP_GER_AA_4blocks_noglides/subject-18.csv","xpyriment","Jazzy James","3.1.9","yes","yes","59a800d99ad5a1025d81bb03","59a801616c613b0251691de0","no","no","0","f","f","space","NA","space","d","f","986","1379","30759","NA","17297","35868","986","2","legacy","1024","1","44100","-16","experiment","flal","2","0","1","0","1","English, French","18","","even","4541700","4510406","NA","NA","4543080","4541696","NA","2170426","4541222","2170427","2170427","4425336","4442637","4654346","4652843","4655333","4480963","4478775","4510405","NA","4355636","4407740","4508755","4478567","4541699","4478779","NA","4654346","4654346","NA","NA","4652839","NAP perception","31","42840","39","yes","1024"
"80","yes","80","1092.4","1092.4","white","no","xpyriment","Ich habe die obigen Informationen gelesen und verstanden.","legacy","legacy","0","uniform","1","0","0","undefined","undefined","1","j","2","1","NA","0","1","0","0","0","0","0","0","0","0","49","49","49","0","0","0","NA","0","0","2","0","0","0","2","49","49","49","49","49","Wed Oct 25 16:22:42 2017","Forced-choice identification task with a practice and an experimental phase","yes","NAP_GER_AA_4blocks_noglides.osexp","/Users/aviadalbert/Documents/Academisch/UoC/Dissertation/Experiment/OpenSesame/NAP-FC/NAP_GER_AA_4blocks_noglides","yes","no","sans","no","20","no","black","no","Weiter","yes","768","legacy","39","9","0","/Users/aviadalbert/Documents/Academisch/UoC/Dissertation/Experiment/OpenSesame/NAP-FC/NAP_GER_AA_4blocks_noglides/subject-18.csv","xpyriment","Jazzy James","3.1.9","yes","yes","59a800d99ad5a1025d81bb03","59a801616c613b0251691de0","no","no","0","j","f","space","NA","space","d","j","856","1379","30759","NA","17297","35868","856","2","legacy","1024","1","44100","-16","experiment","lefal","2","0","1","0","1","English, French","18","","even","4541700","4510406","NA","NA","4543080","4541696","NA","2170426","4541222","2170427","2170427","4425336","4442637","4657110","4655607","4657968","4480963","4478775","4510405","NA","4355636","4407740","4508755","4478567","4541699","4478779","NA","4657110","4657110","NA","NA","4655603","NAP perception","32","43696","40","yes","1024"
"80.487804878","yes","80.487804878","1087.46341463","1087.46341463","white","no","xpyriment","Ich habe die obigen Informationen gelesen und verstanden.","legacy","legacy","0","uniform","1","0","0","undefined","undefined","1","j","2","1","NA","0","1","0","0","0","0","0","0","0","0","50","50","50","0","0","0","NA","0","0","2","0","0","0","2","50","50","50","50","50","Wed Oct 25 16:22:42 2017","Forced-choice identification task with a practice and an experimental phase","yes","NAP_GER_AA_4blocks_noglides.osexp","/Users/aviadalbert/Documents/Academisch/UoC/Dissertation/Experiment/OpenSesame/NAP-FC/NAP_GER_AA_4blocks_noglides","yes","no","sans","no","20","no","black","no","Weiter","yes","768","legacy","40","9","0","/Users/aviadalbert/Documents/Academisch/UoC/Dissertation/Experiment/OpenSesame/NAP-FC/NAP_GER_AA_4blocks_noglides/subject-18.csv","xpyriment","Jazzy James","3.1.9","yes","yes","59a800d99ad5a1025d81bb03","59a801616c613b0251691de0","no","no","0","j","f","space","NA","space","d","j","890","1379","30759","NA","17297","35868","890","2","legacy","1024","1","44100","-16","experiment","enval","2","0","1","0","1","English, French","18","","even","4541700","4510406","NA","NA","4543080","4541696","NA","2170426","4541222","2170427","2170427","4425336","4442637","4659753","4658249","4660644","4480963","4478775","4510405","NA","4355636","4407740","4508755","4478567","4541699","4478779","NA","4659753","4659753","NA","NA","4658246","NAP perception","33","44586","41","yes","1024"
"80.9523809524","yes","80.9523809524","1087.45238095","1087.45238095","white","no","xpyriment","Ich habe die obigen Informationen gelesen und verstanden.","legacy","legacy","0","uniform","1","0","0","undefined","undefined","1","f","2","1","NA","0","1","0","0","0","0","0","0","0","0","51","51","51","0","0","0","NA","0","0","2","0","0","0","2","51","51","51","51","51","Wed Oct 25 16:22:42 2017","Forced-choice identification task with a practice and an experimental phase","yes","NAP_GER_AA_4blocks_noglides.osexp","/Users/aviadalbert/Documents/Academisch/UoC/Dissertation/Experiment/OpenSesame/NAP-FC/NAP_GER_AA_4blocks_noglides","yes","no","sans","no","20","no","black","no","Weiter","yes","768","legacy","41","9","0","/Users/aviadalbert/Documents/Academisch/UoC/Dissertation/Experiment/OpenSesame/NAP-FC/NAP_GER_AA_4blocks_noglides/subject-18.csv","xpyriment","Jazzy James","3.1.9","yes","yes","59a800d99ad5a1025d81bb03","59a801616c613b0251691de0","no","no","0","f","f","space","NA","space","d","f","1087","1379","30759","NA","17297","35868","1087","2","legacy","1024","1","44100","-16","experiment","zval","2","0","1","0","1","English, French","18","","even","4541700","4510406","NA","NA","4543080","4541696","NA","2170426","4541222","2170427","2170427","4425336","4442637","4662434","4660928","4663523","4480963","4478775","4510405","NA","4355636","4407740","4508755","4478567","4541699","4478779","NA","4662434","4662434","NA","NA","4660924","NAP perception","34","45673","42","yes","1024"
"81.3953488372","yes","81.3953488372","1094.51162791","1094.51162791","white","no","xpyriment","Ich habe die obigen Informationen gelesen und verstanden.","legacy","legacy","0","uniform","1","0","0","undefined","undefined","1","j","2","1","NA","0","1","0","0","0","0","0","0","0","0","52","52","52","0","0","0","NA","0","0","2","0","0","0","2","52","52","52","52","52","Wed Oct 25 16:22:42 2017","Forced-choice identification task with a practice and an experimental phase","yes","NAP_GER_AA_4blocks_noglides.osexp","/Users/aviadalbert/Documents/Academisch/UoC/Dissertation/Experiment/OpenSesame/NAP-FC/NAP_GER_AA_4blocks_noglides","yes","no","sans","no","20","no","black","no","Weiter","yes","768","legacy","42","9","0","/Users/aviadalbert/Documents/Academisch/UoC/Dissertation/Experiment/OpenSesame/NAP-FC/NAP_GER_AA_4blocks_noglides/subject-18.csv","xpyriment","Jazzy James","3.1.9","yes","yes","59a800d99ad5a1025d81bb03","59a801616c613b0251691de0","no","no","0","j","f","space","NA","space","d","j","1391","1379","30759","NA","17297","35868","1391","2","legacy","1024","1","44100","-16","experiment","mesal","2","0","1","0","1","English, French","18","","even","4541700","4510406","NA","NA","4543080","4541696","NA","2170426","4541222","2170427","2170427","4425336","4442637","4665314","4663808","4666707","4480963","4478775","4510405","NA","4355636","4407740","4508755","4478567","4541699","4478779","NA","4665314","4665314","NA","NA","4663804","NAP perception","35","47064","43","yes","1024"
"81.8181818182","yes","81.8181818182","1091.86363636","1091.86363636","white","no","xpyriment","Ich habe die obigen Informationen gelesen und verstanden.","legacy","legacy","0","uniform","1","0","0","undefined","undefined","1","j","2","1","NA","0","1","0","0","0","0","0","0","0","0","53","53","53","0","0","0","NA","0","0","2","0","0","0","2","53","53","53","53","53","Wed Oct 25 16:22:42 2017","Forced-choice identification task with a practice and an experimental phase","yes","NAP_GER_AA_4blocks_noglides.osexp","/Users/aviadalbert/Documents/Academisch/UoC/Dissertation/Experiment/OpenSesame/NAP-FC/NAP_GER_AA_4blocks_noglides","yes","no","sans","no","20","no","black","no","Weiter","yes","768","legacy","43","9","0","/Users/aviadalbert/Documents/Academisch/UoC/Dissertation/Experiment/OpenSesame/NAP-FC/NAP_GER_AA_4blocks_noglides/subject-18.csv","xpyriment","Jazzy James","3.1.9","yes","yes","59a800d99ad5a1025d81bb03","59a801616c613b0251691de0","no","no","0","j","f","space","NA","space","d","j","978","1379","30759","NA","17297","35868","978","2","legacy","1024","1","44100","-16","experiment","vezal","2","0","1","0","1","English, French","18","","even","4541700","4510406","NA","NA","4543080","4541696","NA","2170426","4541222","2170427","2170427","4425336","4442637","4668495","4666988","4669475","4480963","4478775","4510405","NA","4355636","4407740","4508755","4478567","4541699","4478779","NA","4668495","4668495","NA","NA","4666985","NAP perception","36","48042","44","yes","1024"
"82.2222222222","yes","82.2222222222","1090.4","1090.4","white","no","xpyriment","Ich habe die obigen Informationen gelesen und verstanden.","legacy","legacy","0","uniform","1","0","0","undefined","undefined","1","f","2","1","NA","0","1","0","0","0","0","0","0","0","0","54","54","54","0","0","0","NA","0","0","2","0","0","0","2","54","54","54","54","54","Wed Oct 25 16:22:42 2017","Forced-choice identification task with a practice and an experimental phase","yes","NAP_GER_AA_4blocks_noglides.osexp","/Users/aviadalbert/Documents/Academisch/UoC/Dissertation/Experiment/OpenSesame/NAP-FC/NAP_GER_AA_4blocks_noglides","yes","no","sans","no","20","no","black","no","Weiter","yes","768","legacy","44","9","0","/Users/aviadalbert/Documents/Academisch/UoC/Dissertation/Experiment/OpenSesame/NAP-FC/NAP_GER_AA_4blocks_noglides/subject-18.csv","xpyriment","Jazzy James","3.1.9","yes","yes","59a800d99ad5a1025d81bb03","59a801616c613b0251691de0","no","no","0","f","f","space","NA","space","d","f","1026","1379","30759","NA","17297","35868","1026","2","legacy","1024","1","44100","-16","experiment","ʃmal","2","0","1","0","1","English, French","18","","even","4541700","4510406","NA","NA","4543080","4541696","NA","2170426","4541222","2170427","2170427","4425336","4442637","4671261","4669758","4672289","4480963","4478775","4510405","NA","4355636","4407740","4508755","4478567","4541699","4478779","NA","4671261","4671261","NA","NA","4669754","NAP perception","37","49068","45","yes","1024"
"82.6086956522","yes","82.6086956522","1089.39130435","1089.39130435","white","no","xpyriment","Ich habe die obigen Informationen gelesen und verstanden.","legacy","legacy","0","uniform","1","0","0","undefined","undefined","1","f","2","1","NA","0","1","0","0","0","0","0","0","0","0","55","55","55","0","0","0","NA","0","0","2","0","0","0","2","55","55","55","55","55","Wed Oct 25 16:22:42 2017","Forced-choice identification task with a practice and an experimental phase","yes","NAP_GER_AA_4blocks_noglides.osexp","/Users/aviadalbert/Documents/Academisch/UoC/Dissertation/Experiment/OpenSesame/NAP-FC/NAP_GER_AA_4blocks_noglides","yes","no","sans","no","20","no","black","no","Weiter","yes","768","legacy","45","9","0","/Users/aviadalbert/Documents/Academisch/UoC/Dissertation/Experiment/OpenSesame/NAP-FC/NAP_GER_AA_4blocks_noglides/subject-18.csv","xpyriment","Jazzy James","3.1.9","yes","yes","59a800d99ad5a1025d81bb03","59a801616c613b0251691de0","no","no","0","f","f","space","NA","space","d","f","1044","1379","30759","NA","17297","35868","1044","2","legacy","1024","1","44100","-16","experiment","vlal","2","0","1","0","1","English, French","18","","even","4541700","4510406","NA","NA","4543080","4541696","NA","2170426","4541222","2170427","2170427","4425336","4442637","4674060","4672554","4675106","4480963","4478775","4510405","NA","4355636","4407740","4508755","4478567","4541699","4478779","NA","4674060","4674060","NA","NA","4672550","NAP perception","38","50112","46","yes","1024"
"82.9787234043","yes","82.9787234043","1087.31914894","1087.31914894","white","no","xpyriment","Ich habe die obigen Informationen gelesen und verstanden.","legacy","legacy","0","uniform","1","0","0","undefined","undefined","1","j","2","1","NA","0","1","0","0","0","0","0","0","0","0","56","56","56","0","0","0","NA","0","0","2","0","0","0","2","56","56","56","56","56","Wed Oct 25 16:22:42 2017","Forced-choice identification task with a practice and an experimental phase","yes","NAP_GER_AA_4blocks_noglides.osexp","/Users/aviadalbert/Documents/Academisch/UoC/Dissertation/Experiment/OpenSesame/NAP-FC/NAP_GER_AA_4blocks_noglides","yes","no","sans","no","20","no","black","no","Weiter","yes","768","legacy","46","9","0","/Users/aviadalbert/Documents/Academisch/UoC/Dissertation/Experiment/OpenSesame/NAP-FC/NAP_GER_AA_4blocks_noglides/subject-18.csv","xpyriment","Jazzy James","3.1.9","yes","yes","59a800d99ad5a1025d81bb03","59a801616c613b0251691de0","no","no","0","j","f","space","NA","space","d","j","992","1379","30759","NA","17297","35868","992","2","legacy","1024","1","44100","-16","experiment","lekal","2","0","1","0","1","English, French","18","","even","4541700","4510406","NA","NA","4543080","4541696","NA","2170426","4541222","2170427","2170427","4425336","4442637","4676895","4675391","4677888","4480963","4478775","4510405","NA","4355636","4407740","4508755","4478567","4541699","4478779","NA","4676894","4676895","NA","NA","4675387","NAP perception","39","51104","47","yes","1024"
"83.3333333333","yes","83.3333333333","1082.6875","1082.6875","white","no","xpyriment","Ich habe die obigen Informationen gelesen und verstanden.","legacy","legacy","0","uniform","1","0","0","undefined","undefined","1","j","2","1","NA","0","1","0","0","0","0","0","0","0","0","57","57","57","0","0","0","NA","0","0","2","0","0","0","2","57","57","57","57","57","Wed Oct 25 16:22:42 2017","Forced-choice identification task with a practice and an experimental phase","yes","NAP_GER_AA_4blocks_noglides.osexp","/Users/aviadalbert/Documents/Academisch/UoC/Dissertation/Experiment/OpenSesame/NAP-FC/NAP_GER_AA_4blocks_noglides","yes","no","sans","no","20","no","black","no","Weiter","yes","768","legacy","47","9","0","/Users/aviadalbert/Documents/Academisch/UoC/Dissertation/Experiment/OpenSesame/NAP-FC/NAP_GER_AA_4blocks_noglides/subject-18.csv","xpyriment","Jazzy James","3.1.9","yes","yes","59a800d99ad5a1025d81bb03","59a801616c613b0251691de0","no","no","0","j","f","space","NA","space","d","j","865","1379","30759","NA","17297","35868","865","2","legacy","1024","1","44100","-16","experiment","espal","2","0","1","0","1","English, French","18","","even","4541700","4510406","NA","NA","4543080","4541696","NA","2170426","4541222","2170427","2170427","4425336","4442637","4679676","4678173","4680543","4480963","4478775","4510405","NA","4355636","4407740","4508755","4478567","4541699","4478779","NA","4679676","4679676","NA","NA","4678169","NAP perception","40","51969","48","yes","1024"
"83.6734693878","yes","83.6734693878","1081.65306122","1081.65306122","white","no","xpyriment","Ich habe die obigen Informationen gelesen und verstanden.","legacy","legacy","0","uniform","1","0","0","undefined","undefined","1","j","2","1","NA","0","1","0","0","0","0","0","0","0","0","58","58","58","0","0","0","NA","0","0","2","0","0","0","2","58","58","58","58","58","Wed Oct 25 16:22:42 2017","Forced-choice identification task with a practice and an experimental phase","yes","NAP_GER_AA_4blocks_noglides.osexp","/Users/aviadalbert/Documents/Academisch/UoC/Dissertation/Experiment/OpenSesame/NAP-FC/NAP_GER_AA_4blocks_noglides","yes","no","sans","no","20","no","black","no","Weiter","yes","768","legacy","48","9","0","/Users/aviadalbert/Documents/Academisch/UoC/Dissertation/Experiment/OpenSesame/NAP-FC/NAP_GER_AA_4blocks_noglides/subject-18.csv","xpyriment","Jazzy James","3.1.9","yes","yes","59a800d99ad5a1025d81bb03","59a801616c613b0251691de0","no","no","0","j","f","space","NA","space","d","j","1032","1379","30759","NA","17297","35868","1032","2","legacy","1024","1","44100","-16","experiment","emlal","2","0","1","0","1","English, French","18","","even","4541700","4510406","NA","NA","4543080","4541696","NA","2170426","4541222","2170427","2170427","4425336","4442637","4682323","4680817","4683356","4480963","4478775","4510405","NA","4355636","4407740","4508755","4478567","4541699","4478779","NA","4682322","4682323","NA","NA","4680813","NAP perception","41","53001","49","yes","1024"
"82","yes","82","1102.56","1102.56","white","no","xpyriment","Ich habe die obigen Informationen gelesen und verstanden.","legacy","legacy","0","uniform","0","0","0","undefined","undefined","0","f","2","1","NA","0","1","0","0","0","0","0","0","0","0","59","59","59","0","0","0","NA","0","0","2","0","0","0","2","59","59","59","59","59","Wed Oct 25 16:22:42 2017","Forced-choice identification task with a practice and an experimental phase","yes","NAP_GER_AA_4blocks_noglides.osexp","/Users/aviadalbert/Documents/Academisch/UoC/Dissertation/Experiment/OpenSesame/NAP-FC/NAP_GER_AA_4blocks_noglides","yes","no","sans","no","20","no","black","no","Weiter","yes","768","legacy","49","9","0","/Users/aviadalbert/Documents/Academisch/UoC/Dissertation/Experiment/OpenSesame/NAP-FC/NAP_GER_AA_4blocks_noglides/subject-18.csv","xpyriment","Jazzy James","3.1.9","yes","yes","59a800d99ad5a1025d81bb03","59a801616c613b0251691de0","no","no","0","j","f","space","NA","space","d","j","2127","1379","30759","NA","17297","35868","2127","2","legacy","1024","1","44100","-16","experiment","ftal","2","0","1","0","1","English, French","18","","even","4541700","4510406","NA","NA","4543080","4541696","NA","2170426","4541222","2170427","2170427","4425336","4442637","4685126","4683623","4687255","4480963","4478775","4510405","NA","4355636","4407740","4508755","4478567","4541699","4478779","NA","4685126","4685126","NA","NA","4683620","NAP perception","41","55128","50","yes","1024"
"82.3529411765","yes","82.3529411765","1100.60784314","1100.60784314","white","no","xpyriment","Ich habe die obigen Informationen gelesen und verstanden.","legacy","legacy","0","uniform","1","0","0","undefined","undefined","1","f","2","1","NA","0","1","0","0","0","0","0","0","0","0","60","60","60","0","0","0","NA","0","0","2","0","0","0","2","60","60","60","60","60","Wed Oct 25 16:22:42 2017","Forced-choice identification task with a practice and an experimental phase","yes","NAP_GER_AA_4blocks_noglides.osexp","/Users/aviadalbert/Documents/Academisch/UoC/Dissertation/Experiment/OpenSesame/NAP-FC/NAP_GER_AA_4blocks_noglides","yes","no","sans","no","20","no","black","no","Weiter","yes","768","legacy","50","9","0","/Users/aviadalbert/Documents/Academisch/UoC/Dissertation/Experiment/OpenSesame/NAP-FC/NAP_GER_AA_4blocks_noglides/subject-18.csv","xpyriment","Jazzy James","3.1.9","yes","yes","59a800d99ad5a1025d81bb03","59a801616c613b0251691de0","no","no","0","f","f","space","NA","space","d","f","1003","1379","30759","NA","17297","35868","1003","2","legacy","1024","1","44100","-16","experiment","ʃpal","2","0","1","0","1","English, French","18","","even","4541700","4510406","NA","NA","4543080","4541696","NA","2170426","4541222","2170427","2170427","4425336","4442637","4689023","4687520","4690029","4480963","4478775","4510405","NA","4355636","4407740","4508755","4478567","4541699","4478779","NA","4689023","4689023","NA","NA","4687516","NAP perception","42","56131","51","yes","1024"
"80.7692307692","yes","80.7692307692","1113.38461538","1113.38461538","white","no","xpyriment","Ich habe die obigen Informationen gelesen und verstanden.","legacy","legacy","0","uniform","0","0","0","undefined","undefined","0","f","2","1","NA","0","1","0","0","0","0","0","0","0","0","61","61","61","0","0","0","NA","0","0","2","0","0","0","2","61","61","61","61","61","Wed Oct 25 16:22:42 2017","Forced-choice identification task with a practice and an experimental phase","yes","NAP_GER_AA_4blocks_noglides.osexp","/Users/aviadalbert/Documents/Academisch/UoC/Dissertation/Experiment/OpenSesame/NAP-FC/NAP_GER_AA_4blocks_noglides","yes","no","sans","no","20","no","black","no","Weiter","yes","768","legacy","51","9","0","/Users/aviadalbert/Documents/Academisch/UoC/Dissertation/Experiment/OpenSesame/NAP-FC/NAP_GER_AA_4blocks_noglides/subject-18.csv","xpyriment","Jazzy James","3.1.9","yes","yes","59a800d99ad5a1025d81bb03","59a801616c613b0251691de0","no","no","0","j","f","space","NA","space","d","j","1765","1379","30759","NA","17297","35868","1765","2","legacy","1024","1","44100","-16","experiment","nmal","2","0","1","0","1","English, French","18","","even","4541700","4510406","NA","NA","4543080","4541696","NA","2170426","4541222","2170427","2170427","4425336","4442637","4691809","4690305","4693575","4480963","4478775","4510405","NA","4355636","4407740","4508755","4478567","4541699","4478779","NA","4691809","4691809","NA","NA","4690302","NAP perception","42","57896","52","yes","1024"
"81.1320754717","yes","81.1320754717","1110.58490566","1110.58490566","white","no","xpyriment","Ich habe die obigen Informationen gelesen und verstanden.","legacy","legacy","0","uniform","1","0","0","undefined","undefined","1","f","2","1","NA","0","1","0","0","0","0","0","0","0","0","62","62","62","0","0","0","NA","0","0","2","0","0","0","2","62","62","62","62","62","Wed Oct 25 16:22:42 2017","Forced-choice identification task with a practice and an experimental phase","yes","NAP_GER_AA_4blocks_noglides.osexp","/Users/aviadalbert/Documents/Academisch/UoC/Dissertation/Experiment/OpenSesame/NAP-FC/NAP_GER_AA_4blocks_noglides","yes","no","sans","no","20","no","black","no","Weiter","yes","768","legacy","52","9","0","/Users/aviadalbert/Documents/Academisch/UoC/Dissertation/Experiment/OpenSesame/NAP-FC/NAP_GER_AA_4blocks_noglides/subject-18.csv","xpyriment","Jazzy James","3.1.9","yes","yes","59a800d99ad5a1025d81bb03","59a801616c613b0251691de0","no","no","0","f","f","space","NA","space","d","f","965","1379","30759","NA","17297","35868","965","2","legacy","1024","1","44100","-16","experiment","flal","2","0","1","0","1","English, French","18","","even","4541700","4510406","NA","NA","4543080","4541696","NA","2170426","4541222","2170427","2170427","4425336","4442637","4695356","4693853","4696322","4480963","4478775","4510405","NA","4355636","4407740","4508755","4478567","4541699","4478779","NA","4695356","4695356","NA","NA","4693849","NAP perception","43","58861","53","yes","1024"
"79.6296296296","yes","79.6296296296","1137.74074074","1137.74074074","white","no","xpyriment","Ich habe die obigen Informationen gelesen und verstanden.","legacy","legacy","0","uniform","0","0","0","undefined","undefined","0","f","2","1","NA","0","1","0","0","0","0","0","0","0","0","63","63","63","0","0","0","NA","0","0","2","0","0","0","2","63","63","63","63","63","Wed Oct 25 16:22:42 2017","Forced-choice identification task with a practice and an experimental phase","yes","NAP_GER_AA_4blocks_noglides.osexp","/Users/aviadalbert/Documents/Academisch/UoC/Dissertation/Experiment/OpenSesame/NAP-FC/NAP_GER_AA_4blocks_noglides","yes","no","sans","no","20","no","black","no","Weiter","yes","768","legacy","53","9","0","/Users/aviadalbert/Documents/Academisch/UoC/Dissertation/Experiment/OpenSesame/NAP-FC/NAP_GER_AA_4blocks_noglides/subject-18.csv","xpyriment","Jazzy James","3.1.9","yes","yes","59a800d99ad5a1025d81bb03","59a801616c613b0251691de0","no","no","0","j","f","space","NA","space","d","j","2577","1379","30759","NA","17297","35868","2577","2","legacy","1024","1","44100","-16","experiment","vzal","2","0","1","0","1","English, French","18","","even","4541700","4510406","NA","NA","4543080","4541696","NA","2170426","4541222","2170427","2170427","4425336","4442637","4698117","4696613","4700696","4480963","4478775","4510405","NA","4355636","4407740","4508755","4478567","4541699","4478779","NA","4698116","4698117","NA","NA","4696609","NAP perception","43","61438","54","yes","1024"
"80","yes","80","1133.98181818","1133.98181818","white","no","xpyriment","Ich habe die obigen Informationen gelesen und verstanden.","legacy","legacy","0","uniform","1","0","0","undefined","undefined","1","j","2","1","NA","0","1","0","0","0","0","0","0","0","0","64","64","64","0","0","0","NA","0","0","2","0","0","0","2","64","64","64","64","64","Wed Oct 25 16:22:42 2017","Forced-choice identification task with a practice and an experimental phase","yes","NAP_GER_AA_4blocks_noglides.osexp","/Users/aviadalbert/Documents/Academisch/UoC/Dissertation/Experiment/OpenSesame/NAP-FC/NAP_GER_AA_4blocks_noglides","yes","no","sans","no","20","no","black","no","Weiter","yes","768","legacy","54","9","0","/Users/aviadalbert/Documents/Academisch/UoC/Dissertation/Experiment/OpenSesame/NAP-FC/NAP_GER_AA_4blocks_noglides/subject-18.csv","xpyriment","Jazzy James","3.1.9","yes","yes","59a800d99ad5a1025d81bb03","59a801616c613b0251691de0","no","no","0","j","f","space","NA","space","d","j","931","1379","30759","NA","17297","35868","931","2","legacy","1024","1","44100","-16","experiment","melal","2","0","1","0","1","English, French","18","","even","4541700","4510406","NA","NA","4543080","4541696","NA","2170426","4541222","2170427","2170427","4425336","4442637","4702470","4700967","4703403","4480963","4478775","4510405","NA","4355636","4407740","4508755","4478567","4541699","4478779","NA","4702470","4702470","NA","NA","4700963","NAP perception","44","62369","55","yes","1024"
