"acc","accept_status","accuracy","average_response_time","avg_rt","background","bidi","canvas_backend","checkbox_status","clock_backend","color_backend","compensation","coordinates","correct","correct_block_activation","correct_block_exit","correct_instructions_1","correct_instructions_2","correct_keyboard_response","correct_response","count_block_activation","count_block_exit","count_block_info_QA","count_cont_e_block_message","count_e_block_loop","count_e_block_sequence","count_end_of_experiment","count_experiment","count_experimental_loop","count_form_consent","count_info_forms","count_instructions_1","count_instructions_2","count_keyboard_response","count_listen_message","count_logger","count_p_block_loop","count_p_block_sequence","count_p_feedback","count_pause_feedback","count_personal_details_form_1","count_personal_details_form_2","count_post_loop_blank","count_practice_loop","count_pre_e_block_message","count_pre_p_block_message","count_reset_feedback","count_stimulus_image","count_stimulus_sound","count_timeout_message","count_timeout_sound","count_trial_sequence","datetime","description","disable_garbage_collection","experiment_file","experiment_path","expyriment_opengl","font_bold","font_family","font_italic","font_size","font_underline","foreground","form_clicks","form_response","fullscreen","height","keyboard_backend","live_row","live_row_p_block_loop","live_row_practice_loop","logfile","mouse_backend","opensesame_codename","opensesame_version","osf_always_upload_data","osf_always_upload_experiment","osf_datanode_id","osf_id","practice","pygame_doublebuf","repeat_cycle","response","response_block_activation","response_block_exit","response_block_info_QA","response_instructions_1","response_instructions_2","response_keyboard_response","response_time","response_time_block_activation","response_time_block_exit","response_time_block_info_QA","response_time_instructions_1","response_time_instructions_2","response_time_keyboard_response","round_decimals","sampler_backend","sound_buf_size","sound_channels","sound_freq","sound_sample_size","start","stimulus","subject_age","subject_education","subject_gender","subject_german_native","subject_handedness","subject_language_other","subject_nr","subject_other_native_lang","subject_parity","time_block_activation","time_block_exit","time_block_info_QA","time_cont_e_block_message","time_e_block_loop","time_e_block_sequence","time_end_of_experiment","time_experiment","time_experimental_loop","time_form_consent","time_info_forms","time_instructions_1","time_instructions_2","time_keyboard_response","time_listen_message","time_logger","time_p_block_loop","time_p_block_sequence","time_p_feedback","time_pause_feedback","time_personal_details_form_1","time_personal_details_form_2","time_post_loop_blank","time_practice_loop","time_pre_e_block_message","time_pre_p_block_message","time_reset_feedback","time_stimulus_image","time_stimulus_sound","time_timeout_message","time_timeout_sound","time_trial_sequence","title","total_correct","total_response_time","total_responses","uniform_coordinates","width"
"100","yes","100","1126","1126","white","no","xpyriment","Ich habe die obigen Informationen gelesen und verstanden.","legacy","legacy","0","uniform","1","0","NA","undefined","undefined","1","f","0","0","NA","NA","NA","NA","NA","0","0","0","0","0","0","0","0","0","0","0","NA","NA","0","0","0","0","NA","0","0","0","0","0","0","0","Thu Oct 26 12:18:43 2017","Forced-choice identification task with a practice and an experimental phase","yes","NAP_GER_AA_4blocks_noglides.osexp","/Users/aviadalbert/Documents/Academisch/UoC/Dissertation/Experiment/OpenSesame/NAP-FC/NAP_GER_AA_4blocks_noglides","yes","no","sans","no","20","no","black","no","Weiter","yes","768","legacy","0","0","0","/Users/aviadalbert/Documents/Academisch/UoC/Dissertation/Experiment/OpenSesame/NAP-FC/NAP_GER_AA_4blocks_noglides/subject-24.csv","xpyriment","Jazzy James","3.1.9","yes","yes","59a800d99ad5a1025d81bb03","59a801616c613b0251691de0","yes","no","0","f","j","NA","NA","space","space","f","1126","3456","NA","NA","28707","20399","1126","2","legacy","1024","1","44100","-16","experiment","flal","2","0","1","0","1","eng","24","","even","9445863","NA","NA","NA","NA","NA","NA","8897015","NA","8897015","8897015","9396453","9425165","9451036","9449530","9452163","9449320","9445858","NA","NA","9323075","9353003","NA","9445633","NA","9445862","NA","9451036","9451036","NA","NA","9449526","NAP perception","1","1126","1","yes","1024"
"100","yes","100","1093.5","1093.5","white","no","xpyriment","Ich habe die obigen Informationen gelesen und verstanden.","legacy","legacy","0","uniform","1","0","NA","undefined","undefined","1","j","0","0","NA","NA","NA","NA","NA","0","0","0","0","0","0","1","1","1","0","0","NA","NA","0","0","0","0","NA","0","0","1","1","1","1","1","Thu Oct 26 12:18:43 2017","Forced-choice identification task with a practice and an experimental phase","yes","NAP_GER_AA_4blocks_noglides.osexp","/Users/aviadalbert/Documents/Academisch/UoC/Dissertation/Experiment/OpenSesame/NAP-FC/NAP_GER_AA_4blocks_noglides","yes","no","sans","no","20","no","black","no","Weiter","yes","768","legacy","1","1","0","/Users/aviadalbert/Documents/Academisch/UoC/Dissertation/Experiment/OpenSesame/NAP-FC/NAP_GER_AA_4blocks_noglides/subject-24.csv","xpyriment","Jazzy James","3.1.9","yes","yes","59a800d99ad5a1025d81bb03","59a801616c613b0251691de0","yes","no","0","j","j","NA","NA","space","space","j","1061","3456","NA","NA","28707","20399","1061","2","legacy","1024","1","44100","-16","experiment","lepal","2","0","1","0","1","eng","24","","even","9445863","NA","NA","NA","NA","NA","NA","8897015","NA","8897015","8897015","9396453","9425165","9453946","9452441","9455008","9449320","9445858","NA","NA","9323075","9353003","NA","9445633","NA","9445862","NA","9453945","9453945","NA","NA","9452437","NAP perception","2","2187","2","yes","1024"
"100","yes","100","1069","1069","white","no","xpyriment","Ich habe die obigen Informationen gelesen und verstanden.","legacy","legacy","0","uniform","1","0","NA","undefined","undefined","1","j","0","0","NA","NA","NA","NA","NA","0","0","0","0","0","0","2","2","2","0","0","NA","NA","0","0","0","0","NA","0","0","2","2","2","2","2","Thu Oct 26 12:18:43 2017","Forced-choice identification task with a practice and an experimental phase","yes","NAP_GER_AA_4blocks_noglides.osexp","/Users/aviadalbert/Documents/Academisch/UoC/Dissertation/Experiment/OpenSesame/NAP-FC/NAP_GER_AA_4blocks_noglides","yes","no","sans","no","20","no","black","no","Weiter","yes","768","legacy","2","2","0","/Users/aviadalbert/Documents/Academisch/UoC/Dissertation/Experiment/OpenSesame/NAP-FC/NAP_GER_AA_4blocks_noglides/subject-24.csv","xpyriment","Jazzy James","3.1.9","yes","yes","59a800d99ad5a1025d81bb03","59a801616c613b0251691de0","yes","no","0","j","j","NA","NA","space","space","j","1020","3456","NA","NA","28707","20399","1020","2","legacy","1024","1","44100","-16","experiment","emtal","2","0","1","0","1","eng","24","","even","9445863","NA","NA","NA","NA","NA","NA","8897015","NA","8897015","8897015","9396453","9425165","9456785","9455281","9457806","9449320","9445858","NA","NA","9323075","9353003","NA","9445633","NA","9445862","NA","9456785","9456785","NA","NA","9455278","NAP perception","3","3207","3","yes","1024"
"100","yes","100","1175","1175","white","no","xpyriment","Ich habe die obigen Informationen gelesen und verstanden.","legacy","legacy","0","uniform","1","0","NA","undefined","undefined","1","f","0","0","NA","NA","NA","NA","NA","0","0","0","0","0","0","3","3","3","0","0","NA","NA","0","0","0","0","NA","0","0","3","3","3","3","3","Thu Oct 26 12:18:43 2017","Forced-choice identification task with a practice and an experimental phase","yes","NAP_GER_AA_4blocks_noglides.osexp","/Users/aviadalbert/Documents/Academisch/UoC/Dissertation/Experiment/OpenSesame/NAP-FC/NAP_GER_AA_4blocks_noglides","yes","no","sans","no","20","no","black","no","Weiter","yes","768","legacy","3","3","0","/Users/aviadalbert/Documents/Academisch/UoC/Dissertation/Experiment/OpenSesame/NAP-FC/NAP_GER_AA_4blocks_noglides/subject-24.csv","xpyriment","Jazzy James","3.1.9","yes","yes","59a800d99ad5a1025d81bb03","59a801616c613b0251691de0","yes","no","0","f","j","NA","NA","space","space","f","1493","3456","NA","NA","28707","20399","1493","2","legacy","1024","1","44100","-16","experiment","ʃpal","2","0","1","0","1","eng","24","","even","9445863","NA","NA","NA","NA","NA","NA","8897015","NA","8897015","8897015","9396453","9425165","9459606","9458099","9461100","9449320","9445858","NA","NA","9323075","9353003","NA","9445633","NA","9445862","NA","9459606","9459606","NA","NA","9458095","NAP perception","4","4700","4","yes","1024"
"100","yes","100","1124.6","1124.6","white","no","xpyriment","Ich habe die obigen Informationen gelesen und verstanden.","legacy","legacy","0","uniform","1","0","NA","undefined","undefined","1","j","0","0","NA","NA","NA","NA","NA","0","0","0","0","0","0","4","4","4","0","0","NA","NA","0","0","0","0","NA","0","0","4","4","4","4","4","Thu Oct 26 12:18:43 2017","Forced-choice identification task with a practice and an experimental phase","yes","NAP_GER_AA_4blocks_noglides.osexp","/Users/aviadalbert/Documents/Academisch/UoC/Dissertation/Experiment/OpenSesame/NAP-FC/NAP_GER_AA_4blocks_noglides","yes","no","sans","no","20","no","black","no","Weiter","yes","768","legacy","4","4","0","/Users/aviadalbert/Documents/Academisch/UoC/Dissertation/Experiment/OpenSesame/NAP-FC/NAP_GER_AA_4blocks_noglides/subject-24.csv","xpyriment","Jazzy James","3.1.9","yes","yes","59a800d99ad5a1025d81bb03","59a801616c613b0251691de0","yes","no","0","j","j","NA","NA","space","space","j","923","3456","NA","NA","28707","20399","923","2","legacy","1024","1","44100","-16","experiment","nefal","2","0","1","0","1","eng","24","","even","9445863","NA","NA","NA","NA","NA","NA","8897015","NA","8897015","8897015","9396453","9425165","9462898","9461393","9463822","9449320","9445858","NA","NA","9323075","9353003","NA","9445633","NA","9445862","NA","9462897","9462898","NA","NA","9461389","NAP perception","5","5623","5","yes","1024"
"100","yes","100","1234.33333333","1234.33333333","white","no","xpyriment","Ich habe die obigen Informationen gelesen und verstanden.","legacy","legacy","0","uniform","1","0","NA","undefined","undefined","1","f","0","0","NA","NA","NA","NA","NA","0","0","0","0","0","0","5","5","5","0","0","NA","NA","0","0","0","0","NA","0","0","5","5","5","5","5","Thu Oct 26 12:18:43 2017","Forced-choice identification task with a practice and an experimental phase","yes","NAP_GER_AA_4blocks_noglides.osexp","/Users/aviadalbert/Documents/Academisch/UoC/Dissertation/Experiment/OpenSesame/NAP-FC/NAP_GER_AA_4blocks_noglides","yes","no","sans","no","20","no","black","no","Weiter","yes","768","legacy","5","5","0","/Users/aviadalbert/Documents/Academisch/UoC/Dissertation/Experiment/OpenSesame/NAP-FC/NAP_GER_AA_4blocks_noglides/subject-24.csv","xpyriment","Jazzy James","3.1.9","yes","yes","59a800d99ad5a1025d81bb03","59a801616c613b0251691de0","yes","no","0","f","j","NA","NA","space","space","f","1783","3456","NA","NA","28707","20399","1783","2","legacy","1024","1","44100","-16","experiment","sfal","2","0","1","0","1","eng","24","","even","9445863","NA","NA","NA","NA","NA","NA","8897015","NA","8897015","8897015","9396453","9425165","9465615","9464111","9467399","9449320","9445858","NA","NA","9323075","9353003","NA","9445633","NA","9445862","NA","9465614","9465615","NA","NA","9464107","NAP perception","6","7406","6","yes","1024"
"100","yes","100","1259.14285714","1259.14285714","white","no","xpyriment","Ich habe die obigen Informationen gelesen und verstanden.","legacy","legacy","0","uniform","1","0","NA","undefined","undefined","1","f","0","0","NA","NA","NA","NA","NA","0","0","0","0","0","0","6","6","6","0","0","NA","NA","0","0","0","0","NA","0","0","6","6","6","6","6","Thu Oct 26 12:18:43 2017","Forced-choice identification task with a practice and an experimental phase","yes","NAP_GER_AA_4blocks_noglides.osexp","/Users/aviadalbert/Documents/Academisch/UoC/Dissertation/Experiment/OpenSesame/NAP-FC/NAP_GER_AA_4blocks_noglides","yes","no","sans","no","20","no","black","no","Weiter","yes","768","legacy","6","6","0","/Users/aviadalbert/Documents/Academisch/UoC/Dissertation/Experiment/OpenSesame/NAP-FC/NAP_GER_AA_4blocks_noglides/subject-24.csv","xpyriment","Jazzy James","3.1.9","yes","yes","59a800d99ad5a1025d81bb03","59a801616c613b0251691de0","yes","no","0","f","j","NA","NA","space","space","f","1408","3456","NA","NA","28707","20399","1408","2","legacy","1024","1","44100","-16","experiment","zmal","2","0","1","0","1","eng","24","","even","9445863","NA","NA","NA","NA","NA","NA","8897015","NA","8897015","8897015","9396453","9425165","9469179","9467675","9470588","9449320","9445858","NA","NA","9323075","9353003","NA","9445633","NA","9445862","NA","9469179","9469179","NA","NA","9467671","NAP perception","7","8814","7","yes","1024"
"100","yes","100","1200.25","1200.25","white","no","xpyriment","Ich habe die obigen Informationen gelesen und verstanden.","legacy","legacy","0","uniform","1","0","NA","undefined","undefined","1","j","0","0","NA","NA","NA","NA","NA","0","0","0","0","0","0","7","7","7","0","0","NA","NA","0","0","0","0","NA","0","0","7","7","7","7","7","Thu Oct 26 12:18:43 2017","Forced-choice identification task with a practice and an experimental phase","yes","NAP_GER_AA_4blocks_noglides.osexp","/Users/aviadalbert/Documents/Academisch/UoC/Dissertation/Experiment/OpenSesame/NAP-FC/NAP_GER_AA_4blocks_noglides","yes","no","sans","no","20","no","black","no","Weiter","yes","768","legacy","7","7","0","/Users/aviadalbert/Documents/Academisch/UoC/Dissertation/Experiment/OpenSesame/NAP-FC/NAP_GER_AA_4blocks_noglides/subject-24.csv","xpyriment","Jazzy James","3.1.9","yes","yes","59a800d99ad5a1025d81bb03","59a801616c613b0251691de0","yes","no","0","j","j","NA","NA","space","space","j","788","3456","NA","NA","28707","20399","788","2","legacy","1024","1","44100","-16","experiment","mesal","2","0","1","0","1","eng","24","","even","9445863","NA","NA","NA","NA","NA","NA","8897015","NA","8897015","8897015","9396453","9425165","9472372","9470869","9473162","9449320","9445858","NA","NA","9323075","9353003","NA","9445633","NA","9445862","NA","9472372","9472372","NA","NA","9470865","NAP perception","8","9602","8","yes","1024"
"100","yes","100","1163.88888889","1163.88888889","white","no","xpyriment","Ich habe die obigen Informationen gelesen und verstanden.","legacy","legacy","0","uniform","1","0","NA","undefined","undefined","1","j","0","0","NA","NA","NA","NA","NA","0","0","0","0","0","0","8","8","8","0","0","NA","NA","0","0","0","0","NA","0","0","8","8","8","8","8","Thu Oct 26 12:18:43 2017","Forced-choice identification task with a practice and an experimental phase","yes","NAP_GER_AA_4blocks_noglides.osexp","/Users/aviadalbert/Documents/Academisch/UoC/Dissertation/Experiment/OpenSesame/NAP-FC/NAP_GER_AA_4blocks_noglides","yes","no","sans","no","20","no","black","no","Weiter","yes","768","legacy","8","8","0","/Users/aviadalbert/Documents/Academisch/UoC/Dissertation/Experiment/OpenSesame/NAP-FC/NAP_GER_AA_4blocks_noglides/subject-24.csv","xpyriment","Jazzy James","3.1.9","yes","yes","59a800d99ad5a1025d81bb03","59a801616c613b0251691de0","yes","no","0","j","j","NA","NA","space","space","j","873","3456","NA","NA","28707","20399","873","2","legacy","1024","1","44100","-16","experiment","enval","2","0","1","0","1","eng","24","","even","9445863","NA","NA","NA","NA","NA","NA","8897015","NA","8897015","8897015","9396453","9425165","9474948","9473443","9475823","9449320","9445858","NA","NA","9323075","9353003","NA","9445633","NA","9445862","NA","9474948","9474948","NA","NA","9473439","NAP perception","9","10475","9","yes","1024"
"100","yes","100","1142.9","1142.9","white","no","xpyriment","Ich habe die obigen Informationen gelesen und verstanden.","legacy","legacy","0","uniform","1","0","NA","undefined","undefined","1","f","0","0","NA","NA","NA","NA","NA","0","0","0","0","0","0","9","9","9","0","0","NA","NA","0","0","0","0","NA","0","0","9","9","9","9","9","Thu Oct 26 12:18:43 2017","Forced-choice identification task with a practice and an experimental phase","yes","NAP_GER_AA_4blocks_noglides.osexp","/Users/aviadalbert/Documents/Academisch/UoC/Dissertation/Experiment/OpenSesame/NAP-FC/NAP_GER_AA_4blocks_noglides","yes","no","sans","no","20","no","black","no","Weiter","yes","768","legacy","9","9","0","/Users/aviadalbert/Documents/Academisch/UoC/Dissertation/Experiment/OpenSesame/NAP-FC/NAP_GER_AA_4blocks_noglides/subject-24.csv","xpyriment","Jazzy James","3.1.9","yes","yes","59a800d99ad5a1025d81bb03","59a801616c613b0251691de0","yes","no","0","f","j","NA","NA","space","space","f","954","3456","NA","NA","28707","20399","954","2","legacy","1024","1","44100","-16","experiment","vlal","2","0","1","0","1","eng","24","","even","9445863","NA","NA","NA","NA","NA","NA","8897015","NA","8897015","8897015","9396453","9425165","9477598","9476093","9478554","9449320","9445858","NA","NA","9323075","9353003","NA","9445633","NA","9445862","NA","9477598","9477598","NA","NA","9476088","NAP perception","10","11429","10","yes","1024"
"100","yes","100","1036","1036","white","no","xpyriment","Ich habe die obigen Informationen gelesen und verstanden.","legacy","legacy","0","uniform","1","0","0","undefined","undefined","1","f","2","1","NA","0","1","0","0","0","0","0","0","0","0","10","10","10","0","0","0","NA","0","0","2","0","0","0","2","10","10","10","10","10","Thu Oct 26 12:18:43 2017","Forced-choice identification task with a practice and an experimental phase","yes","NAP_GER_AA_4blocks_noglides.osexp","/Users/aviadalbert/Documents/Academisch/UoC/Dissertation/Experiment/OpenSesame/NAP-FC/NAP_GER_AA_4blocks_noglides","yes","no","sans","no","20","no","black","no","Weiter","yes","768","legacy","0","9","0","/Users/aviadalbert/Documents/Academisch/UoC/Dissertation/Experiment/OpenSesame/NAP-FC/NAP_GER_AA_4blocks_noglides/subject-24.csv","xpyriment","Jazzy James","3.1.9","yes","yes","59a800d99ad5a1025d81bb03","59a801616c613b0251691de0","no","no","0","f","f","space","NA","space","space","f","1036","1207","18669","NA","28707","20399","1036","2","legacy","1024","1","44100","-16","experiment","mzal","2","0","1","0","1","eng","24","","even","9499488","9480269","NA","NA","9500696","9499484","NA","8897015","9498993","8897015","8897015","9396453","9425165","9502426","9500923","9503463","9449320","9445858","9480269","NA","9323075","9353003","9478618","9445633","9499488","9445862","NA","9502426","9502426","NA","NA","9500919","NAP perception","1","1036","1","yes","1024"
"100","yes","100","858","858","white","no","xpyriment","Ich habe die obigen Informationen gelesen und verstanden.","legacy","legacy","0","uniform","1","0","0","undefined","undefined","1","j","2","1","NA","0","1","0","0","0","0","0","0","0","0","11","11","11","0","0","0","NA","0","0","2","0","0","0","2","11","11","11","11","11","Thu Oct 26 12:18:43 2017","Forced-choice identification task with a practice and an experimental phase","yes","NAP_GER_AA_4blocks_noglides.osexp","/Users/aviadalbert/Documents/Academisch/UoC/Dissertation/Experiment/OpenSesame/NAP-FC/NAP_GER_AA_4blocks_noglides","yes","no","sans","no","20","no","black","no","Weiter","yes","768","legacy","1","9","0","/Users/aviadalbert/Documents/Academisch/UoC/Dissertation/Experiment/OpenSesame/NAP-FC/NAP_GER_AA_4blocks_noglides/subject-24.csv","xpyriment","Jazzy James","3.1.9","yes","yes","59a800d99ad5a1025d81bb03","59a801616c613b0251691de0","no","no","0","j","f","space","NA","space","space","j","680","1207","18669","NA","28707","20399","680","2","legacy","1024","1","44100","-16","experiment","elfal","2","0","1","0","1","eng","24","","even","9499488","9480269","NA","NA","9500696","9499484","NA","8897015","9498993","8897015","8897015","9396453","9425165","9505241","9503738","9505922","9449320","9445858","9480269","NA","9323075","9353003","9478618","9445633","9499488","9445862","NA","9505241","9505241","NA","NA","9503734","NAP perception","2","1716","2","yes","1024"
"100","yes","100","811.333333333","811.333333333","white","no","xpyriment","Ich habe die obigen Informationen gelesen und verstanden.","legacy","legacy","0","uniform","1","0","0","undefined","undefined","1","f","2","1","NA","0","1","0","0","0","0","0","0","0","0","12","12","12","0","0","0","NA","0","0","2","0","0","0","2","12","12","12","12","12","Thu Oct 26 12:18:43 2017","Forced-choice identification task with a practice and an experimental phase","yes","NAP_GER_AA_4blocks_noglides.osexp","/Users/aviadalbert/Documents/Academisch/UoC/Dissertation/Experiment/OpenSesame/NAP-FC/NAP_GER_AA_4blocks_noglides","yes","no","sans","no","20","no","black","no","Weiter","yes","768","legacy","2","9","0","/Users/aviadalbert/Documents/Academisch/UoC/Dissertation/Experiment/OpenSesame/NAP-FC/NAP_GER_AA_4blocks_noglides/subject-24.csv","xpyriment","Jazzy James","3.1.9","yes","yes","59a800d99ad5a1025d81bb03","59a801616c613b0251691de0","no","no","0","f","f","space","NA","space","space","f","718","1207","18669","NA","28707","20399","718","2","legacy","1024","1","44100","-16","experiment","zval","2","0","1","0","1","eng","24","","even","9499488","9480269","NA","NA","9500696","9499484","NA","8897015","9498993","8897015","8897015","9396453","9425165","9507702","9506198","9508421","9449320","9445858","9480269","NA","9323075","9353003","9478618","9445633","9499488","9445862","NA","9507702","9507702","NA","NA","9506194","NAP perception","3","2434","3","yes","1024"
"75","yes","75","778.75","778.75","white","no","xpyriment","Ich habe die obigen Informationen gelesen und verstanden.","legacy","legacy","0","uniform","0","0","0","undefined","undefined","0","f","2","1","NA","0","1","0","0","0","0","0","0","0","0","13","13","13","0","0","0","NA","0","0","2","0","0","0","2","13","13","13","13","13","Thu Oct 26 12:18:43 2017","Forced-choice identification task with a practice and an experimental phase","yes","NAP_GER_AA_4blocks_noglides.osexp","/Users/aviadalbert/Documents/Academisch/UoC/Dissertation/Experiment/OpenSesame/NAP-FC/NAP_GER_AA_4blocks_noglides","yes","no","sans","no","20","no","black","no","Weiter","yes","768","legacy","3","9","0","/Users/aviadalbert/Documents/Academisch/UoC/Dissertation/Experiment/OpenSesame/NAP-FC/NAP_GER_AA_4blocks_noglides/subject-24.csv","xpyriment","Jazzy James","3.1.9","yes","yes","59a800d99ad5a1025d81bb03","59a801616c613b0251691de0","no","no","0","j","f","space","NA","space","space","j","681","1207","18669","NA","28707","20399","681","2","legacy","1024","1","44100","-16","experiment","nmal","2","0","1","0","1","eng","24","","even","9499488","9480269","NA","NA","9500696","9499484","NA","8897015","9498993","8897015","8897015","9396453","9425165","9510202","9508697","9510884","9449320","9445858","9480269","NA","9323075","9353003","9478618","9445633","9499488","9445862","NA","9510202","9510202","NA","NA","9508693","NAP perception","3","3115","4","yes","1024"
"60","yes","60","766.2","766.2","white","no","xpyriment","Ich habe die obigen Informationen gelesen und verstanden.","legacy","legacy","0","uniform","0","0","0","undefined","undefined","0","j","2","1","NA","0","1","0","0","0","0","0","0","0","0","14","14","14","0","0","0","NA","0","0","2","0","0","0","2","14","14","14","14","14","Thu Oct 26 12:18:43 2017","Forced-choice identification task with a practice and an experimental phase","yes","NAP_GER_AA_4blocks_noglides.osexp","/Users/aviadalbert/Documents/Academisch/UoC/Dissertation/Experiment/OpenSesame/NAP-FC/NAP_GER_AA_4blocks_noglides","yes","no","sans","no","20","no","black","no","Weiter","yes","768","legacy","4","9","0","/Users/aviadalbert/Documents/Academisch/UoC/Dissertation/Experiment/OpenSesame/NAP-FC/NAP_GER_AA_4blocks_noglides/subject-24.csv","xpyriment","Jazzy James","3.1.9","yes","yes","59a800d99ad5a1025d81bb03","59a801616c613b0251691de0","no","no","0","f","f","space","NA","space","space","f","716","1207","18669","NA","28707","20399","716","2","legacy","1024","1","44100","-16","experiment","evlal","2","0","1","0","1","eng","24","","even","9499488","9480269","NA","NA","9500696","9499484","NA","8897015","9498993","8897015","8897015","9396453","9425165","9512668","9511164","9513385","9449320","9445858","9480269","NA","9323075","9353003","9478618","9445633","9499488","9445862","NA","9512667","9512667","NA","NA","9511160","NAP perception","3","3831","5","yes","1024"
"66.6666666667","yes","66.6666666667","811.333333333","811.333333333","white","no","xpyriment","Ich habe die obigen Informationen gelesen und verstanden.","legacy","legacy","0","uniform","1","0","0","undefined","undefined","1","f","2","1","NA","0","1","0","0","0","0","0","0","0","0","15","15","15","0","0","0","NA","0","0","2","0","0","0","2","15","15","15","15","15","Thu Oct 26 12:18:43 2017","Forced-choice identification task with a practice and an experimental phase","yes","NAP_GER_AA_4blocks_noglides.osexp","/Users/aviadalbert/Documents/Academisch/UoC/Dissertation/Experiment/OpenSesame/NAP-FC/NAP_GER_AA_4blocks_noglides","yes","no","sans","no","20","no","black","no","Weiter","yes","768","legacy","5","9","0","/Users/aviadalbert/Documents/Academisch/UoC/Dissertation/Experiment/OpenSesame/NAP-FC/NAP_GER_AA_4blocks_noglides/subject-24.csv","xpyriment","Jazzy James","3.1.9","yes","yes","59a800d99ad5a1025d81bb03","59a801616c613b0251691de0","no","no","0","f","f","space","NA","space","space","f","1037","1207","18669","NA","28707","20399","1037","2","legacy","1024","1","44100","-16","experiment","sfal","2","0","1","0","1","eng","24","","even","9499488","9480269","NA","NA","9500696","9499484","NA","8897015","9498993","8897015","8897015","9396453","9425165","9515179","9513673","9516217","9449320","9445858","9480269","NA","9323075","9353003","9478618","9445633","9499488","9445862","NA","9515179","9515179","NA","NA","9513670","NAP perception","4","4868","6","yes","1024"
"71.4285714286","yes","71.4285714286","839.428571429","839.428571429","white","no","xpyriment","Ich habe die obigen Informationen gelesen und verstanden.","legacy","legacy","0","uniform","1","0","0","undefined","undefined","1","j","2","1","NA","0","1","0","0","0","0","0","0","0","0","16","16","16","0","0","0","NA","0","0","2","0","0","0","2","16","16","16","16","16","Thu Oct 26 12:18:43 2017","Forced-choice identification task with a practice and an experimental phase","yes","NAP_GER_AA_4blocks_noglides.osexp","/Users/aviadalbert/Documents/Academisch/UoC/Dissertation/Experiment/OpenSesame/NAP-FC/NAP_GER_AA_4blocks_noglides","yes","no","sans","no","20","no","black","no","Weiter","yes","768","legacy","6","9","0","/Users/aviadalbert/Documents/Academisch/UoC/Dissertation/Experiment/OpenSesame/NAP-FC/NAP_GER_AA_4blocks_noglides/subject-24.csv","xpyriment","Jazzy James","3.1.9","yes","yes","59a800d99ad5a1025d81bb03","59a801616c613b0251691de0","no","no","0","j","f","space","NA","space","space","j","1008","1207","18669","NA","28707","20399","1008","2","legacy","1024","1","44100","-16","experiment","sefal","2","0","1","0","1","eng","24","","even","9499488","9480269","NA","NA","9500696","9499484","NA","8897015","9498993","8897015","8897015","9396453","9425165","9518017","9516512","9519027","9449320","9445858","9480269","NA","9323075","9353003","9478618","9445633","9499488","9445862","NA","9518017","9518017","NA","NA","9516508","NAP perception","5","5876","7","yes","1024"
"75","yes","75","846.375","846.375","white","no","xpyriment","Ich habe die obigen Informationen gelesen und verstanden.","legacy","legacy","0","uniform","1","0","0","undefined","undefined","1","j","2","1","NA","0","1","0","0","0","0","0","0","0","0","17","17","17","0","0","0","NA","0","0","2","0","0","0","2","17","17","17","17","17","Thu Oct 26 12:18:43 2017","Forced-choice identification task with a practice and an experimental phase","yes","NAP_GER_AA_4blocks_noglides.osexp","/Users/aviadalbert/Documents/Academisch/UoC/Dissertation/Experiment/OpenSesame/NAP-FC/NAP_GER_AA_4blocks_noglides","yes","no","sans","no","20","no","black","no","Weiter","yes","768","legacy","7","9","0","/Users/aviadalbert/Documents/Academisch/UoC/Dissertation/Experiment/OpenSesame/NAP-FC/NAP_GER_AA_4blocks_noglides/subject-24.csv","xpyriment","Jazzy James","3.1.9","yes","yes","59a800d99ad5a1025d81bb03","59a801616c613b0251691de0","no","no","0","j","f","space","NA","space","space","j","895","1207","18669","NA","28707","20399","895","2","legacy","1024","1","44100","-16","experiment","emsal","2","0","1","0","1","eng","24","","even","9499488","9480269","NA","NA","9500696","9499484","NA","8897015","9498993","8897015","8897015","9396453","9425165","9520827","9519323","9521723","9449320","9445858","9480269","NA","9323075","9353003","9478618","9445633","9499488","9445862","NA","9520827","9520827","NA","NA","9519318","NAP perception","6","6771","8","yes","1024"
"77.7777777778","yes","77.7777777778","846.222222222","846.222222222","white","no","xpyriment","Ich habe die obigen Informationen gelesen und verstanden.","legacy","legacy","0","uniform","1","0","0","undefined","undefined","1","j","2","1","NA","0","1","0","0","0","0","0","0","0","0","18","18","18","0","0","0","NA","0","0","2","0","0","0","2","18","18","18","18","18","Thu Oct 26 12:18:43 2017","Forced-choice identification task with a practice and an experimental phase","yes","NAP_GER_AA_4blocks_noglides.osexp","/Users/aviadalbert/Documents/Academisch/UoC/Dissertation/Experiment/OpenSesame/NAP-FC/NAP_GER_AA_4blocks_noglides","yes","no","sans","no","20","no","black","no","Weiter","yes","768","legacy","8","9","0","/Users/aviadalbert/Documents/Academisch/UoC/Dissertation/Experiment/OpenSesame/NAP-FC/NAP_GER_AA_4blocks_noglides/subject-24.csv","xpyriment","Jazzy James","3.1.9","yes","yes","59a800d99ad5a1025d81bb03","59a801616c613b0251691de0","no","no","0","j","f","space","NA","space","space","j","845","1207","18669","NA","28707","20399","845","2","legacy","1024","1","44100","-16","experiment","vezal","2","0","1","0","1","eng","24","","even","9499488","9480269","NA","NA","9500696","9499484","NA","8897015","9498993","8897015","8897015","9396453","9425165","9523509","9522005","9524355","9449320","9445858","9480269","NA","9323075","9353003","9478618","9445633","9499488","9445862","NA","9523508","9523509","NA","NA","9522001","NAP perception","7","7616","9","yes","1024"
"80","yes","80","835.7","835.7","white","no","xpyriment","Ich habe die obigen Informationen gelesen und verstanden.","legacy","legacy","0","uniform","1","0","0","undefined","undefined","1","j","2","1","NA","0","1","0","0","0","0","0","0","0","0","19","19","19","0","0","0","NA","0","0","2","0","0","0","2","19","19","19","19","19","Thu Oct 26 12:18:43 2017","Forced-choice identification task with a practice and an experimental phase","yes","NAP_GER_AA_4blocks_noglides.osexp","/Users/aviadalbert/Documents/Academisch/UoC/Dissertation/Experiment/OpenSesame/NAP-FC/NAP_GER_AA_4blocks_noglides","yes","no","sans","no","20","no","black","no","Weiter","yes","768","legacy","9","9","0","/Users/aviadalbert/Documents/Academisch/UoC/Dissertation/Experiment/OpenSesame/NAP-FC/NAP_GER_AA_4blocks_noglides/subject-24.csv","xpyriment","Jazzy James","3.1.9","yes","yes","59a800d99ad5a1025d81bb03","59a801616c613b0251691de0","no","no","0","j","f","space","NA","space","space","j","741","1207","18669","NA","28707","20399","741","2","legacy","1024","1","44100","-16","experiment","melal","2","0","1","0","1","eng","24","","even","9499488","9480269","NA","NA","9500696","9499484","NA","8897015","9498993","8897015","8897015","9396453","9425165","9526148","9524645","9526890","9449320","9445858","9480269","NA","9323075","9353003","9478618","9445633","9499488","9445862","NA","9526148","9526148","NA","NA","9524641","NAP perception","8","8357","10","yes","1024"
"81.8181818182","yes","81.8181818182","816.818181818","816.818181818","white","no","xpyriment","Ich habe die obigen Informationen gelesen und verstanden.","legacy","legacy","0","uniform","1","0","0","undefined","undefined","1","j","2","1","NA","0","1","0","0","0","0","0","0","0","0","20","20","20","0","0","0","NA","0","0","2","0","0","0","2","20","20","20","20","20","Thu Oct 26 12:18:43 2017","Forced-choice identification task with a practice and an experimental phase","yes","NAP_GER_AA_4blocks_noglides.osexp","/Users/aviadalbert/Documents/Academisch/UoC/Dissertation/Experiment/OpenSesame/NAP-FC/NAP_GER_AA_4blocks_noglides","yes","no","sans","no","20","no","black","no","Weiter","yes","768","legacy","10","9","0","/Users/aviadalbert/Documents/Academisch/UoC/Dissertation/Experiment/OpenSesame/NAP-FC/NAP_GER_AA_4blocks_noglides/subject-24.csv","xpyriment","Jazzy James","3.1.9","yes","yes","59a800d99ad5a1025d81bb03","59a801616c613b0251691de0","no","no","0","j","f","space","NA","space","space","j","628","1207","18669","NA","28707","20399","628","2","legacy","1024","1","44100","-16","experiment","menal","2","0","1","0","1","eng","24","","even","9499488","9480269","NA","NA","9500696","9499484","NA","8897015","9498993","8897015","8897015","9396453","9425165","9528667","9527163","9529296","9449320","9445858","9480269","NA","9323075","9353003","9478618","9445633","9499488","9445862","NA","9528666","9528667","NA","NA","9527159","NAP perception","9","8985","11","yes","1024"
"83.3333333333","yes","83.3333333333","816.166666667","816.166666667","white","no","xpyriment","Ich habe die obigen Informationen gelesen und verstanden.","legacy","legacy","0","uniform","1","0","0","undefined","undefined","1","j","2","1","NA","0","1","0","0","0","0","0","0","0","0","21","21","21","0","0","0","NA","0","0","2","0","0","0","2","21","21","21","21","21","Thu Oct 26 12:18:43 2017","Forced-choice identification task with a practice and an experimental phase","yes","NAP_GER_AA_4blocks_noglides.osexp","/Users/aviadalbert/Documents/Academisch/UoC/Dissertation/Experiment/OpenSesame/NAP-FC/NAP_GER_AA_4blocks_noglides","yes","no","sans","no","20","no","black","no","Weiter","yes","768","legacy","11","9","0","/Users/aviadalbert/Documents/Academisch/UoC/Dissertation/Experiment/OpenSesame/NAP-FC/NAP_GER_AA_4blocks_noglides/subject-24.csv","xpyriment","Jazzy James","3.1.9","yes","yes","59a800d99ad5a1025d81bb03","59a801616c613b0251691de0","no","no","0","j","f","space","NA","space","space","j","809","1207","18669","NA","28707","20399","809","2","legacy","1024","1","44100","-16","experiment","efnal","2","0","1","0","1","eng","24","","even","9499488","9480269","NA","NA","9500696","9499484","NA","8897015","9498993","8897015","8897015","9396453","9425165","9531084","9529581","9531894","9449320","9445858","9480269","NA","9323075","9353003","9478618","9445633","9499488","9445862","NA","9531084","9531084","NA","NA","9529577","NAP perception","10","9794","12","yes","1024"
"84.6153846154","yes","84.6153846154","808.846153846","808.846153846","white","no","xpyriment","Ich habe die obigen Informationen gelesen und verstanden.","legacy","legacy","0","uniform","1","0","0","undefined","undefined","1","j","2","1","NA","0","1","0","0","0","0","0","0","0","0","22","22","22","0","0","0","NA","0","0","2","0","0","0","2","22","22","22","22","22","Thu Oct 26 12:18:43 2017","Forced-choice identification task with a practice and an experimental phase","yes","NAP_GER_AA_4blocks_noglides.osexp","/Users/aviadalbert/Documents/Academisch/UoC/Dissertation/Experiment/OpenSesame/NAP-FC/NAP_GER_AA_4blocks_noglides","yes","no","sans","no","20","no","black","no","Weiter","yes","768","legacy","12","9","0","/Users/aviadalbert/Documents/Academisch/UoC/Dissertation/Experiment/OpenSesame/NAP-FC/NAP_GER_AA_4blocks_noglides/subject-24.csv","xpyriment","Jazzy James","3.1.9","yes","yes","59a800d99ad5a1025d81bb03","59a801616c613b0251691de0","no","no","0","j","f","space","NA","space","space","j","721","1207","18669","NA","28707","20399","721","2","legacy","1024","1","44100","-16","experiment","ezmal","2","0","1","0","1","eng","24","","even","9499488","9480269","NA","NA","9500696","9499484","NA","8897015","9498993","8897015","8897015","9396453","9425165","9533672","9532165","9534395","9449320","9445858","9480269","NA","9323075","9353003","9478618","9445633","9499488","9445862","NA","9533671","9533672","NA","NA","9532160","NAP perception","11","10515","13","yes","1024"
"85.7142857143","yes","85.7142857143","810.214285714","810.214285714","white","no","xpyriment","Ich habe die obigen Informationen gelesen und verstanden.","legacy","legacy","0","uniform","1","0","0","undefined","undefined","1","j","2","1","NA","0","1","0","0","0","0","0","0","0","0","23","23","23","0","0","0","NA","0","0","2","0","0","0","2","23","23","23","23","23","Thu Oct 26 12:18:43 2017","Forced-choice identification task with a practice and an experimental phase","yes","NAP_GER_AA_4blocks_noglides.osexp","/Users/aviadalbert/Documents/Academisch/UoC/Dissertation/Experiment/OpenSesame/NAP-FC/NAP_GER_AA_4blocks_noglides","yes","no","sans","no","20","no","black","no","Weiter","yes","768","legacy","13","9","0","/Users/aviadalbert/Documents/Academisch/UoC/Dissertation/Experiment/OpenSesame/NAP-FC/NAP_GER_AA_4blocks_noglides/subject-24.csv","xpyriment","Jazzy James","3.1.9","yes","yes","59a800d99ad5a1025d81bb03","59a801616c613b0251691de0","no","no","0","j","f","space","NA","space","space","j","828","1207","18669","NA","28707","20399","828","2","legacy","1024","1","44100","-16","experiment","eʃmal","2","0","1","0","1","eng","24","","even","9499488","9480269","NA","NA","9500696","9499484","NA","8897015","9498993","8897015","8897015","9396453","9425165","9536181","9534676","9537011","9449320","9445858","9480269","NA","9323075","9353003","9478618","9445633","9499488","9445862","NA","9536181","9536181","NA","NA","9534672","NAP perception","12","11343","14","yes","1024"
"86.6666666667","yes","86.6666666667","813.2","813.2","white","no","xpyriment","Ich habe die obigen Informationen gelesen und verstanden.","legacy","legacy","0","uniform","1","0","0","undefined","undefined","1","f","2","1","NA","0","1","0","0","0","0","0","0","0","0","24","24","24","0","0","0","NA","0","0","2","0","0","0","2","24","24","24","24","24","Thu Oct 26 12:18:43 2017","Forced-choice identification task with a practice and an experimental phase","yes","NAP_GER_AA_4blocks_noglides.osexp","/Users/aviadalbert/Documents/Academisch/UoC/Dissertation/Experiment/OpenSesame/NAP-FC/NAP_GER_AA_4blocks_noglides","yes","no","sans","no","20","no","black","no","Weiter","yes","768","legacy","14","9","0","/Users/aviadalbert/Documents/Academisch/UoC/Dissertation/Experiment/OpenSesame/NAP-FC/NAP_GER_AA_4blocks_noglides/subject-24.csv","xpyriment","Jazzy James","3.1.9","yes","yes","59a800d99ad5a1025d81bb03","59a801616c613b0251691de0","no","no","0","f","f","space","NA","space","space","f","855","1207","18669","NA","28707","20399","855","2","legacy","1024","1","44100","-16","experiment","spal","2","0","1","0","1","eng","24","","even","9499488","9480269","NA","NA","9500696","9499484","NA","8897015","9498993","8897015","8897015","9396453","9425165","9538792","9537287","9539649","9449320","9445858","9480269","NA","9323075","9353003","9478618","9445633","9499488","9445862","NA","9538792","9538792","NA","NA","9537283","NAP perception","13","12198","15","yes","1024"
"87.5","yes","87.5","801.875","801.875","white","no","xpyriment","Ich habe die obigen Informationen gelesen und verstanden.","legacy","legacy","0","uniform","1","0","0","undefined","undefined","1","j","2","1","NA","0","1","0","0","0","0","0","0","0","0","25","25","25","0","0","0","NA","0","0","2","0","0","0","2","25","25","25","25","25","Thu Oct 26 12:18:43 2017","Forced-choice identification task with a practice and an experimental phase","yes","NAP_GER_AA_4blocks_noglides.osexp","/Users/aviadalbert/Documents/Academisch/UoC/Dissertation/Experiment/OpenSesame/NAP-FC/NAP_GER_AA_4blocks_noglides","yes","no","sans","no","20","no","black","no","Weiter","yes","768","legacy","15","9","0","/Users/aviadalbert/Documents/Academisch/UoC/Dissertation/Experiment/OpenSesame/NAP-FC/NAP_GER_AA_4blocks_noglides/subject-24.csv","xpyriment","Jazzy James","3.1.9","yes","yes","59a800d99ad5a1025d81bb03","59a801616c613b0251691de0","no","no","0","j","f","space","NA","space","space","j","632","1207","18669","NA","28707","20399","632","2","legacy","1024","1","44100","-16","experiment","emtal","2","0","1","0","1","eng","24","","even","9499488","9480269","NA","NA","9500696","9499484","NA","8897015","9498993","8897015","8897015","9396453","9425165","9541416","9539913","9542050","9449320","9445858","9480269","NA","9323075","9353003","9478618","9445633","9499488","9445862","NA","9541416","9541416","NA","NA","9539909","NAP perception","14","12830","16","yes","1024"
"88.2352941176","yes","88.2352941176","799.058823529","799.058823529","white","no","xpyriment","Ich habe die obigen Informationen gelesen und verstanden.","legacy","legacy","0","uniform","1","0","0","undefined","undefined","1","j","2","1","NA","0","1","0","0","0","0","0","0","0","0","26","26","26","0","0","0","NA","0","0","2","0","0","0","2","26","26","26","26","26","Thu Oct 26 12:18:43 2017","Forced-choice identification task with a practice and an experimental phase","yes","NAP_GER_AA_4blocks_noglides.osexp","/Users/aviadalbert/Documents/Academisch/UoC/Dissertation/Experiment/OpenSesame/NAP-FC/NAP_GER_AA_4blocks_noglides","yes","no","sans","no","20","no","black","no","Weiter","yes","768","legacy","16","9","0","/Users/aviadalbert/Documents/Academisch/UoC/Dissertation/Experiment/OpenSesame/NAP-FC/NAP_GER_AA_4blocks_noglides/subject-24.csv","xpyriment","Jazzy James","3.1.9","yes","yes","59a800d99ad5a1025d81bb03","59a801616c613b0251691de0","no","no","0","j","f","space","NA","space","space","j","754","1207","18669","NA","28707","20399","754","2","legacy","1024","1","44100","-16","experiment","elkal","2","0","1","0","1","eng","24","","even","9499488","9480269","NA","NA","9500696","9499484","NA","8897015","9498993","8897015","8897015","9396453","9425165","9543822","9542317","9544577","9449320","9445858","9480269","NA","9323075","9353003","9478618","9445633","9499488","9445862","NA","9543821","9543821","NA","NA","9542313","NAP perception","15","13584","17","yes","1024"
"88.8888888889","yes","88.8888888889","797.166666667","797.166666667","white","no","xpyriment","Ich habe die obigen Informationen gelesen und verstanden.","legacy","legacy","0","uniform","1","0","0","undefined","undefined","1","j","2","1","NA","0","1","0","0","0","0","0","0","0","0","27","27","27","0","0","0","NA","0","0","2","0","0","0","2","27","27","27","27","27","Thu Oct 26 12:18:43 2017","Forced-choice identification task with a practice and an experimental phase","yes","NAP_GER_AA_4blocks_noglides.osexp","/Users/aviadalbert/Documents/Academisch/UoC/Dissertation/Experiment/OpenSesame/NAP-FC/NAP_GER_AA_4blocks_noglides","yes","no","sans","no","20","no","black","no","Weiter","yes","768","legacy","17","9","0","/Users/aviadalbert/Documents/Academisch/UoC/Dissertation/Experiment/OpenSesame/NAP-FC/NAP_GER_AA_4blocks_noglides/subject-24.csv","xpyriment","Jazzy James","3.1.9","yes","yes","59a800d99ad5a1025d81bb03","59a801616c613b0251691de0","no","no","0","j","f","space","NA","space","space","j","765","1207","18669","NA","28707","20399","765","2","legacy","1024","1","44100","-16","experiment","enmal","2","0","1","0","1","eng","24","","even","9499488","9480269","NA","NA","9500696","9499484","NA","8897015","9498993","8897015","8897015","9396453","9425165","9546361","9544858","9547128","9449320","9445858","9480269","NA","9323075","9353003","9478618","9445633","9499488","9445862","NA","9546361","9546361","NA","NA","9544854","NAP perception","16","14349","18","yes","1024"
"89.4736842105","yes","89.4736842105","800.631578947","800.631578947","white","no","xpyriment","Ich habe die obigen Informationen gelesen und verstanden.","legacy","legacy","0","uniform","1","0","0","undefined","undefined","1","f","2","1","NA","0","1","0","0","0","0","0","0","0","0","28","28","28","0","0","0","NA","0","0","2","0","0","0","2","28","28","28","28","28","Thu Oct 26 12:18:43 2017","Forced-choice identification task with a practice and an experimental phase","yes","NAP_GER_AA_4blocks_noglides.osexp","/Users/aviadalbert/Documents/Academisch/UoC/Dissertation/Experiment/OpenSesame/NAP-FC/NAP_GER_AA_4blocks_noglides","yes","no","sans","no","20","no","black","no","Weiter","yes","768","legacy","18","9","0","/Users/aviadalbert/Documents/Academisch/UoC/Dissertation/Experiment/OpenSesame/NAP-FC/NAP_GER_AA_4blocks_noglides/subject-24.csv","xpyriment","Jazzy James","3.1.9","yes","yes","59a800d99ad5a1025d81bb03","59a801616c613b0251691de0","no","no","0","f","f","space","NA","space","space","f","863","1207","18669","NA","28707","20399","863","2","legacy","1024","1","44100","-16","experiment","vzal","2","0","1","0","1","eng","24","","even","9499488","9480269","NA","NA","9500696","9499484","NA","8897015","9498993","8897015","8897015","9396453","9425165","9548917","9547411","9549781","9449320","9445858","9480269","NA","9323075","9353003","9478618","9445633","9499488","9445862","NA","9548917","9548917","NA","NA","9547407","NAP perception","17","15212","19","yes","1024"
"90","yes","90","847.4","847.4","white","no","xpyriment","Ich habe die obigen Informationen gelesen und verstanden.","legacy","legacy","0","uniform","1","0","0","undefined","undefined","1","j","2","1","NA","0","1","0","0","0","0","0","0","0","0","29","29","29","0","0","0","NA","0","0","2","0","0","0","2","29","29","29","29","29","Thu Oct 26 12:18:43 2017","Forced-choice identification task with a practice and an experimental phase","yes","NAP_GER_AA_4blocks_noglides.osexp","/Users/aviadalbert/Documents/Academisch/UoC/Dissertation/Experiment/OpenSesame/NAP-FC/NAP_GER_AA_4blocks_noglides","yes","no","sans","no","20","no","black","no","Weiter","yes","768","legacy","19","9","0","/Users/aviadalbert/Documents/Academisch/UoC/Dissertation/Experiment/OpenSesame/NAP-FC/NAP_GER_AA_4blocks_noglides/subject-24.csv","xpyriment","Jazzy James","3.1.9","yes","yes","59a800d99ad5a1025d81bb03","59a801616c613b0251691de0","no","no","0","j","f","space","NA","space","space","j","1736","1207","18669","NA","28707","20399","1736","2","legacy","1024","1","44100","-16","experiment","eʃpal","2","0","1","0","1","eng","24","","even","9499488","9480269","NA","NA","9500696","9499484","NA","8897015","9498993","8897015","8897015","9396453","9425165","9551574","9550070","9553311","9449320","9445858","9480269","NA","9323075","9353003","9478618","9445633","9499488","9445862","NA","9551574","9551574","NA","NA","9550066","NAP perception","18","16948","20","yes","1024"
"90.4761904762","yes","90.4761904762","840.904761905","840.904761905","white","no","xpyriment","Ich habe die obigen Informationen gelesen und verstanden.","legacy","legacy","0","uniform","1","0","0","undefined","undefined","1","j","2","1","NA","0","1","0","0","0","0","0","0","0","0","30","30","30","0","0","0","NA","0","0","2","0","0","0","2","30","30","30","30","30","Thu Oct 26 12:18:43 2017","Forced-choice identification task with a practice and an experimental phase","yes","NAP_GER_AA_4blocks_noglides.osexp","/Users/aviadalbert/Documents/Academisch/UoC/Dissertation/Experiment/OpenSesame/NAP-FC/NAP_GER_AA_4blocks_noglides","yes","no","sans","no","20","no","black","no","Weiter","yes","768","legacy","20","9","0","/Users/aviadalbert/Documents/Academisch/UoC/Dissertation/Experiment/OpenSesame/NAP-FC/NAP_GER_AA_4blocks_noglides/subject-24.csv","xpyriment","Jazzy James","3.1.9","yes","yes","59a800d99ad5a1025d81bb03","59a801616c613b0251691de0","no","no","0","j","f","space","NA","space","space","j","711","1207","18669","NA","28707","20399","711","2","legacy","1024","1","44100","-16","experiment","enval","2","0","1","0","1","eng","24","","even","9499488","9480269","NA","NA","9500696","9499484","NA","8897015","9498993","8897015","8897015","9396453","9425165","9555093","9553590","9555805","9449320","9445858","9480269","NA","9323075","9353003","9478618","9445633","9499488","9445862","NA","9555093","9555093","NA","NA","9553586","NAP perception","19","17659","21","yes","1024"
"90.9090909091","yes","90.9090909091","833.681818182","833.681818182","white","no","xpyriment","Ich habe die obigen Informationen gelesen und verstanden.","legacy","legacy","0","uniform","1","0","0","undefined","undefined","1","j","2","1","NA","0","1","0","0","0","0","0","0","0","0","31","31","31","0","0","0","NA","0","0","2","0","0","0","2","31","31","31","31","31","Thu Oct 26 12:18:43 2017","Forced-choice identification task with a practice and an experimental phase","yes","NAP_GER_AA_4blocks_noglides.osexp","/Users/aviadalbert/Documents/Academisch/UoC/Dissertation/Experiment/OpenSesame/NAP-FC/NAP_GER_AA_4blocks_noglides","yes","no","sans","no","20","no","black","no","Weiter","yes","768","legacy","21","9","0","/Users/aviadalbert/Documents/Academisch/UoC/Dissertation/Experiment/OpenSesame/NAP-FC/NAP_GER_AA_4blocks_noglides/subject-24.csv","xpyriment","Jazzy James","3.1.9","yes","yes","59a800d99ad5a1025d81bb03","59a801616c613b0251691de0","no","no","0","j","f","space","NA","space","space","j","682","1207","18669","NA","28707","20399","682","2","legacy","1024","1","44100","-16","experiment","fetal","2","0","1","0","1","eng","24","","even","9499488","9480269","NA","NA","9500696","9499484","NA","8897015","9498993","8897015","8897015","9396453","9425165","9557609","9556104","9558292","9449320","9445858","9480269","NA","9323075","9353003","9478618","9445633","9499488","9445862","NA","9557608","9557608","NA","NA","9556100","NAP perception","20","18341","22","yes","1024"
"91.3043478261","yes","91.3043478261","846.434782609","846.434782609","white","no","xpyriment","Ich habe die obigen Informationen gelesen und verstanden.","legacy","legacy","0","uniform","1","0","0","undefined","undefined","1","f","2","1","NA","0","1","0","0","0","0","0","0","0","0","32","32","32","0","0","0","NA","0","0","2","0","0","0","2","32","32","32","32","32","Thu Oct 26 12:18:43 2017","Forced-choice identification task with a practice and an experimental phase","yes","NAP_GER_AA_4blocks_noglides.osexp","/Users/aviadalbert/Documents/Academisch/UoC/Dissertation/Experiment/OpenSesame/NAP-FC/NAP_GER_AA_4blocks_noglides","yes","no","sans","no","20","no","black","no","Weiter","yes","768","legacy","22","9","0","/Users/aviadalbert/Documents/Academisch/UoC/Dissertation/Experiment/OpenSesame/NAP-FC/NAP_GER_AA_4blocks_noglides/subject-24.csv","xpyriment","Jazzy James","3.1.9","yes","yes","59a800d99ad5a1025d81bb03","59a801616c613b0251691de0","no","no","0","f","f","space","NA","space","space","f","1127","1207","18669","NA","28707","20399","1127","2","legacy","1024","1","44100","-16","experiment","lkal","2","0","1","0","1","eng","24","","even","9499488","9480269","NA","NA","9500696","9499484","NA","8897015","9498993","8897015","8897015","9396453","9425165","9560070","9558567","9561198","9449320","9445858","9480269","NA","9323075","9353003","9478618","9445633","9499488","9445862","NA","9560070","9560070","NA","NA","9558562","NAP perception","21","19468","23","yes","1024"
"91.6666666667","yes","91.6666666667","852.458333333","852.458333333","white","no","xpyriment","Ich habe die obigen Informationen gelesen und verstanden.","legacy","legacy","0","uniform","1","0","0","undefined","undefined","1","f","2","1","NA","0","1","0","0","0","0","0","0","0","0","33","33","33","0","0","0","NA","0","0","2","0","0","0","2","33","33","33","33","33","Thu Oct 26 12:18:43 2017","Forced-choice identification task with a practice and an experimental phase","yes","NAP_GER_AA_4blocks_noglides.osexp","/Users/aviadalbert/Documents/Academisch/UoC/Dissertation/Experiment/OpenSesame/NAP-FC/NAP_GER_AA_4blocks_noglides","yes","no","sans","no","20","no","black","no","Weiter","yes","768","legacy","23","9","0","/Users/aviadalbert/Documents/Academisch/UoC/Dissertation/Experiment/OpenSesame/NAP-FC/NAP_GER_AA_4blocks_noglides/subject-24.csv","xpyriment","Jazzy James","3.1.9","yes","yes","59a800d99ad5a1025d81bb03","59a801616c613b0251691de0","no","no","0","f","f","space","NA","space","space","f","991","1207","18669","NA","28707","20399","991","2","legacy","1024","1","44100","-16","experiment","smal","2","0","1","0","1","eng","24","","even","9499488","9480269","NA","NA","9500696","9499484","NA","8897015","9498993","8897015","8897015","9396453","9425165","9562961","9561457","9563953","9449320","9445858","9480269","NA","9323075","9353003","9478618","9445633","9499488","9445862","NA","9562961","9562961","NA","NA","9561453","NAP perception","22","20459","24","yes","1024"
"92","yes","92","849.12","849.12","white","no","xpyriment","Ich habe die obigen Informationen gelesen und verstanden.","legacy","legacy","0","uniform","1","0","0","undefined","undefined","1","j","2","1","NA","0","1","0","0","0","0","0","0","0","0","34","34","34","0","0","0","NA","0","0","2","0","0","0","2","34","34","34","34","34","Thu Oct 26 12:18:43 2017","Forced-choice identification task with a practice and an experimental phase","yes","NAP_GER_AA_4blocks_noglides.osexp","/Users/aviadalbert/Documents/Academisch/UoC/Dissertation/Experiment/OpenSesame/NAP-FC/NAP_GER_AA_4blocks_noglides","yes","no","sans","no","20","no","black","no","Weiter","yes","768","legacy","24","9","0","/Users/aviadalbert/Documents/Academisch/UoC/Dissertation/Experiment/OpenSesame/NAP-FC/NAP_GER_AA_4blocks_noglides/subject-24.csv","xpyriment","Jazzy James","3.1.9","yes","yes","59a800d99ad5a1025d81bb03","59a801616c613b0251691de0","no","no","0","j","f","space","NA","space","space","j","769","1207","18669","NA","28707","20399","769","2","legacy","1024","1","44100","-16","experiment","ʃepal","2","0","1","0","1","eng","24","","even","9499488","9480269","NA","NA","9500696","9499484","NA","8897015","9498993","8897015","8897015","9396453","9425165","9565735","9564227","9566505","9449320","9445858","9480269","NA","9323075","9353003","9478618","9445633","9499488","9445862","NA","9565735","9565735","NA","NA","9564223","NAP perception","23","21228","25","yes","1024"
"92.3076923077","yes","92.3076923077","846.807692308","846.807692308","white","no","xpyriment","Ich habe die obigen Informationen gelesen und verstanden.","legacy","legacy","0","uniform","1","0","0","undefined","undefined","1","f","2","1","NA","0","1","0","0","0","0","0","0","0","0","35","35","35","0","0","0","NA","0","0","2","0","0","0","2","35","35","35","35","35","Thu Oct 26 12:18:43 2017","Forced-choice identification task with a practice and an experimental phase","yes","NAP_GER_AA_4blocks_noglides.osexp","/Users/aviadalbert/Documents/Academisch/UoC/Dissertation/Experiment/OpenSesame/NAP-FC/NAP_GER_AA_4blocks_noglides","yes","no","sans","no","20","no","black","no","Weiter","yes","768","legacy","25","9","0","/Users/aviadalbert/Documents/Academisch/UoC/Dissertation/Experiment/OpenSesame/NAP-FC/NAP_GER_AA_4blocks_noglides/subject-24.csv","xpyriment","Jazzy James","3.1.9","yes","yes","59a800d99ad5a1025d81bb03","59a801616c613b0251691de0","no","no","0","f","f","space","NA","space","space","f","789","1207","18669","NA","28707","20399","789","2","legacy","1024","1","44100","-16","experiment","lmal","2","0","1","0","1","eng","24","","even","9499488","9480269","NA","NA","9500696","9499484","NA","8897015","9498993","8897015","8897015","9396453","9425165","9568278","9566774","9569068","9449320","9445858","9480269","NA","9323075","9353003","9478618","9445633","9499488","9445862","NA","9568278","9568278","NA","NA","9566771","NAP perception","24","22017","26","yes","1024"
"92.5925925926","yes","92.5925925926","850.407407407","850.407407407","white","no","xpyriment","Ich habe die obigen Informationen gelesen und verstanden.","legacy","legacy","0","uniform","1","0","0","undefined","undefined","1","j","2","1","NA","0","1","0","0","0","0","0","0","0","0","36","36","36","0","0","0","NA","0","0","2","0","0","0","2","36","36","36","36","36","Thu Oct 26 12:18:43 2017","Forced-choice identification task with a practice and an experimental phase","yes","NAP_GER_AA_4blocks_noglides.osexp","/Users/aviadalbert/Documents/Academisch/UoC/Dissertation/Experiment/OpenSesame/NAP-FC/NAP_GER_AA_4blocks_noglides","yes","no","sans","no","20","no","black","no","Weiter","yes","768","legacy","26","9","0","/Users/aviadalbert/Documents/Academisch/UoC/Dissertation/Experiment/OpenSesame/NAP-FC/NAP_GER_AA_4blocks_noglides/subject-24.csv","xpyriment","Jazzy James","3.1.9","yes","yes","59a800d99ad5a1025d81bb03","59a801616c613b0251691de0","no","no","0","j","f","space","NA","space","space","j","944","1207","18669","NA","28707","20399","944","2","legacy","1024","1","44100","-16","experiment","semal","2","0","1","0","1","eng","24","","even","9499488","9480269","NA","NA","9500696","9499484","NA","8897015","9498993","8897015","8897015","9396453","9425165","9570863","9569358","9571808","9449320","9445858","9480269","NA","9323075","9353003","9478618","9445633","9499488","9445862","NA","9570862","9570862","NA","NA","9569354","NAP perception","25","22961","27","yes","1024"
"92.8571428571","yes","92.8571428571","856.607142857","856.607142857","white","no","xpyriment","Ich habe die obigen Informationen gelesen und verstanden.","legacy","legacy","0","uniform","1","0","0","undefined","undefined","1","f","2","1","NA","0","1","0","0","0","0","0","0","0","0","37","37","37","0","0","0","NA","0","0","2","0","0","0","2","37","37","37","37","37","Thu Oct 26 12:18:43 2017","Forced-choice identification task with a practice and an experimental phase","yes","NAP_GER_AA_4blocks_noglides.osexp","/Users/aviadalbert/Documents/Academisch/UoC/Dissertation/Experiment/OpenSesame/NAP-FC/NAP_GER_AA_4blocks_noglides","yes","no","sans","no","20","no","black","no","Weiter","yes","768","legacy","27","9","0","/Users/aviadalbert/Documents/Academisch/UoC/Dissertation/Experiment/OpenSesame/NAP-FC/NAP_GER_AA_4blocks_noglides/subject-24.csv","xpyriment","Jazzy James","3.1.9","yes","yes","59a800d99ad5a1025d81bb03","59a801616c613b0251691de0","no","no","0","f","f","space","NA","space","space","f","1024","1207","18669","NA","28707","20399","1024","2","legacy","1024","1","44100","-16","experiment","vlal","2","0","1","0","1","eng","24","","even","9499488","9480269","NA","NA","9500696","9499484","NA","8897015","9498993","8897015","8897015","9396453","9425165","9573583","9572076","9574608","9449320","9445858","9480269","NA","9323075","9353003","9478618","9445633","9499488","9445862","NA","9573583","9573583","NA","NA","9572072","NAP perception","26","23985","28","yes","1024"
"93.1034482759","yes","93.1034482759","859.448275862","859.448275862","white","no","xpyriment","Ich habe die obigen Informationen gelesen und verstanden.","legacy","legacy","0","uniform","1","0","0","undefined","undefined","1","j","2","1","NA","0","1","0","0","0","0","0","0","0","0","38","38","38","0","0","0","NA","0","0","2","0","0","0","2","38","38","38","38","38","Thu Oct 26 12:18:43 2017","Forced-choice identification task with a practice and an experimental phase","yes","NAP_GER_AA_4blocks_noglides.osexp","/Users/aviadalbert/Documents/Academisch/UoC/Dissertation/Experiment/OpenSesame/NAP-FC/NAP_GER_AA_4blocks_noglides","yes","no","sans","no","20","no","black","no","Weiter","yes","768","legacy","28","9","0","/Users/aviadalbert/Documents/Academisch/UoC/Dissertation/Experiment/OpenSesame/NAP-FC/NAP_GER_AA_4blocks_noglides/subject-24.csv","xpyriment","Jazzy James","3.1.9","yes","yes","59a800d99ad5a1025d81bb03","59a801616c613b0251691de0","no","no","0","j","f","space","NA","space","space","j","939","1207","18669","NA","28707","20399","939","2","legacy","1024","1","44100","-16","experiment","mesal","2","0","1","0","1","eng","24","","even","9499488","9480269","NA","NA","9500696","9499484","NA","8897015","9498993","8897015","8897015","9396453","9425165","9576378","9574875","9577318","9449320","9445858","9480269","NA","9323075","9353003","9478618","9445633","9499488","9445862","NA","9576378","9576378","NA","NA","9574871","NAP perception","27","24924","29","yes","1024"
"93.3333333333","yes","93.3333333333","862.033333333","862.033333333","white","no","xpyriment","Ich habe die obigen Informationen gelesen und verstanden.","legacy","legacy","0","uniform","1","0","0","undefined","undefined","1","f","2","1","NA","0","1","0","0","0","0","0","0","0","0","39","39","39","0","0","0","NA","0","0","2","0","0","0","2","39","39","39","39","39","Thu Oct 26 12:18:43 2017","Forced-choice identification task with a practice and an experimental phase","yes","NAP_GER_AA_4blocks_noglides.osexp","/Users/aviadalbert/Documents/Academisch/UoC/Dissertation/Experiment/OpenSesame/NAP-FC/NAP_GER_AA_4blocks_noglides","yes","no","sans","no","20","no","black","no","Weiter","yes","768","legacy","29","9","0","/Users/aviadalbert/Documents/Academisch/UoC/Dissertation/Experiment/OpenSesame/NAP-FC/NAP_GER_AA_4blocks_noglides/subject-24.csv","xpyriment","Jazzy James","3.1.9","yes","yes","59a800d99ad5a1025d81bb03","59a801616c613b0251691de0","no","no","0","f","f","space","NA","space","space","f","937","1207","18669","NA","28707","20399","937","2","legacy","1024","1","44100","-16","experiment","vzal","2","0","1","0","1","eng","24","","even","9499488","9480269","NA","NA","9500696","9499484","NA","8897015","9498993","8897015","8897015","9396453","9425165","9579102","9577599","9580041","9449320","9445858","9480269","NA","9323075","9353003","9478618","9445633","9499488","9445862","NA","9579102","9579102","NA","NA","9577595","NAP perception","28","25861","30","yes","1024"
"93.5483870968","yes","93.5483870968","859.35483871","859.35483871","white","no","xpyriment","Ich habe die obigen Informationen gelesen und verstanden.","legacy","legacy","0","uniform","1","0","0","undefined","undefined","1","f","2","1","NA","0","1","0","0","0","0","0","0","0","0","40","40","40","0","0","0","NA","0","0","2","0","0","0","2","40","40","40","40","40","Thu Oct 26 12:18:43 2017","Forced-choice identification task with a practice and an experimental phase","yes","NAP_GER_AA_4blocks_noglides.osexp","/Users/aviadalbert/Documents/Academisch/UoC/Dissertation/Experiment/OpenSesame/NAP-FC/NAP_GER_AA_4blocks_noglides","yes","no","sans","no","20","no","black","no","Weiter","yes","768","legacy","30","9","0","/Users/aviadalbert/Documents/Academisch/UoC/Dissertation/Experiment/OpenSesame/NAP-FC/NAP_GER_AA_4blocks_noglides/subject-24.csv","xpyriment","Jazzy James","3.1.9","yes","yes","59a800d99ad5a1025d81bb03","59a801616c613b0251691de0","no","no","0","f","f","space","NA","space","space","f","779","1207","18669","NA","28707","20399","779","2","legacy","1024","1","44100","-16","experiment","ʃpal","2","0","1","0","1","eng","24","","even","9499488","9480269","NA","NA","9500696","9499484","NA","8897015","9498993","8897015","8897015","9396453","9425165","9581834","9580326","9582615","9449320","9445858","9480269","NA","9323075","9353003","9478618","9445633","9499488","9445862","NA","9581834","9581834","NA","NA","9580323","NAP perception","29","26640","31","yes","1024"
"93.75","yes","93.75","861.0625","861.0625","white","no","xpyriment","Ich habe die obigen Informationen gelesen und verstanden.","legacy","legacy","0","uniform","1","0","0","undefined","undefined","1","f","2","1","NA","0","1","0","0","0","0","0","0","0","0","41","41","41","0","0","0","NA","0","0","2","0","0","0","2","41","41","41","41","41","Thu Oct 26 12:18:43 2017","Forced-choice identification task with a practice and an experimental phase","yes","NAP_GER_AA_4blocks_noglides.osexp","/Users/aviadalbert/Documents/Academisch/UoC/Dissertation/Experiment/OpenSesame/NAP-FC/NAP_GER_AA_4blocks_noglides","yes","no","sans","no","20","no","black","no","Weiter","yes","768","legacy","31","9","0","/Users/aviadalbert/Documents/Academisch/UoC/Dissertation/Experiment/OpenSesame/NAP-FC/NAP_GER_AA_4blocks_noglides/subject-24.csv","xpyriment","Jazzy James","3.1.9","yes","yes","59a800d99ad5a1025d81bb03","59a801616c613b0251691de0","no","no","0","f","f","space","NA","space","space","f","914","1207","18669","NA","28707","20399","914","2","legacy","1024","1","44100","-16","experiment","nval","2","0","1","0","1","eng","24","","even","9499488","9480269","NA","NA","9500696","9499484","NA","8897015","9498993","8897015","8897015","9396453","9425165","9584405","9582899","9585321","9449320","9445858","9480269","NA","9323075","9353003","9478618","9445633","9499488","9445862","NA","9584405","9584405","NA","NA","9582895","NAP perception","30","27554","32","yes","1024"
"93.9393939394","yes","93.9393939394","862.333333333","862.333333333","white","no","xpyriment","Ich habe die obigen Informationen gelesen und verstanden.","legacy","legacy","0","uniform","1","0","0","undefined","undefined","1","f","2","1","NA","0","1","0","0","0","0","0","0","0","0","42","42","42","0","0","0","NA","0","0","2","0","0","0","2","42","42","42","42","42","Thu Oct 26 12:18:43 2017","Forced-choice identification task with a practice and an experimental phase","yes","NAP_GER_AA_4blocks_noglides.osexp","/Users/aviadalbert/Documents/Academisch/UoC/Dissertation/Experiment/OpenSesame/NAP-FC/NAP_GER_AA_4blocks_noglides","yes","no","sans","no","20","no","black","no","Weiter","yes","768","legacy","32","9","0","/Users/aviadalbert/Documents/Academisch/UoC/Dissertation/Experiment/OpenSesame/NAP-FC/NAP_GER_AA_4blocks_noglides/subject-24.csv","xpyriment","Jazzy James","3.1.9","yes","yes","59a800d99ad5a1025d81bb03","59a801616c613b0251691de0","no","no","0","f","f","space","NA","space","space","f","903","1207","18669","NA","28707","20399","903","2","legacy","1024","1","44100","-16","experiment","npal","2","0","1","0","1","eng","24","","even","9499488","9480269","NA","NA","9500696","9499484","NA","8897015","9498993","8897015","8897015","9396453","9425165","9587111","9585608","9588016","9449320","9445858","9480269","NA","9323075","9353003","9478618","9445633","9499488","9445862","NA","9587111","9587111","NA","NA","9585604","NAP perception","31","28457","33","yes","1024"
"94.1176470588","yes","94.1176470588","860.352941176","860.352941176","white","no","xpyriment","Ich habe die obigen Informationen gelesen und verstanden.","legacy","legacy","0","uniform","1","0","0","undefined","undefined","1","f","2","1","NA","0","1","0","0","0","0","0","0","0","0","43","43","43","0","0","0","NA","0","0","2","0","0","0","2","43","43","43","43","43","Thu Oct 26 12:18:43 2017","Forced-choice identification task with a practice and an experimental phase","yes","NAP_GER_AA_4blocks_noglides.osexp","/Users/aviadalbert/Documents/Academisch/UoC/Dissertation/Experiment/OpenSesame/NAP-FC/NAP_GER_AA_4blocks_noglides","yes","no","sans","no","20","no","black","no","Weiter","yes","768","legacy","33","9","0","/Users/aviadalbert/Documents/Academisch/UoC/Dissertation/Experiment/OpenSesame/NAP-FC/NAP_GER_AA_4blocks_noglides/subject-24.csv","xpyriment","Jazzy James","3.1.9","yes","yes","59a800d99ad5a1025d81bb03","59a801616c613b0251691de0","no","no","0","f","f","space","NA","space","space","f","795","1207","18669","NA","28707","20399","795","2","legacy","1024","1","44100","-16","experiment","vnal","2","0","1","0","1","eng","24","","even","9499488","9480269","NA","NA","9500696","9499484","NA","8897015","9498993","8897015","8897015","9396453","9425165","9589805","9588298","9590602","9449320","9445858","9480269","NA","9323075","9353003","9478618","9445633","9499488","9445862","NA","9589805","9589805","NA","NA","9588294","NAP perception","32","29252","34","yes","1024"
"91.4285714286","yes","91.4285714286","863.314285714","863.314285714","white","no","xpyriment","Ich habe die obigen Informationen gelesen und verstanden.","legacy","legacy","0","uniform","0","0","0","undefined","undefined","0","f","2","1","NA","0","1","0","0","0","0","0","0","0","0","44","44","44","0","0","0","NA","0","0","2","0","0","0","2","44","44","44","44","44","Thu Oct 26 12:18:43 2017","Forced-choice identification task with a practice and an experimental phase","yes","NAP_GER_AA_4blocks_noglides.osexp","/Users/aviadalbert/Documents/Academisch/UoC/Dissertation/Experiment/OpenSesame/NAP-FC/NAP_GER_AA_4blocks_noglides","yes","no","sans","no","20","no","black","no","Weiter","yes","768","legacy","34","9","0","/Users/aviadalbert/Documents/Academisch/UoC/Dissertation/Experiment/OpenSesame/NAP-FC/NAP_GER_AA_4blocks_noglides/subject-24.csv","xpyriment","Jazzy James","3.1.9","yes","yes","59a800d99ad5a1025d81bb03","59a801616c613b0251691de0","no","no","0","j","f","space","NA","space","space","j","964","1207","18669","NA","28707","20399","964","2","legacy","1024","1","44100","-16","experiment","lpal","2","0","1","0","1","eng","24","","even","9499488","9480269","NA","NA","9500696","9499484","NA","8897015","9498993","8897015","8897015","9396453","9425165","9592386","9590882","9593352","9449320","9445858","9480269","NA","9323075","9353003","9478618","9445633","9499488","9445862","NA","9592385","9592386","NA","NA","9590878","NAP perception","32","30216","35","yes","1024"
"91.6666666667","yes","91.6666666667","859.5","859.5","white","no","xpyriment","Ich habe die obigen Informationen gelesen und verstanden.","legacy","legacy","0","uniform","1","0","0","undefined","undefined","1","j","2","1","NA","0","1","0","0","0","0","0","0","0","0","45","45","45","0","0","0","NA","0","0","2","0","0","0","2","45","45","45","45","45","Thu Oct 26 12:18:43 2017","Forced-choice identification task with a practice and an experimental phase","yes","NAP_GER_AA_4blocks_noglides.osexp","/Users/aviadalbert/Documents/Academisch/UoC/Dissertation/Experiment/OpenSesame/NAP-FC/NAP_GER_AA_4blocks_noglides","yes","no","sans","no","20","no","black","no","Weiter","yes","768","legacy","35","9","0","/Users/aviadalbert/Documents/Academisch/UoC/Dissertation/Experiment/OpenSesame/NAP-FC/NAP_GER_AA_4blocks_noglides/subject-24.csv","xpyriment","Jazzy James","3.1.9","yes","yes","59a800d99ad5a1025d81bb03","59a801616c613b0251691de0","no","no","0","j","f","space","NA","space","space","j","726","1207","18669","NA","28707","20399","726","2","legacy","1024","1","44100","-16","experiment","zeval","2","0","1","0","1","eng","24","","even","9499488","9480269","NA","NA","9500696","9499484","NA","8897015","9498993","8897015","8897015","9396453","9425165","9595138","9593635","9595865","9449320","9445858","9480269","NA","9323075","9353003","9478618","9445633","9499488","9445862","NA","9595138","9595138","NA","NA","9593631","NAP perception","33","30942","36","yes","1024"
"91.8918918919","yes","91.8918918919","864.459459459","864.459459459","white","no","xpyriment","Ich habe die obigen Informationen gelesen und verstanden.","legacy","legacy","0","uniform","1","0","0","undefined","undefined","1","f","2","1","NA","0","1","0","0","0","0","0","0","0","0","46","46","46","0","0","0","NA","0","0","2","0","0","0","2","46","46","46","46","46","Thu Oct 26 12:18:43 2017","Forced-choice identification task with a practice and an experimental phase","yes","NAP_GER_AA_4blocks_noglides.osexp","/Users/aviadalbert/Documents/Academisch/UoC/Dissertation/Experiment/OpenSesame/NAP-FC/NAP_GER_AA_4blocks_noglides","yes","no","sans","no","20","no","black","no","Weiter","yes","768","legacy","36","9","0","/Users/aviadalbert/Documents/Academisch/UoC/Dissertation/Experiment/OpenSesame/NAP-FC/NAP_GER_AA_4blocks_noglides/subject-24.csv","xpyriment","Jazzy James","3.1.9","yes","yes","59a800d99ad5a1025d81bb03","59a801616c613b0251691de0","no","no","0","f","f","space","NA","space","space","f","1043","1207","18669","NA","28707","20399","1043","2","legacy","1024","1","44100","-16","experiment","fsal","2","0","1","0","1","eng","24","","even","9499488","9480269","NA","NA","9500696","9499484","NA","8897015","9498993","8897015","8897015","9396453","9425165","9597647","9596144","9598692","9449320","9445858","9480269","NA","9323075","9353003","9478618","9445633","9499488","9445862","NA","9597647","9597647","NA","NA","9596140","NAP perception","34","31985","37","yes","1024"
"92.1052631579","yes","92.1052631579","869.736842105","869.736842105","white","no","xpyriment","Ich habe die obigen Informationen gelesen und verstanden.","legacy","legacy","0","uniform","1","0","0","undefined","undefined","1","f","2","1","NA","0","1","0","0","0","0","0","0","0","0","47","47","47","0","0","0","NA","0","0","2","0","0","0","2","47","47","47","47","47","Thu Oct 26 12:18:43 2017","Forced-choice identification task with a practice and an experimental phase","yes","NAP_GER_AA_4blocks_noglides.osexp","/Users/aviadalbert/Documents/Academisch/UoC/Dissertation/Experiment/OpenSesame/NAP-FC/NAP_GER_AA_4blocks_noglides","yes","no","sans","no","20","no","black","no","Weiter","yes","768","legacy","37","9","0","/Users/aviadalbert/Documents/Academisch/UoC/Dissertation/Experiment/OpenSesame/NAP-FC/NAP_GER_AA_4blocks_noglides/subject-24.csv","xpyriment","Jazzy James","3.1.9","yes","yes","59a800d99ad5a1025d81bb03","59a801616c613b0251691de0","no","no","0","f","f","space","NA","space","space","f","1065","1207","18669","NA","28707","20399","1065","2","legacy","1024","1","44100","-16","experiment","vnal","2","0","1","0","1","eng","24","","even","9499488","9480269","NA","NA","9500696","9499484","NA","8897015","9498993","8897015","8897015","9396453","9425165","9600477","9598974","9601543","9449320","9445858","9480269","NA","9323075","9353003","9478618","9445633","9499488","9445862","NA","9600477","9600477","NA","NA","9598970","NAP perception","35","33050","38","yes","1024"
"92.3076923077","yes","92.3076923077","868.487179487","868.487179487","white","no","xpyriment","Ich habe die obigen Informationen gelesen und verstanden.","legacy","legacy","0","uniform","1","0","0","undefined","undefined","1","f","2","1","NA","0","1","0","0","0","0","0","0","0","0","48","48","48","0","0","0","NA","0","0","2","0","0","0","2","48","48","48","48","48","Thu Oct 26 12:18:43 2017","Forced-choice identification task with a practice and an experimental phase","yes","NAP_GER_AA_4blocks_noglides.osexp","/Users/aviadalbert/Documents/Academisch/UoC/Dissertation/Experiment/OpenSesame/NAP-FC/NAP_GER_AA_4blocks_noglides","yes","no","sans","no","20","no","black","no","Weiter","yes","768","legacy","38","9","0","/Users/aviadalbert/Documents/Academisch/UoC/Dissertation/Experiment/OpenSesame/NAP-FC/NAP_GER_AA_4blocks_noglides/subject-24.csv","xpyriment","Jazzy James","3.1.9","yes","yes","59a800d99ad5a1025d81bb03","59a801616c613b0251691de0","no","no","0","f","f","space","NA","space","space","f","821","1207","18669","NA","28707","20399","821","2","legacy","1024","1","44100","-16","experiment","ʃmal","2","0","1","0","1","eng","24","","even","9499488","9480269","NA","NA","9500696","9499484","NA","8897015","9498993","8897015","8897015","9396453","9425165","9603323","9601819","9604145","9449320","9445858","9480269","NA","9323075","9353003","9478618","9445633","9499488","9445862","NA","9603322","9603322","NA","NA","9601815","NAP perception","36","33871","39","yes","1024"
"92.5","yes","92.5","861.55","861.55","white","no","xpyriment","Ich habe die obigen Informationen gelesen und verstanden.","legacy","legacy","0","uniform","1","0","0","undefined","undefined","1","j","2","1","NA","0","1","0","0","0","0","0","0","0","0","49","49","49","0","0","0","NA","0","0","2","0","0","0","2","49","49","49","49","49","Thu Oct 26 12:18:43 2017","Forced-choice identification task with a practice and an experimental phase","yes","NAP_GER_AA_4blocks_noglides.osexp","/Users/aviadalbert/Documents/Academisch/UoC/Dissertation/Experiment/OpenSesame/NAP-FC/NAP_GER_AA_4blocks_noglides","yes","no","sans","no","20","no","black","no","Weiter","yes","768","legacy","39","9","0","/Users/aviadalbert/Documents/Academisch/UoC/Dissertation/Experiment/OpenSesame/NAP-FC/NAP_GER_AA_4blocks_noglides/subject-24.csv","xpyriment","Jazzy James","3.1.9","yes","yes","59a800d99ad5a1025d81bb03","59a801616c613b0251691de0","no","no","0","j","f","space","NA","space","space","j","591","1207","18669","NA","28707","20399","591","2","legacy","1024","1","44100","-16","experiment","esmal","2","0","1","0","1","eng","24","","even","9499488","9480269","NA","NA","9500696","9499484","NA","8897015","9498993","8897015","8897015","9396453","9425165","9605942","9604435","9606534","9449320","9445858","9480269","NA","9323075","9353003","9478618","9445633","9499488","9445862","NA","9605942","9605942","NA","NA","9604431","NAP perception","37","34462","40","yes","1024"
"92.6829268293","yes","92.6829268293","860.43902439","860.43902439","white","no","xpyriment","Ich habe die obigen Informationen gelesen und verstanden.","legacy","legacy","0","uniform","1","0","0","undefined","undefined","1","j","2","1","NA","0","1","0","0","0","0","0","0","0","0","50","50","50","0","0","0","NA","0","0","2","0","0","0","2","50","50","50","50","50","Thu Oct 26 12:18:43 2017","Forced-choice identification task with a practice and an experimental phase","yes","NAP_GER_AA_4blocks_noglides.osexp","/Users/aviadalbert/Documents/Academisch/UoC/Dissertation/Experiment/OpenSesame/NAP-FC/NAP_GER_AA_4blocks_noglides","yes","no","sans","no","20","no","black","no","Weiter","yes","768","legacy","40","9","0","/Users/aviadalbert/Documents/Academisch/UoC/Dissertation/Experiment/OpenSesame/NAP-FC/NAP_GER_AA_4blocks_noglides/subject-24.csv","xpyriment","Jazzy James","3.1.9","yes","yes","59a800d99ad5a1025d81bb03","59a801616c613b0251691de0","no","no","0","j","f","space","NA","space","space","j","816","1207","18669","NA","28707","20399","816","2","legacy","1024","1","44100","-16","experiment","lepal","2","0","1","0","1","eng","24","","even","9499488","9480269","NA","NA","9500696","9499484","NA","8897015","9498993","8897015","8897015","9396453","9425165","9608322","9606818","9609139","9449320","9445858","9480269","NA","9323075","9353003","9478618","9445633","9499488","9445862","NA","9608322","9608322","NA","NA","9606814","NAP perception","38","35278","41","yes","1024"
"92.8571428571","yes","92.8571428571","865.404761905","865.404761905","white","no","xpyriment","Ich habe die obigen Informationen gelesen und verstanden.","legacy","legacy","0","uniform","1","0","0","undefined","undefined","1","f","2","1","NA","0","1","0","0","0","0","0","0","0","0","51","51","51","0","0","0","NA","0","0","2","0","0","0","2","51","51","51","51","51","Thu Oct 26 12:18:43 2017","Forced-choice identification task with a practice and an experimental phase","yes","NAP_GER_AA_4blocks_noglides.osexp","/Users/aviadalbert/Documents/Academisch/UoC/Dissertation/Experiment/OpenSesame/NAP-FC/NAP_GER_AA_4blocks_noglides","yes","no","sans","no","20","no","black","no","Weiter","yes","768","legacy","41","9","0","/Users/aviadalbert/Documents/Academisch/UoC/Dissertation/Experiment/OpenSesame/NAP-FC/NAP_GER_AA_4blocks_noglides/subject-24.csv","xpyriment","Jazzy James","3.1.9","yes","yes","59a800d99ad5a1025d81bb03","59a801616c613b0251691de0","no","no","0","f","f","space","NA","space","space","f","1069","1207","18669","NA","28707","20399","1069","2","legacy","1024","1","44100","-16","experiment","lfal","2","0","1","0","1","eng","24","","even","9499488","9480269","NA","NA","9500696","9499484","NA","8897015","9498993","8897015","8897015","9396453","9425165","9610924","9609418","9611994","9449320","9445858","9480269","NA","9323075","9353003","9478618","9445633","9499488","9445862","NA","9610924","9610924","NA","NA","9609414","NAP perception","39","36347","42","yes","1024"
"93.023255814","yes","93.023255814","863","863","white","no","xpyriment","Ich habe die obigen Informationen gelesen und verstanden.","legacy","legacy","0","uniform","1","0","0","undefined","undefined","1","j","2","1","NA","0","1","0","0","0","0","0","0","0","0","52","52","52","0","0","0","NA","0","0","2","0","0","0","2","52","52","52","52","52","Thu Oct 26 12:18:43 2017","Forced-choice identification task with a practice and an experimental phase","yes","NAP_GER_AA_4blocks_noglides.osexp","/Users/aviadalbert/Documents/Academisch/UoC/Dissertation/Experiment/OpenSesame/NAP-FC/NAP_GER_AA_4blocks_noglides","yes","no","sans","no","20","no","black","no","Weiter","yes","768","legacy","42","9","0","/Users/aviadalbert/Documents/Academisch/UoC/Dissertation/Experiment/OpenSesame/NAP-FC/NAP_GER_AA_4blocks_noglides/subject-24.csv","xpyriment","Jazzy James","3.1.9","yes","yes","59a800d99ad5a1025d81bb03","59a801616c613b0251691de0","no","no","0","j","f","space","NA","space","space","j","762","1207","18669","NA","28707","20399","762","2","legacy","1024","1","44100","-16","experiment","nepal","2","0","1","0","1","eng","24","","even","9499488","9480269","NA","NA","9500696","9499484","NA","8897015","9498993","8897015","8897015","9396453","9425165","9613774","9612270","9614538","9449320","9445858","9480269","NA","9323075","9353003","9478618","9445633","9499488","9445862","NA","9613774","9613774","NA","NA","9612266","NAP perception","40","37109","43","yes","1024"
"93.1818181818","yes","93.1818181818","862","862","white","no","xpyriment","Ich habe die obigen Informationen gelesen und verstanden.","legacy","legacy","0","uniform","1","0","0","undefined","undefined","1","j","2","1","NA","0","1","0","0","0","0","0","0","0","0","53","53","53","0","0","0","NA","0","0","2","0","0","0","2","53","53","53","53","53","Thu Oct 26 12:18:43 2017","Forced-choice identification task with a practice and an experimental phase","yes","NAP_GER_AA_4blocks_noglides.osexp","/Users/aviadalbert/Documents/Academisch/UoC/Dissertation/Experiment/OpenSesame/NAP-FC/NAP_GER_AA_4blocks_noglides","yes","no","sans","no","20","no","black","no","Weiter","yes","768","legacy","43","9","0","/Users/aviadalbert/Documents/Academisch/UoC/Dissertation/Experiment/OpenSesame/NAP-FC/NAP_GER_AA_4blocks_noglides/subject-24.csv","xpyriment","Jazzy James","3.1.9","yes","yes","59a800d99ad5a1025d81bb03","59a801616c613b0251691de0","no","no","0","j","f","space","NA","space","space","j","819","1207","18669","NA","28707","20399","819","2","legacy","1024","1","44100","-16","experiment","emzal","2","0","1","0","1","eng","24","","even","9499488","9480269","NA","NA","9500696","9499484","NA","8897015","9498993","8897015","8897015","9396453","9425165","9616316","9614813","9617137","9449320","9445858","9480269","NA","9323075","9353003","9478618","9445633","9499488","9445862","NA","9616316","9616316","NA","NA","9614809","NAP perception","41","37928","44","yes","1024"
"93.3333333333","yes","93.3333333333","875.577777778","875.577777778","white","no","xpyriment","Ich habe die obigen Informationen gelesen und verstanden.","legacy","legacy","0","uniform","1","0","0","undefined","undefined","1","j","2","1","NA","0","1","0","0","0","0","0","0","0","0","54","54","54","0","0","0","NA","0","0","2","0","0","0","2","54","54","54","54","54","Thu Oct 26 12:18:43 2017","Forced-choice identification task with a practice and an experimental phase","yes","NAP_GER_AA_4blocks_noglides.osexp","/Users/aviadalbert/Documents/Academisch/UoC/Dissertation/Experiment/OpenSesame/NAP-FC/NAP_GER_AA_4blocks_noglides","yes","no","sans","no","20","no","black","no","Weiter","yes","768","legacy","44","9","0","/Users/aviadalbert/Documents/Academisch/UoC/Dissertation/Experiment/OpenSesame/NAP-FC/NAP_GER_AA_4blocks_noglides/subject-24.csv","xpyriment","Jazzy James","3.1.9","yes","yes","59a800d99ad5a1025d81bb03","59a801616c613b0251691de0","no","no","0","j","f","space","NA","space","space","j","1473","1207","18669","NA","28707","20399","1473","2","legacy","1024","1","44100","-16","experiment","lefal","2","0","1","0","1","eng","24","","even","9499488","9480269","NA","NA","9500696","9499484","NA","8897015","9498993","8897015","8897015","9396453","9425165","9618936","9617429","9620410","9449320","9445858","9480269","NA","9323075","9353003","9478618","9445633","9499488","9445862","NA","9618935","9618935","NA","NA","9617425","NAP perception","42","39401","45","yes","1024"
"93.4782608696","yes","93.4782608696","873.97826087","873.97826087","white","no","xpyriment","Ich habe die obigen Informationen gelesen und verstanden.","legacy","legacy","0","uniform","1","0","0","undefined","undefined","1","j","2","1","NA","0","1","0","0","0","0","0","0","0","0","55","55","55","0","0","0","NA","0","0","2","0","0","0","2","55","55","55","55","55","Thu Oct 26 12:18:43 2017","Forced-choice identification task with a practice and an experimental phase","yes","NAP_GER_AA_4blocks_noglides.osexp","/Users/aviadalbert/Documents/Academisch/UoC/Dissertation/Experiment/OpenSesame/NAP-FC/NAP_GER_AA_4blocks_noglides","yes","no","sans","no","20","no","black","no","Weiter","yes","768","legacy","45","9","0","/Users/aviadalbert/Documents/Academisch/UoC/Dissertation/Experiment/OpenSesame/NAP-FC/NAP_GER_AA_4blocks_noglides/subject-24.csv","xpyriment","Jazzy James","3.1.9","yes","yes","59a800d99ad5a1025d81bb03","59a801616c613b0251691de0","no","no","0","j","f","space","NA","space","space","j","802","1207","18669","NA","28707","20399","802","2","legacy","1024","1","44100","-16","experiment","espal","2","0","1","0","1","eng","24","","even","9499488","9480269","NA","NA","9500696","9499484","NA","8897015","9498993","8897015","8897015","9396453","9425165","9622196","9620690","9622999","9449320","9445858","9480269","NA","9323075","9353003","9478618","9445633","9499488","9445862","NA","9622196","9622196","NA","NA","9620686","NAP perception","43","40203","46","yes","1024"
"93.6170212766","yes","93.6170212766","870.021276596","870.021276596","white","no","xpyriment","Ich habe die obigen Informationen gelesen und verstanden.","legacy","legacy","0","uniform","1","0","0","undefined","undefined","1","j","2","1","NA","0","1","0","0","0","0","0","0","0","0","56","56","56","0","0","0","NA","0","0","2","0","0","0","2","56","56","56","56","56","Thu Oct 26 12:18:43 2017","Forced-choice identification task with a practice and an experimental phase","yes","NAP_GER_AA_4blocks_noglides.osexp","/Users/aviadalbert/Documents/Academisch/UoC/Dissertation/Experiment/OpenSesame/NAP-FC/NAP_GER_AA_4blocks_noglides","yes","no","sans","no","20","no","black","no","Weiter","yes","768","legacy","46","9","0","/Users/aviadalbert/Documents/Academisch/UoC/Dissertation/Experiment/OpenSesame/NAP-FC/NAP_GER_AA_4blocks_noglides/subject-24.csv","xpyriment","Jazzy James","3.1.9","yes","yes","59a800d99ad5a1025d81bb03","59a801616c613b0251691de0","no","no","0","j","f","space","NA","space","space","j","688","1207","18669","NA","28707","20399","688","2","legacy","1024","1","44100","-16","experiment","elval","2","0","1","0","1","eng","24","","even","9499488","9480269","NA","NA","9500696","9499484","NA","8897015","9498993","8897015","8897015","9396453","9425165","9624778","9623274","9625467","9449320","9445858","9480269","NA","9323075","9353003","9478618","9445633","9499488","9445862","NA","9624778","9624778","NA","NA","9623270","NAP perception","44","40891","47","yes","1024"
"93.75","yes","93.75","867.041666667","867.041666667","white","no","xpyriment","Ich habe die obigen Informationen gelesen und verstanden.","legacy","legacy","0","uniform","1","0","0","undefined","undefined","1","j","2","1","NA","0","1","0","0","0","0","0","0","0","0","57","57","57","0","0","0","NA","0","0","2","0","0","0","2","57","57","57","57","57","Thu Oct 26 12:18:43 2017","Forced-choice identification task with a practice and an experimental phase","yes","NAP_GER_AA_4blocks_noglides.osexp","/Users/aviadalbert/Documents/Academisch/UoC/Dissertation/Experiment/OpenSesame/NAP-FC/NAP_GER_AA_4blocks_noglides","yes","no","sans","no","20","no","black","no","Weiter","yes","768","legacy","47","9","0","/Users/aviadalbert/Documents/Academisch/UoC/Dissertation/Experiment/OpenSesame/NAP-FC/NAP_GER_AA_4blocks_noglides/subject-24.csv","xpyriment","Jazzy James","3.1.9","yes","yes","59a800d99ad5a1025d81bb03","59a801616c613b0251691de0","no","no","0","j","f","space","NA","space","space","j","727","1207","18669","NA","28707","20399","727","2","legacy","1024","1","44100","-16","experiment","ʃefal","2","0","1","0","1","eng","24","","even","9499488","9480269","NA","NA","9500696","9499484","NA","8897015","9498993","8897015","8897015","9396453","9425165","9627253","9625750","9627982","9449320","9445858","9480269","NA","9323075","9353003","9478618","9445633","9499488","9445862","NA","9627253","9627253","NA","NA","9625746","NAP perception","45","41618","48","yes","1024"
"93.8775510204","yes","93.8775510204","863.163265306","863.163265306","white","no","xpyriment","Ich habe die obigen Informationen gelesen und verstanden.","legacy","legacy","0","uniform","1","0","0","undefined","undefined","1","j","2","1","NA","0","1","0","0","0","0","0","0","0","0","58","58","58","0","0","0","NA","0","0","2","0","0","0","2","58","58","58","58","58","Thu Oct 26 12:18:43 2017","Forced-choice identification task with a practice and an experimental phase","yes","NAP_GER_AA_4blocks_noglides.osexp","/Users/aviadalbert/Documents/Academisch/UoC/Dissertation/Experiment/OpenSesame/NAP-FC/NAP_GER_AA_4blocks_noglides","yes","no","sans","no","20","no","black","no","Weiter","yes","768","legacy","48","9","0","/Users/aviadalbert/Documents/Academisch/UoC/Dissertation/Experiment/OpenSesame/NAP-FC/NAP_GER_AA_4blocks_noglides/subject-24.csv","xpyriment","Jazzy James","3.1.9","yes","yes","59a800d99ad5a1025d81bb03","59a801616c613b0251691de0","no","no","0","j","f","space","NA","space","space","j","677","1207","18669","NA","28707","20399","677","2","legacy","1024","1","44100","-16","experiment","fesal","2","0","1","0","1","eng","24","","even","9499488","9480269","NA","NA","9500696","9499484","NA","8897015","9498993","8897015","8897015","9396453","9425165","9629761","9628256","9630440","9449320","9445858","9480269","NA","9323075","9353003","9478618","9445633","9499488","9445862","NA","9629761","9629761","NA","NA","9628253","NAP perception","46","42295","49","yes","1024"
"92","yes","92","859.02","859.02","white","no","xpyriment","Ich habe die obigen Informationen gelesen und verstanden.","legacy","legacy","0","uniform","0","0","0","undefined","undefined","0","f","2","1","NA","0","1","0","0","0","0","0","0","0","0","59","59","59","0","0","0","NA","0","0","2","0","0","0","2","59","59","59","59","59","Thu Oct 26 12:18:43 2017","Forced-choice identification task with a practice and an experimental phase","yes","NAP_GER_AA_4blocks_noglides.osexp","/Users/aviadalbert/Documents/Academisch/UoC/Dissertation/Experiment/OpenSesame/NAP-FC/NAP_GER_AA_4blocks_noglides","yes","no","sans","no","20","no","black","no","Weiter","yes","768","legacy","49","9","0","/Users/aviadalbert/Documents/Academisch/UoC/Dissertation/Experiment/OpenSesame/NAP-FC/NAP_GER_AA_4blocks_noglides/subject-24.csv","xpyriment","Jazzy James","3.1.9","yes","yes","59a800d99ad5a1025d81bb03","59a801616c613b0251691de0","no","no","0","j","f","space","NA","space","space","j","656","1207","18669","NA","28707","20399","656","2","legacy","1024","1","44100","-16","experiment","lpal","2","0","1","0","1","eng","24","","even","9499488","9480269","NA","NA","9500696","9499484","NA","8897015","9498993","8897015","8897015","9396453","9425165","9632219","9630716","9632877","9449320","9445858","9480269","NA","9323075","9353003","9478618","9445633","9499488","9445862","NA","9632219","9632219","NA","NA","9630712","NAP perception","46","42951","50","yes","1024"
"92.1568627451","yes","92.1568627451","859.784313725","859.784313725","white","no","xpyriment","Ich habe die obigen Informationen gelesen und verstanden.","legacy","legacy","0","uniform","1","0","0","undefined","undefined","1","j","2","1","NA","0","1","0","0","0","0","0","0","0","0","60","60","60","0","0","0","NA","0","0","2","0","0","0","2","60","60","60","60","60","Thu Oct 26 12:18:43 2017","Forced-choice identification task with a practice and an experimental phase","yes","NAP_GER_AA_4blocks_noglides.osexp","/Users/aviadalbert/Documents/Academisch/UoC/Dissertation/Experiment/OpenSesame/NAP-FC/NAP_GER_AA_4blocks_noglides","yes","no","sans","no","20","no","black","no","Weiter","yes","768","legacy","50","9","0","/Users/aviadalbert/Documents/Academisch/UoC/Dissertation/Experiment/OpenSesame/NAP-FC/NAP_GER_AA_4blocks_noglides/subject-24.csv","xpyriment","Jazzy James","3.1.9","yes","yes","59a800d99ad5a1025d81bb03","59a801616c613b0251691de0","no","no","0","j","f","space","NA","space","space","j","898","1207","18669","NA","28707","20399","898","2","legacy","1024","1","44100","-16","experiment","elpal","2","0","1","0","1","eng","24","","even","9499488","9480269","NA","NA","9500696","9499484","NA","8897015","9498993","8897015","8897015","9396453","9425165","9634666","9633158","9635567","9449320","9445858","9480269","NA","9323075","9353003","9478618","9445633","9499488","9445862","NA","9634666","9634666","NA","NA","9633154","NAP perception","47","43849","51","yes","1024"
"92.3076923077","yes","92.3076923077","868.019230769","868.019230769","white","no","xpyriment","Ich habe die obigen Informationen gelesen und verstanden.","legacy","legacy","0","uniform","1","0","0","undefined","undefined","1","f","2","1","NA","0","1","0","0","0","0","0","0","0","0","61","61","61","0","0","0","NA","0","0","2","0","0","0","2","61","61","61","61","61","Thu Oct 26 12:18:43 2017","Forced-choice identification task with a practice and an experimental phase","yes","NAP_GER_AA_4blocks_noglides.osexp","/Users/aviadalbert/Documents/Academisch/UoC/Dissertation/Experiment/OpenSesame/NAP-FC/NAP_GER_AA_4blocks_noglides","yes","no","sans","no","20","no","black","no","Weiter","yes","768","legacy","51","9","0","/Users/aviadalbert/Documents/Academisch/UoC/Dissertation/Experiment/OpenSesame/NAP-FC/NAP_GER_AA_4blocks_noglides/subject-24.csv","xpyriment","Jazzy James","3.1.9","yes","yes","59a800d99ad5a1025d81bb03","59a801616c613b0251691de0","no","no","0","f","f","space","NA","space","space","f","1288","1207","18669","NA","28707","20399","1288","2","legacy","1024","1","44100","-16","experiment","lfal","2","0","1","0","1","eng","24","","even","9499488","9480269","NA","NA","9500696","9499484","NA","8897015","9498993","8897015","8897015","9396453","9425165","9637343","9635840","9638633","9449320","9445858","9480269","NA","9323075","9353003","9478618","9445633","9499488","9445862","NA","9637343","9637343","NA","NA","9635836","NAP perception","48","45137","52","yes","1024"
"92.4528301887","yes","92.4528301887","865.20754717","865.20754717","white","no","xpyriment","Ich habe die obigen Informationen gelesen und verstanden.","legacy","legacy","0","uniform","1","0","0","undefined","undefined","1","j","2","1","NA","0","1","0","0","0","0","0","0","0","0","62","62","62","0","0","0","NA","0","0","2","0","0","0","2","62","62","62","62","62","Thu Oct 26 12:18:43 2017","Forced-choice identification task with a practice and an experimental phase","yes","NAP_GER_AA_4blocks_noglides.osexp","/Users/aviadalbert/Documents/Academisch/UoC/Dissertation/Experiment/OpenSesame/NAP-FC/NAP_GER_AA_4blocks_noglides","yes","no","sans","no","20","no","black","no","Weiter","yes","768","legacy","52","9","0","/Users/aviadalbert/Documents/Academisch/UoC/Dissertation/Experiment/OpenSesame/NAP-FC/NAP_GER_AA_4blocks_noglides/subject-24.csv","xpyriment","Jazzy James","3.1.9","yes","yes","59a800d99ad5a1025d81bb03","59a801616c613b0251691de0","no","no","0","j","f","space","NA","space","space","j","719","1207","18669","NA","28707","20399","719","2","legacy","1024","1","44100","-16","experiment","nemal","2","0","1","0","1","eng","24","","even","9499488","9480269","NA","NA","9500696","9499484","NA","8897015","9498993","8897015","8897015","9396453","9425165","9640416","9638913","9641137","9449320","9445858","9480269","NA","9323075","9353003","9478618","9445633","9499488","9445862","NA","9640416","9640416","NA","NA","9638909","NAP perception","49","45856","53","yes","1024"
"92.5925925926","yes","92.5925925926","868.222222222","868.222222222","white","no","xpyriment","Ich habe die obigen Informationen gelesen und verstanden.","legacy","legacy","0","uniform","1","0","0","undefined","undefined","1","f","2","1","NA","0","1","0","0","0","0","0","0","0","0","63","63","63","0","0","0","NA","0","0","2","0","0","0","2","63","63","63","63","63","Thu Oct 26 12:18:43 2017","Forced-choice identification task with a practice and an experimental phase","yes","NAP_GER_AA_4blocks_noglides.osexp","/Users/aviadalbert/Documents/Academisch/UoC/Dissertation/Experiment/OpenSesame/NAP-FC/NAP_GER_AA_4blocks_noglides","yes","no","sans","no","20","no","black","no","Weiter","yes","768","legacy","53","9","0","/Users/aviadalbert/Documents/Academisch/UoC/Dissertation/Experiment/OpenSesame/NAP-FC/NAP_GER_AA_4blocks_noglides/subject-24.csv","xpyriment","Jazzy James","3.1.9","yes","yes","59a800d99ad5a1025d81bb03","59a801616c613b0251691de0","no","no","0","f","f","space","NA","space","space","f","1028","1207","18669","NA","28707","20399","1028","2","legacy","1024","1","44100","-16","experiment","lval","2","0","1","0","1","eng","24","","even","9499488","9480269","NA","NA","9500696","9499484","NA","8897015","9498993","8897015","8897015","9396453","9425165","9642922","9641415","9643952","9449320","9445858","9480269","NA","9323075","9353003","9478618","9445633","9499488","9445862","NA","9642922","9642922","NA","NA","9641411","NAP perception","50","46884","54","yes","1024"
"92.7272727273","yes","92.7272727273","867.6","867.6","white","no","xpyriment","Ich habe die obigen Informationen gelesen und verstanden.","legacy","legacy","0","uniform","1","0","0","undefined","undefined","1","f","2","1","NA","0","1","0","0","0","0","0","0","0","0","64","64","64","0","0","0","NA","0","0","2","0","0","0","2","64","64","64","64","64","Thu Oct 26 12:18:43 2017","Forced-choice identification task with a practice and an experimental phase","yes","NAP_GER_AA_4blocks_noglides.osexp","/Users/aviadalbert/Documents/Academisch/UoC/Dissertation/Experiment/OpenSesame/NAP-FC/NAP_GER_AA_4blocks_noglides","yes","no","sans","no","20","no","black","no","Weiter","yes","768","legacy","54","9","0","/Users/aviadalbert/Documents/Academisch/UoC/Dissertation/Experiment/OpenSesame/NAP-FC/NAP_GER_AA_4blocks_noglides/subject-24.csv","xpyriment","Jazzy James","3.1.9","yes","yes","59a800d99ad5a1025d81bb03","59a801616c613b0251691de0","no","no","0","f","f","space","NA","space","space","f","834","1207","18669","NA","28707","20399","834","2","legacy","1024","1","44100","-16","experiment","ʃfal","2","0","1","0","1","eng","24","","even","9499488","9480269","NA","NA","9500696","9499484","NA","8897015","9498993","8897015","8897015","9396453","9425165","9645736","9644228","9646572","9449320","9445858","9480269","NA","9323075","9353003","9478618","9445633","9499488","9445862","NA","9645736","9645736","NA","NA","9644224","NAP perception","51","47718","55","yes","1024"
"92.8571428571","yes","92.8571428571","865.696428571","865.696428571","white","no","xpyriment","Ich habe die obigen Informationen gelesen und verstanden.","legacy","legacy","0","uniform","1","0","0","undefined","undefined","1","j","2","1","NA","0","1","0","0","0","0","0","0","0","0","65","65","65","0","0","0","NA","0","0","2","0","0","0","2","65","65","65","65","65","Thu Oct 26 12:18:43 2017","Forced-choice identification task with a practice and an experimental phase","yes","NAP_GER_AA_4blocks_noglides.osexp","/Users/aviadalbert/Documents/Academisch/UoC/Dissertation/Experiment/OpenSesame/NAP-FC/NAP_GER_AA_4blocks_noglides","yes","no","sans","no","20","no","black","no","Weiter","yes","768","legacy","55","9","0","/Users/aviadalbert/Documents/Academisch/UoC/Dissertation/Experiment/OpenSesame/NAP-FC/NAP_GER_AA_4blocks_noglides/subject-24.csv","xpyriment","Jazzy James","3.1.9","yes","yes","59a800d99ad5a1025d81bb03","59a801616c613b0251691de0","no","no","0","j","f","space","NA","space","space","j","761","1207","18669","NA","28707","20399","761","2","legacy","1024","1","44100","-16","experiment","eʃfal","2","0","1","0","1","eng","24","","even","9499488","9480269","NA","NA","9500696","9499484","NA","8897015","9498993","8897015","8897015","9396453","9425165","9648389","9646884","9649152","9449320","9445858","9480269","NA","9323075","9353003","9478618","9445633","9499488","9445862","NA","9648389","9648389","NA","NA","9646880","NAP perception","52","48479","56","yes","1024"
