"acc","accept_status","accuracy","average_response_time","avg_rt","background","bidi","canvas_backend","checkbox_status","clock_backend","color_backend","compensation","coordinates","correct","correct_block_activation","correct_block_exit","correct_instructions_1","correct_instructions_2","correct_keyboard_response","correct_response","count_block_activation","count_block_exit","count_block_info_QA","count_cont_e_block_message","count_e_block_loop","count_e_block_sequence","count_end_of_experiment","count_experiment","count_experimental_loop","count_form_consent","count_info_forms","count_instructions_1","count_instructions_2","count_keyboard_response","count_listen_message","count_logger","count_p_block_loop","count_p_block_sequence","count_p_feedback","count_pause_feedback","count_personal_details_form_1","count_personal_details_form_2","count_post_loop_blank","count_practice_loop","count_pre_e_block_message","count_pre_p_block_message","count_reset_feedback","count_stimulus_image","count_stimulus_sound","count_timeout_message","count_timeout_sound","count_trial_sequence","datetime","description","disable_garbage_collection","experiment_file","experiment_path","expyriment_opengl","font_bold","font_family","font_italic","font_size","font_underline","foreground","form_clicks","form_response","fullscreen","height","keyboard_backend","live_row","live_row_p_block_loop","live_row_practice_loop","logfile","mouse_backend","opensesame_codename","opensesame_version","osf_always_upload_data","osf_always_upload_experiment","osf_datanode_id","osf_id","practice","pygame_doublebuf","repeat_cycle","response","response_block_activation","response_block_exit","response_block_info_QA","response_instructions_1","response_instructions_2","response_keyboard_response","response_time","response_time_block_activation","response_time_block_exit","response_time_block_info_QA","response_time_instructions_1","response_time_instructions_2","response_time_keyboard_response","round_decimals","sampler_backend","sound_buf_size","sound_channels","sound_freq","sound_sample_size","start","stimulus","subject_age","subject_education","subject_gender","subject_german_native","subject_handedness","subject_language_other","subject_nr","subject_other_native_lang","subject_parity","time_block_activation","time_block_exit","time_block_info_QA","time_cont_e_block_message","time_e_block_loop","time_e_block_sequence","time_end_of_experiment","time_experiment","time_experimental_loop","time_form_consent","time_info_forms","time_instructions_1","time_instructions_2","time_keyboard_response","time_listen_message","time_logger","time_p_block_loop","time_p_block_sequence","time_p_feedback","time_pause_feedback","time_personal_details_form_1","time_personal_details_form_2","time_post_loop_blank","time_practice_loop","time_pre_e_block_message","time_pre_p_block_message","time_reset_feedback","time_stimulus_image","time_stimulus_sound","time_timeout_message","time_timeout_sound","time_trial_sequence","title","total_correct","total_response_time","total_responses","uniform_coordinates","width"
"100","yes","100","1299","1299","white","no","xpyriment","Ich habe die obigen Informationen gelesen und verstanden.","legacy","legacy","0","uniform","1","0","NA","undefined","undefined","1","f","0","0","NA","NA","NA","NA","NA","0","0","0","0","0","0","0","0","0","0","0","NA","NA","0","0","0","0","NA","0","0","0","0","0","0","0","Wed Oct 25 10:23:09 2017","Forced-choice identification task with a practice and an experimental phase","yes","NAP_GER_AA_4blocks_noglides.osexp","/Users/aviadalbert/Documents/Academisch/UoC/Dissertation/Experiment/OpenSesame/NAP-FC/NAP_GER_AA_4blocks_noglides","yes","no","sans","no","20","no","black","no","Weiter","yes","768","legacy","0","0","0","/Users/aviadalbert/Documents/Academisch/UoC/Dissertation/Experiment/OpenSesame/NAP-FC/NAP_GER_AA_4blocks_noglides/subject-13.csv","xpyriment","Jazzy James","3.1.9","yes","yes","59a800d99ad5a1025d81bb03","59a801616c613b0251691de0","yes","no","0","f","f","NA","NA","space","space","f","1299","18259","NA","NA","29037","7892","1299","2","legacy","1024","1","44100","-16","experiment","flal","2","0","1","1","0","Englisch, Chinesisch","13","Polnisch","odd","2167718","NA","NA","NA","NA","NA","NA","1923505","NA","1923506","1923506","2130493","2159535","2187692","2186185","2188993","2185978","2167714","NA","NA","2051354","2119758","NA","2167495","NA","2167717","NA","2187692","2187692","NA","NA","2186181","NAP perception","1","1299","1","yes","1024"
"100","yes","100","1156.5","1156.5","white","no","xpyriment","Ich habe die obigen Informationen gelesen und verstanden.","legacy","legacy","0","uniform","1","0","NA","undefined","undefined","1","j","0","0","NA","NA","NA","NA","NA","0","0","0","0","0","0","1","1","1","0","0","NA","NA","0","0","0","0","NA","0","0","1","1","1","1","1","Wed Oct 25 10:23:09 2017","Forced-choice identification task with a practice and an experimental phase","yes","NAP_GER_AA_4blocks_noglides.osexp","/Users/aviadalbert/Documents/Academisch/UoC/Dissertation/Experiment/OpenSesame/NAP-FC/NAP_GER_AA_4blocks_noglides","yes","no","sans","no","20","no","black","no","Weiter","yes","768","legacy","1","1","0","/Users/aviadalbert/Documents/Academisch/UoC/Dissertation/Experiment/OpenSesame/NAP-FC/NAP_GER_AA_4blocks_noglides/subject-13.csv","xpyriment","Jazzy James","3.1.9","yes","yes","59a800d99ad5a1025d81bb03","59a801616c613b0251691de0","yes","no","0","j","f","NA","NA","space","space","j","1014","18259","NA","NA","29037","7892","1014","2","legacy","1024","1","44100","-16","experiment","lepal","2","0","1","1","0","Englisch, Chinesisch","13","Polnisch","odd","2167718","NA","NA","NA","NA","NA","NA","1923505","NA","1923506","1923506","2130493","2159535","2190778","2189273","2191793","2185978","2167714","NA","NA","2051354","2119758","NA","2167495","NA","2167717","NA","2190777","2190777","NA","NA","2189269","NAP perception","2","2313","2","yes","1024"
"100","yes","100","1082.33333333","1082.33333333","white","no","xpyriment","Ich habe die obigen Informationen gelesen und verstanden.","legacy","legacy","0","uniform","1","0","NA","undefined","undefined","1","j","0","0","NA","NA","NA","NA","NA","0","0","0","0","0","0","2","2","2","0","0","NA","NA","0","0","0","0","NA","0","0","2","2","2","2","2","Wed Oct 25 10:23:09 2017","Forced-choice identification task with a practice and an experimental phase","yes","NAP_GER_AA_4blocks_noglides.osexp","/Users/aviadalbert/Documents/Academisch/UoC/Dissertation/Experiment/OpenSesame/NAP-FC/NAP_GER_AA_4blocks_noglides","yes","no","sans","no","20","no","black","no","Weiter","yes","768","legacy","2","2","0","/Users/aviadalbert/Documents/Academisch/UoC/Dissertation/Experiment/OpenSesame/NAP-FC/NAP_GER_AA_4blocks_noglides/subject-13.csv","xpyriment","Jazzy James","3.1.9","yes","yes","59a800d99ad5a1025d81bb03","59a801616c613b0251691de0","yes","no","0","j","f","NA","NA","space","space","j","934","18259","NA","NA","29037","7892","934","2","legacy","1024","1","44100","-16","experiment","emtal","2","0","1","1","0","Englisch, Chinesisch","13","Polnisch","odd","2167718","NA","NA","NA","NA","NA","NA","1923505","NA","1923506","1923506","2130493","2159535","2193553","2192050","2194488","2185978","2167714","NA","NA","2051354","2119758","NA","2167495","NA","2167717","NA","2193553","2193553","NA","NA","2192046","NAP perception","3","3247","3","yes","1024"
"100","yes","100","1046","1046","white","no","xpyriment","Ich habe die obigen Informationen gelesen und verstanden.","legacy","legacy","0","uniform","1","0","NA","undefined","undefined","1","f","0","0","NA","NA","NA","NA","NA","0","0","0","0","0","0","3","3","3","0","0","NA","NA","0","0","0","0","NA","0","0","3","3","3","3","3","Wed Oct 25 10:23:09 2017","Forced-choice identification task with a practice and an experimental phase","yes","NAP_GER_AA_4blocks_noglides.osexp","/Users/aviadalbert/Documents/Academisch/UoC/Dissertation/Experiment/OpenSesame/NAP-FC/NAP_GER_AA_4blocks_noglides","yes","no","sans","no","20","no","black","no","Weiter","yes","768","legacy","3","3","0","/Users/aviadalbert/Documents/Academisch/UoC/Dissertation/Experiment/OpenSesame/NAP-FC/NAP_GER_AA_4blocks_noglides/subject-13.csv","xpyriment","Jazzy James","3.1.9","yes","yes","59a800d99ad5a1025d81bb03","59a801616c613b0251691de0","yes","no","0","f","f","NA","NA","space","space","f","937","18259","NA","NA","29037","7892","937","2","legacy","1024","1","44100","-16","experiment","ʃpal","2","0","1","1","0","Englisch, Chinesisch","13","Polnisch","odd","2167718","NA","NA","NA","NA","NA","NA","1923505","NA","1923506","1923506","2130493","2159535","2196261","2194757","2197199","2185978","2167714","NA","NA","2051354","2119758","NA","2167495","NA","2167717","NA","2196260","2196260","NA","NA","2194753","NAP perception","4","4184","4","yes","1024"
"100","yes","100","1023.4","1023.4","white","no","xpyriment","Ich habe die obigen Informationen gelesen und verstanden.","legacy","legacy","0","uniform","1","0","NA","undefined","undefined","1","j","0","0","NA","NA","NA","NA","NA","0","0","0","0","0","0","4","4","4","0","0","NA","NA","0","0","0","0","NA","0","0","4","4","4","4","4","Wed Oct 25 10:23:09 2017","Forced-choice identification task with a practice and an experimental phase","yes","NAP_GER_AA_4blocks_noglides.osexp","/Users/aviadalbert/Documents/Academisch/UoC/Dissertation/Experiment/OpenSesame/NAP-FC/NAP_GER_AA_4blocks_noglides","yes","no","sans","no","20","no","black","no","Weiter","yes","768","legacy","4","4","0","/Users/aviadalbert/Documents/Academisch/UoC/Dissertation/Experiment/OpenSesame/NAP-FC/NAP_GER_AA_4blocks_noglides/subject-13.csv","xpyriment","Jazzy James","3.1.9","yes","yes","59a800d99ad5a1025d81bb03","59a801616c613b0251691de0","yes","no","0","j","f","NA","NA","space","space","j","933","18259","NA","NA","29037","7892","933","2","legacy","1024","1","44100","-16","experiment","nefal","2","0","1","1","0","Englisch, Chinesisch","13","Polnisch","odd","2167718","NA","NA","NA","NA","NA","NA","1923505","NA","1923506","1923506","2130493","2159535","2198990","2197485","2199924","2185978","2167714","NA","NA","2051354","2119758","NA","2167495","NA","2167717","NA","2198990","2198990","NA","NA","2197481","NAP perception","5","5117","5","yes","1024"
"100","yes","100","1015","1015","white","no","xpyriment","Ich habe die obigen Informationen gelesen und verstanden.","legacy","legacy","0","uniform","1","0","NA","undefined","undefined","1","f","0","0","NA","NA","NA","NA","NA","0","0","0","0","0","0","5","5","5","0","0","NA","NA","0","0","0","0","NA","0","0","5","5","5","5","5","Wed Oct 25 10:23:09 2017","Forced-choice identification task with a practice and an experimental phase","yes","NAP_GER_AA_4blocks_noglides.osexp","/Users/aviadalbert/Documents/Academisch/UoC/Dissertation/Experiment/OpenSesame/NAP-FC/NAP_GER_AA_4blocks_noglides","yes","no","sans","no","20","no","black","no","Weiter","yes","768","legacy","5","5","0","/Users/aviadalbert/Documents/Academisch/UoC/Dissertation/Experiment/OpenSesame/NAP-FC/NAP_GER_AA_4blocks_noglides/subject-13.csv","xpyriment","Jazzy James","3.1.9","yes","yes","59a800d99ad5a1025d81bb03","59a801616c613b0251691de0","yes","no","0","f","f","NA","NA","space","space","f","973","18259","NA","NA","29037","7892","973","2","legacy","1024","1","44100","-16","experiment","sfal","2","0","1","1","0","Englisch, Chinesisch","13","Polnisch","odd","2167718","NA","NA","NA","NA","NA","NA","1923505","NA","1923506","1923506","2130493","2159535","2201711","2200203","2202685","2185978","2167714","NA","NA","2051354","2119758","NA","2167495","NA","2167717","NA","2201711","2201711","NA","NA","2200199","NAP perception","6","6090","6","yes","1024"
"100","yes","100","999","999","white","no","xpyriment","Ich habe die obigen Informationen gelesen und verstanden.","legacy","legacy","0","uniform","1","0","NA","undefined","undefined","1","f","0","0","NA","NA","NA","NA","NA","0","0","0","0","0","0","6","6","6","0","0","NA","NA","0","0","0","0","NA","0","0","6","6","6","6","6","Wed Oct 25 10:23:09 2017","Forced-choice identification task with a practice and an experimental phase","yes","NAP_GER_AA_4blocks_noglides.osexp","/Users/aviadalbert/Documents/Academisch/UoC/Dissertation/Experiment/OpenSesame/NAP-FC/NAP_GER_AA_4blocks_noglides","yes","no","sans","no","20","no","black","no","Weiter","yes","768","legacy","6","6","0","/Users/aviadalbert/Documents/Academisch/UoC/Dissertation/Experiment/OpenSesame/NAP-FC/NAP_GER_AA_4blocks_noglides/subject-13.csv","xpyriment","Jazzy James","3.1.9","yes","yes","59a800d99ad5a1025d81bb03","59a801616c613b0251691de0","yes","no","0","f","f","NA","NA","space","space","f","903","18259","NA","NA","29037","7892","903","2","legacy","1024","1","44100","-16","experiment","zmal","2","0","1","1","0","Englisch, Chinesisch","13","Polnisch","odd","2167718","NA","NA","NA","NA","NA","NA","1923505","NA","1923506","1923506","2130493","2159535","2204469","2202966","2205373","2185978","2167714","NA","NA","2051354","2119758","NA","2167495","NA","2167717","NA","2204469","2204469","NA","NA","2202962","NAP perception","7","6993","7","yes","1024"
"100","yes","100","995.5","995.5","white","no","xpyriment","Ich habe die obigen Informationen gelesen und verstanden.","legacy","legacy","0","uniform","1","0","NA","undefined","undefined","1","j","0","0","NA","NA","NA","NA","NA","0","0","0","0","0","0","7","7","7","0","0","NA","NA","0","0","0","0","NA","0","0","7","7","7","7","7","Wed Oct 25 10:23:09 2017","Forced-choice identification task with a practice and an experimental phase","yes","NAP_GER_AA_4blocks_noglides.osexp","/Users/aviadalbert/Documents/Academisch/UoC/Dissertation/Experiment/OpenSesame/NAP-FC/NAP_GER_AA_4blocks_noglides","yes","no","sans","no","20","no","black","no","Weiter","yes","768","legacy","7","7","0","/Users/aviadalbert/Documents/Academisch/UoC/Dissertation/Experiment/OpenSesame/NAP-FC/NAP_GER_AA_4blocks_noglides/subject-13.csv","xpyriment","Jazzy James","3.1.9","yes","yes","59a800d99ad5a1025d81bb03","59a801616c613b0251691de0","yes","no","0","j","f","NA","NA","space","space","j","971","18259","NA","NA","29037","7892","971","2","legacy","1024","1","44100","-16","experiment","mesal","2","0","1","1","0","Englisch, Chinesisch","13","Polnisch","odd","2167718","NA","NA","NA","NA","NA","NA","1923505","NA","1923506","1923506","2130493","2159535","2207151","2205648","2208123","2185978","2167714","NA","NA","2051354","2119758","NA","2167495","NA","2167717","NA","2207151","2207151","NA","NA","2205644","NAP perception","8","7964","8","yes","1024"
"100","yes","100","996.555555556","996.555555556","white","no","xpyriment","Ich habe die obigen Informationen gelesen und verstanden.","legacy","legacy","0","uniform","1","0","NA","undefined","undefined","1","j","0","0","NA","NA","NA","NA","NA","0","0","0","0","0","0","8","8","8","0","0","NA","NA","0","0","0","0","NA","0","0","8","8","8","8","8","Wed Oct 25 10:23:09 2017","Forced-choice identification task with a practice and an experimental phase","yes","NAP_GER_AA_4blocks_noglides.osexp","/Users/aviadalbert/Documents/Academisch/UoC/Dissertation/Experiment/OpenSesame/NAP-FC/NAP_GER_AA_4blocks_noglides","yes","no","sans","no","20","no","black","no","Weiter","yes","768","legacy","8","8","0","/Users/aviadalbert/Documents/Academisch/UoC/Dissertation/Experiment/OpenSesame/NAP-FC/NAP_GER_AA_4blocks_noglides/subject-13.csv","xpyriment","Jazzy James","3.1.9","yes","yes","59a800d99ad5a1025d81bb03","59a801616c613b0251691de0","yes","no","0","j","f","NA","NA","space","space","j","1005","18259","NA","NA","29037","7892","1005","2","legacy","1024","1","44100","-16","experiment","enval","2","0","1","1","0","Englisch, Chinesisch","13","Polnisch","odd","2167718","NA","NA","NA","NA","NA","NA","1923505","NA","1923506","1923506","2130493","2159535","2209893","2208388","2210900","2185978","2167714","NA","NA","2051354","2119758","NA","2167495","NA","2167717","NA","2209893","2209893","NA","NA","2208384","NAP perception","9","8969","9","yes","1024"
"100","yes","100","985.8","985.8","white","no","xpyriment","Ich habe die obigen Informationen gelesen und verstanden.","legacy","legacy","0","uniform","1","0","NA","undefined","undefined","1","f","0","0","NA","NA","NA","NA","NA","0","0","0","0","0","0","9","9","9","0","0","NA","NA","0","0","0","0","NA","0","0","9","9","9","9","9","Wed Oct 25 10:23:09 2017","Forced-choice identification task with a practice and an experimental phase","yes","NAP_GER_AA_4blocks_noglides.osexp","/Users/aviadalbert/Documents/Academisch/UoC/Dissertation/Experiment/OpenSesame/NAP-FC/NAP_GER_AA_4blocks_noglides","yes","no","sans","no","20","no","black","no","Weiter","yes","768","legacy","9","9","0","/Users/aviadalbert/Documents/Academisch/UoC/Dissertation/Experiment/OpenSesame/NAP-FC/NAP_GER_AA_4blocks_noglides/subject-13.csv","xpyriment","Jazzy James","3.1.9","yes","yes","59a800d99ad5a1025d81bb03","59a801616c613b0251691de0","yes","no","0","f","f","NA","NA","space","space","f","889","18259","NA","NA","29037","7892","889","2","legacy","1024","1","44100","-16","experiment","vlal","2","0","1","1","0","Englisch, Chinesisch","13","Polnisch","odd","2167718","NA","NA","NA","NA","NA","NA","1923505","NA","1923506","1923506","2130493","2159535","2212686","2211178","2213576","2185978","2167714","NA","NA","2051354","2119758","NA","2167495","NA","2167717","NA","2212685","2212686","NA","NA","2211175","NAP perception","10","9858","10","yes","1024"
"0","yes","0","2231","2231","white","no","xpyriment","Ich habe die obigen Informationen gelesen und verstanden.","legacy","legacy","0","uniform","0","0","0","undefined","undefined","0","j","2","1","NA","0","1","0","0","0","0","0","0","0","0","10","10","10","0","0","0","NA","0","0","2","0","0","0","2","10","10","10","10","10","Wed Oct 25 10:23:09 2017","Forced-choice identification task with a practice and an experimental phase","yes","NAP_GER_AA_4blocks_noglides.osexp","/Users/aviadalbert/Documents/Academisch/UoC/Dissertation/Experiment/OpenSesame/NAP-FC/NAP_GER_AA_4blocks_noglides","yes","no","sans","no","20","no","black","no","Weiter","yes","768","legacy","0","9","0","/Users/aviadalbert/Documents/Academisch/UoC/Dissertation/Experiment/OpenSesame/NAP-FC/NAP_GER_AA_4blocks_noglides/subject-13.csv","xpyriment","Jazzy James","3.1.9","yes","yes","59a800d99ad5a1025d81bb03","59a801616c613b0251691de0","no","no","0","f","f","space","NA","space","space","f","2231","2537","21032","NA","29037","7892","2231","2","legacy","1024","1","44100","-16","experiment","eʃpal","2","0","1","1","0","Englisch, Chinesisch","13","Polnisch","odd","2236859","2215292","NA","NA","2239397","2236855","NA","1923505","2236381","1923506","1923506","2130493","2159535","2241120","2239614","2243352","2185978","2167714","2215292","NA","2051354","2119758","2213638","2167495","2236859","2167717","NA","2241120","2241120","NA","NA","2239611","NAP perception","0","2231","1","yes","1024"
"50","yes","50","1739.5","1739.5","white","no","xpyriment","Ich habe die obigen Informationen gelesen und verstanden.","legacy","legacy","0","uniform","1","0","0","undefined","undefined","1","j","2","1","NA","0","1","0","0","0","0","0","0","0","0","11","11","11","0","0","0","NA","0","0","2","0","0","0","2","11","11","11","11","11","Wed Oct 25 10:23:09 2017","Forced-choice identification task with a practice and an experimental phase","yes","NAP_GER_AA_4blocks_noglides.osexp","/Users/aviadalbert/Documents/Academisch/UoC/Dissertation/Experiment/OpenSesame/NAP-FC/NAP_GER_AA_4blocks_noglides","yes","no","sans","no","20","no","black","no","Weiter","yes","768","legacy","1","9","0","/Users/aviadalbert/Documents/Academisch/UoC/Dissertation/Experiment/OpenSesame/NAP-FC/NAP_GER_AA_4blocks_noglides/subject-13.csv","xpyriment","Jazzy James","3.1.9","yes","yes","59a800d99ad5a1025d81bb03","59a801616c613b0251691de0","no","no","0","j","f","space","NA","space","space","j","1248","2537","21032","NA","29037","7892","1248","2","legacy","1024","1","44100","-16","experiment","lefal","2","0","1","1","0","Englisch, Chinesisch","13","Polnisch","odd","2236859","2215292","NA","NA","2239397","2236855","NA","1923505","2236381","1923506","1923506","2130493","2159535","2245129","2243626","2246378","2185978","2167714","2215292","NA","2051354","2119758","2213638","2167495","2236859","2167717","NA","2245129","2245129","NA","NA","2243622","NAP perception","1","3479","2","yes","1024"
"66.6666666667","yes","66.6666666667","1478.33333333","1478.33333333","white","no","xpyriment","Ich habe die obigen Informationen gelesen und verstanden.","legacy","legacy","0","uniform","1","0","0","undefined","undefined","1","f","2","1","NA","0","1","0","0","0","0","0","0","0","0","12","12","12","0","0","0","NA","0","0","2","0","0","0","2","12","12","12","12","12","Wed Oct 25 10:23:09 2017","Forced-choice identification task with a practice and an experimental phase","yes","NAP_GER_AA_4blocks_noglides.osexp","/Users/aviadalbert/Documents/Academisch/UoC/Dissertation/Experiment/OpenSesame/NAP-FC/NAP_GER_AA_4blocks_noglides","yes","no","sans","no","20","no","black","no","Weiter","yes","768","legacy","2","9","0","/Users/aviadalbert/Documents/Academisch/UoC/Dissertation/Experiment/OpenSesame/NAP-FC/NAP_GER_AA_4blocks_noglides/subject-13.csv","xpyriment","Jazzy James","3.1.9","yes","yes","59a800d99ad5a1025d81bb03","59a801616c613b0251691de0","no","no","0","f","f","space","NA","space","space","f","956","2537","21032","NA","29037","7892","956","2","legacy","1024","1","44100","-16","experiment","npal","2","0","1","1","0","Englisch, Chinesisch","13","Polnisch","odd","2236859","2215292","NA","NA","2239397","2236855","NA","1923505","2236381","1923506","1923506","2130493","2159535","2248144","2246641","2249101","2185978","2167714","2215292","NA","2051354","2119758","2213638","2167495","2236859","2167717","NA","2248144","2248144","NA","NA","2246637","NAP perception","2","4435","3","yes","1024"
"75","yes","75","1372.25","1372.25","white","no","xpyriment","Ich habe die obigen Informationen gelesen und verstanden.","legacy","legacy","0","uniform","1","0","0","undefined","undefined","1","j","2","1","NA","0","1","0","0","0","0","0","0","0","0","13","13","13","0","0","0","NA","0","0","2","0","0","0","2","13","13","13","13","13","Wed Oct 25 10:23:09 2017","Forced-choice identification task with a practice and an experimental phase","yes","NAP_GER_AA_4blocks_noglides.osexp","/Users/aviadalbert/Documents/Academisch/UoC/Dissertation/Experiment/OpenSesame/NAP-FC/NAP_GER_AA_4blocks_noglides","yes","no","sans","no","20","no","black","no","Weiter","yes","768","legacy","3","9","0","/Users/aviadalbert/Documents/Academisch/UoC/Dissertation/Experiment/OpenSesame/NAP-FC/NAP_GER_AA_4blocks_noglides/subject-13.csv","xpyriment","Jazzy James","3.1.9","yes","yes","59a800d99ad5a1025d81bb03","59a801616c613b0251691de0","no","no","0","j","f","space","NA","space","space","j","1054","2537","21032","NA","29037","7892","1054","2","legacy","1024","1","44100","-16","experiment","enpal","2","0","1","1","0","Englisch, Chinesisch","13","Polnisch","odd","2236859","2215292","NA","NA","2239397","2236855","NA","1923505","2236381","1923506","1923506","2130493","2159535","2250879","2249374","2251934","2185978","2167714","2215292","NA","2051354","2119758","2213638","2167495","2236859","2167717","NA","2250879","2250879","NA","NA","2249370","NAP perception","3","5489","4","yes","1024"
"80","yes","80","1264.8","1264.8","white","no","xpyriment","Ich habe die obigen Informationen gelesen und verstanden.","legacy","legacy","0","uniform","1","0","0","undefined","undefined","1","f","2","1","NA","0","1","0","0","0","0","0","0","0","0","14","14","14","0","0","0","NA","0","0","2","0","0","0","2","14","14","14","14","14","Wed Oct 25 10:23:09 2017","Forced-choice identification task with a practice and an experimental phase","yes","NAP_GER_AA_4blocks_noglides.osexp","/Users/aviadalbert/Documents/Academisch/UoC/Dissertation/Experiment/OpenSesame/NAP-FC/NAP_GER_AA_4blocks_noglides","yes","no","sans","no","20","no","black","no","Weiter","yes","768","legacy","4","9","0","/Users/aviadalbert/Documents/Academisch/UoC/Dissertation/Experiment/OpenSesame/NAP-FC/NAP_GER_AA_4blocks_noglides/subject-13.csv","xpyriment","Jazzy James","3.1.9","yes","yes","59a800d99ad5a1025d81bb03","59a801616c613b0251691de0","no","no","0","f","f","space","NA","space","space","f","835","2537","21032","NA","29037","7892","835","2","legacy","1024","1","44100","-16","experiment","mnal","2","0","1","1","0","Englisch, Chinesisch","13","Polnisch","odd","2236859","2215292","NA","NA","2239397","2236855","NA","1923505","2236381","1923506","1923506","2130493","2159535","2253718","2252213","2254554","2185978","2167714","2215292","NA","2051354","2119758","2213638","2167495","2236859","2167717","NA","2253717","2253717","NA","NA","2252209","NAP perception","4","6324","5","yes","1024"
"83.3333333333","yes","83.3333333333","1179.5","1179.5","white","no","xpyriment","Ich habe die obigen Informationen gelesen und verstanden.","legacy","legacy","0","uniform","1","0","0","undefined","undefined","1","f","2","1","NA","0","1","0","0","0","0","0","0","0","0","15","15","15","0","0","0","NA","0","0","2","0","0","0","2","15","15","15","15","15","Wed Oct 25 10:23:09 2017","Forced-choice identification task with a practice and an experimental phase","yes","NAP_GER_AA_4blocks_noglides.osexp","/Users/aviadalbert/Documents/Academisch/UoC/Dissertation/Experiment/OpenSesame/NAP-FC/NAP_GER_AA_4blocks_noglides","yes","no","sans","no","20","no","black","no","Weiter","yes","768","legacy","5","9","0","/Users/aviadalbert/Documents/Academisch/UoC/Dissertation/Experiment/OpenSesame/NAP-FC/NAP_GER_AA_4blocks_noglides/subject-13.csv","xpyriment","Jazzy James","3.1.9","yes","yes","59a800d99ad5a1025d81bb03","59a801616c613b0251691de0","no","no","0","f","f","space","NA","space","space","f","753","2537","21032","NA","29037","7892","753","2","legacy","1024","1","44100","-16","experiment","flal","2","0","1","1","0","Englisch, Chinesisch","13","Polnisch","odd","2236859","2215292","NA","NA","2239397","2236855","NA","1923505","2236381","1923506","1923506","2130493","2159535","2256347","2254844","2257102","2185978","2167714","2215292","NA","2051354","2119758","2213638","2167495","2236859","2167717","NA","2256347","2256347","NA","NA","2254840","NAP perception","5","7077","6","yes","1024"
"85.7142857143","yes","85.7142857143","1176.71428571","1176.71428571","white","no","xpyriment","Ich habe die obigen Informationen gelesen und verstanden.","legacy","legacy","0","uniform","1","0","0","undefined","undefined","1","f","2","1","NA","0","1","0","0","0","0","0","0","0","0","16","16","16","0","0","0","NA","0","0","2","0","0","0","2","16","16","16","16","16","Wed Oct 25 10:23:09 2017","Forced-choice identification task with a practice and an experimental phase","yes","NAP_GER_AA_4blocks_noglides.osexp","/Users/aviadalbert/Documents/Academisch/UoC/Dissertation/Experiment/OpenSesame/NAP-FC/NAP_GER_AA_4blocks_noglides","yes","no","sans","no","20","no","black","no","Weiter","yes","768","legacy","6","9","0","/Users/aviadalbert/Documents/Academisch/UoC/Dissertation/Experiment/OpenSesame/NAP-FC/NAP_GER_AA_4blocks_noglides/subject-13.csv","xpyriment","Jazzy James","3.1.9","yes","yes","59a800d99ad5a1025d81bb03","59a801616c613b0251691de0","no","no","0","f","f","space","NA","space","space","f","1160","2537","21032","NA","29037","7892","1160","2","legacy","1024","1","44100","-16","experiment","nfal","2","0","1","1","0","Englisch, Chinesisch","13","Polnisch","odd","2236859","2215292","NA","NA","2239397","2236855","NA","1923505","2236381","1923506","1923506","2130493","2159535","2258885","2257377","2260046","2185978","2167714","2215292","NA","2051354","2119758","2213638","2167495","2236859","2167717","NA","2258884","2258884","NA","NA","2257373","NAP perception","6","8237","7","yes","1024"
"87.5","yes","87.5","1120.375","1120.375","white","no","xpyriment","Ich habe die obigen Informationen gelesen und verstanden.","legacy","legacy","0","uniform","1","0","0","undefined","undefined","1","j","2","1","NA","0","1","0","0","0","0","0","0","0","0","17","17","17","0","0","0","NA","0","0","2","0","0","0","2","17","17","17","17","17","Wed Oct 25 10:23:09 2017","Forced-choice identification task with a practice and an experimental phase","yes","NAP_GER_AA_4blocks_noglides.osexp","/Users/aviadalbert/Documents/Academisch/UoC/Dissertation/Experiment/OpenSesame/NAP-FC/NAP_GER_AA_4blocks_noglides","yes","no","sans","no","20","no","black","no","Weiter","yes","768","legacy","7","9","0","/Users/aviadalbert/Documents/Academisch/UoC/Dissertation/Experiment/OpenSesame/NAP-FC/NAP_GER_AA_4blocks_noglides/subject-13.csv","xpyriment","Jazzy James","3.1.9","yes","yes","59a800d99ad5a1025d81bb03","59a801616c613b0251691de0","no","no","0","j","f","space","NA","space","space","j","726","2537","21032","NA","29037","7892","726","2","legacy","1024","1","44100","-16","experiment","lekal","2","0","1","1","0","Englisch, Chinesisch","13","Polnisch","odd","2236859","2215292","NA","NA","2239397","2236855","NA","1923505","2236381","1923506","1923506","2130493","2159535","2261839","2260335","2262566","2185978","2167714","2215292","NA","2051354","2119758","2213638","2167495","2236859","2167717","NA","2261839","2261839","NA","NA","2260331","NAP perception","7","8963","8","yes","1024"
"88.8888888889","yes","88.8888888889","1087.66666667","1087.66666667","white","no","xpyriment","Ich habe die obigen Informationen gelesen und verstanden.","legacy","legacy","0","uniform","1","0","0","undefined","undefined","1","j","2","1","NA","0","1","0","0","0","0","0","0","0","0","18","18","18","0","0","0","NA","0","0","2","0","0","0","2","18","18","18","18","18","Wed Oct 25 10:23:09 2017","Forced-choice identification task with a practice and an experimental phase","yes","NAP_GER_AA_4blocks_noglides.osexp","/Users/aviadalbert/Documents/Academisch/UoC/Dissertation/Experiment/OpenSesame/NAP-FC/NAP_GER_AA_4blocks_noglides","yes","no","sans","no","20","no","black","no","Weiter","yes","768","legacy","8","9","0","/Users/aviadalbert/Documents/Academisch/UoC/Dissertation/Experiment/OpenSesame/NAP-FC/NAP_GER_AA_4blocks_noglides/subject-13.csv","xpyriment","Jazzy James","3.1.9","yes","yes","59a800d99ad5a1025d81bb03","59a801616c613b0251691de0","no","no","0","j","f","space","NA","space","space","j","826","2537","21032","NA","29037","7892","826","2","legacy","1024","1","44100","-16","experiment","fetal","2","0","1","1","0","Englisch, Chinesisch","13","Polnisch","odd","2236859","2215292","NA","NA","2239397","2236855","NA","1923505","2236381","1923506","1923506","2130493","2159535","2264344","2262841","2265171","2185978","2167714","2215292","NA","2051354","2119758","2213638","2167495","2236859","2167717","NA","2264344","2264344","NA","NA","2262836","NAP perception","8","9789","9","yes","1024"
"90","yes","90","1064.2","1064.2","white","no","xpyriment","Ich habe die obigen Informationen gelesen und verstanden.","legacy","legacy","0","uniform","1","0","0","undefined","undefined","1","f","2","1","NA","0","1","0","0","0","0","0","0","0","0","19","19","19","0","0","0","NA","0","0","2","0","0","0","2","19","19","19","19","19","Wed Oct 25 10:23:09 2017","Forced-choice identification task with a practice and an experimental phase","yes","NAP_GER_AA_4blocks_noglides.osexp","/Users/aviadalbert/Documents/Academisch/UoC/Dissertation/Experiment/OpenSesame/NAP-FC/NAP_GER_AA_4blocks_noglides","yes","no","sans","no","20","no","black","no","Weiter","yes","768","legacy","9","9","0","/Users/aviadalbert/Documents/Academisch/UoC/Dissertation/Experiment/OpenSesame/NAP-FC/NAP_GER_AA_4blocks_noglides/subject-13.csv","xpyriment","Jazzy James","3.1.9","yes","yes","59a800d99ad5a1025d81bb03","59a801616c613b0251691de0","no","no","0","f","f","space","NA","space","space","f","853","2537","21032","NA","29037","7892","853","2","legacy","1024","1","44100","-16","experiment","msal","2","0","1","1","0","Englisch, Chinesisch","13","Polnisch","odd","2236859","2215292","NA","NA","2239397","2236855","NA","1923505","2236381","1923506","1923506","2130493","2159535","2266955","2265448","2267809","2185978","2167714","2215292","NA","2051354","2119758","2213638","2167495","2236859","2167717","NA","2266954","2266954","NA","NA","2265444","NAP perception","9","10642","10","yes","1024"
"90.9090909091","yes","90.9090909091","1050.72727273","1050.72727273","white","no","xpyriment","Ich habe die obigen Informationen gelesen und verstanden.","legacy","legacy","0","uniform","1","0","0","undefined","undefined","1","j","2","1","NA","0","1","0","0","0","0","0","0","0","0","20","20","20","0","0","0","NA","0","0","2","0","0","0","2","20","20","20","20","20","Wed Oct 25 10:23:09 2017","Forced-choice identification task with a practice and an experimental phase","yes","NAP_GER_AA_4blocks_noglides.osexp","/Users/aviadalbert/Documents/Academisch/UoC/Dissertation/Experiment/OpenSesame/NAP-FC/NAP_GER_AA_4blocks_noglides","yes","no","sans","no","20","no","black","no","Weiter","yes","768","legacy","10","9","0","/Users/aviadalbert/Documents/Academisch/UoC/Dissertation/Experiment/OpenSesame/NAP-FC/NAP_GER_AA_4blocks_noglides/subject-13.csv","xpyriment","Jazzy James","3.1.9","yes","yes","59a800d99ad5a1025d81bb03","59a801616c613b0251691de0","no","no","0","j","f","space","NA","space","space","j","916","2537","21032","NA","29037","7892","916","2","legacy","1024","1","44100","-16","experiment","metal","2","0","1","1","0","Englisch, Chinesisch","13","Polnisch","odd","2236859","2215292","NA","NA","2239397","2236855","NA","1923505","2236381","1923506","1923506","2130493","2159535","2269590","2268083","2270507","2185978","2167714","2215292","NA","2051354","2119758","2213638","2167495","2236859","2167717","NA","2269589","2269589","NA","NA","2268079","NAP perception","10","11558","11","yes","1024"
"91.6666666667","yes","91.6666666667","1033.58333333","1033.58333333","white","no","xpyriment","Ich habe die obigen Informationen gelesen und verstanden.","legacy","legacy","0","uniform","1","0","0","undefined","undefined","1","f","2","1","NA","0","1","0","0","0","0","0","0","0","0","21","21","21","0","0","0","NA","0","0","2","0","0","0","2","21","21","21","21","21","Wed Oct 25 10:23:09 2017","Forced-choice identification task with a practice and an experimental phase","yes","NAP_GER_AA_4blocks_noglides.osexp","/Users/aviadalbert/Documents/Academisch/UoC/Dissertation/Experiment/OpenSesame/NAP-FC/NAP_GER_AA_4blocks_noglides","yes","no","sans","no","20","no","black","no","Weiter","yes","768","legacy","11","9","0","/Users/aviadalbert/Documents/Academisch/UoC/Dissertation/Experiment/OpenSesame/NAP-FC/NAP_GER_AA_4blocks_noglides/subject-13.csv","xpyriment","Jazzy James","3.1.9","yes","yes","59a800d99ad5a1025d81bb03","59a801616c613b0251691de0","no","no","0","f","f","space","NA","space","space","f","845","2537","21032","NA","29037","7892","845","2","legacy","1024","1","44100","-16","experiment","ʃmal","2","0","1","1","0","Englisch, Chinesisch","13","Polnisch","odd","2236859","2215292","NA","NA","2239397","2236855","NA","1923505","2236381","1923506","1923506","2130493","2159535","2272290","2270784","2273136","2185978","2167714","2215292","NA","2051354","2119758","2213638","2167495","2236859","2167717","NA","2272290","2272290","NA","NA","2270780","NAP perception","11","12403","12","yes","1024"
"92.3076923077","yes","92.3076923077","1019.92307692","1019.92307692","white","no","xpyriment","Ich habe die obigen Informationen gelesen und verstanden.","legacy","legacy","0","uniform","1","0","0","undefined","undefined","1","j","2","1","NA","0","1","0","0","0","0","0","0","0","0","22","22","22","0","0","0","NA","0","0","2","0","0","0","2","22","22","22","22","22","Wed Oct 25 10:23:09 2017","Forced-choice identification task with a practice and an experimental phase","yes","NAP_GER_AA_4blocks_noglides.osexp","/Users/aviadalbert/Documents/Academisch/UoC/Dissertation/Experiment/OpenSesame/NAP-FC/NAP_GER_AA_4blocks_noglides","yes","no","sans","no","20","no","black","no","Weiter","yes","768","legacy","12","9","0","/Users/aviadalbert/Documents/Academisch/UoC/Dissertation/Experiment/OpenSesame/NAP-FC/NAP_GER_AA_4blocks_noglides/subject-13.csv","xpyriment","Jazzy James","3.1.9","yes","yes","59a800d99ad5a1025d81bb03","59a801616c613b0251691de0","no","no","0","j","f","space","NA","space","space","j","856","2537","21032","NA","29037","7892","856","2","legacy","1024","1","44100","-16","experiment","ʃemal","2","0","1","1","0","Englisch, Chinesisch","13","Polnisch","odd","2236859","2215292","NA","NA","2239397","2236855","NA","1923505","2236381","1923506","1923506","2130493","2159535","2274922","2273417","2275779","2185978","2167714","2215292","NA","2051354","2119758","2213638","2167495","2236859","2167717","NA","2274921","2274922","NA","NA","2273414","NAP perception","12","13259","13","yes","1024"
"92.8571428571","yes","92.8571428571","1005.5","1005.5","white","no","xpyriment","Ich habe die obigen Informationen gelesen und verstanden.","legacy","legacy","0","uniform","1","0","0","undefined","undefined","1","f","2","1","NA","0","1","0","0","0","0","0","0","0","0","23","23","23","0","0","0","NA","0","0","2","0","0","0","2","23","23","23","23","23","Wed Oct 25 10:23:09 2017","Forced-choice identification task with a practice and an experimental phase","yes","NAP_GER_AA_4blocks_noglides.osexp","/Users/aviadalbert/Documents/Academisch/UoC/Dissertation/Experiment/OpenSesame/NAP-FC/NAP_GER_AA_4blocks_noglides","yes","no","sans","no","20","no","black","no","Weiter","yes","768","legacy","13","9","0","/Users/aviadalbert/Documents/Academisch/UoC/Dissertation/Experiment/OpenSesame/NAP-FC/NAP_GER_AA_4blocks_noglides/subject-13.csv","xpyriment","Jazzy James","3.1.9","yes","yes","59a800d99ad5a1025d81bb03","59a801616c613b0251691de0","no","no","0","f","f","space","NA","space","space","f","818","2537","21032","NA","29037","7892","818","2","legacy","1024","1","44100","-16","experiment","fnal","2","0","1","1","0","Englisch, Chinesisch","13","Polnisch","odd","2236859","2215292","NA","NA","2239397","2236855","NA","1923505","2236381","1923506","1923506","2130493","2159535","2277566","2276061","2278385","2185978","2167714","2215292","NA","2051354","2119758","2213638","2167495","2236859","2167717","NA","2277566","2277566","NA","NA","2276057","NAP perception","13","14077","14","yes","1024"
"93.3333333333","yes","93.3333333333","1002.86666667","1002.86666667","white","no","xpyriment","Ich habe die obigen Informationen gelesen und verstanden.","legacy","legacy","0","uniform","1","0","0","undefined","undefined","1","f","2","1","NA","0","1","0","0","0","0","0","0","0","0","24","24","24","0","0","0","NA","0","0","2","0","0","0","2","24","24","24","24","24","Wed Oct 25 10:23:09 2017","Forced-choice identification task with a practice and an experimental phase","yes","NAP_GER_AA_4blocks_noglides.osexp","/Users/aviadalbert/Documents/Academisch/UoC/Dissertation/Experiment/OpenSesame/NAP-FC/NAP_GER_AA_4blocks_noglides","yes","no","sans","no","20","no","black","no","Weiter","yes","768","legacy","14","9","0","/Users/aviadalbert/Documents/Academisch/UoC/Dissertation/Experiment/OpenSesame/NAP-FC/NAP_GER_AA_4blocks_noglides/subject-13.csv","xpyriment","Jazzy James","3.1.9","yes","yes","59a800d99ad5a1025d81bb03","59a801616c613b0251691de0","no","no","0","f","f","space","NA","space","space","f","966","2537","21032","NA","29037","7892","966","2","legacy","1024","1","44100","-16","experiment","vnal","2","0","1","1","0","Englisch, Chinesisch","13","Polnisch","odd","2236859","2215292","NA","NA","2239397","2236855","NA","1923505","2236381","1923506","1923506","2130493","2159535","2280165","2278659","2281132","2185978","2167714","2215292","NA","2051354","2119758","2213638","2167495","2236859","2167717","NA","2280165","2280165","NA","NA","2278655","NAP perception","14","15043","15","yes","1024"
"93.75","yes","93.75","997.875","997.875","white","no","xpyriment","Ich habe die obigen Informationen gelesen und verstanden.","legacy","legacy","0","uniform","1","0","0","undefined","undefined","1","j","2","1","NA","0","1","0","0","0","0","0","0","0","0","25","25","25","0","0","0","NA","0","0","2","0","0","0","2","25","25","25","25","25","Wed Oct 25 10:23:09 2017","Forced-choice identification task with a practice and an experimental phase","yes","NAP_GER_AA_4blocks_noglides.osexp","/Users/aviadalbert/Documents/Academisch/UoC/Dissertation/Experiment/OpenSesame/NAP-FC/NAP_GER_AA_4blocks_noglides","yes","no","sans","no","20","no","black","no","Weiter","yes","768","legacy","15","9","0","/Users/aviadalbert/Documents/Academisch/UoC/Dissertation/Experiment/OpenSesame/NAP-FC/NAP_GER_AA_4blocks_noglides/subject-13.csv","xpyriment","Jazzy James","3.1.9","yes","yes","59a800d99ad5a1025d81bb03","59a801616c613b0251691de0","no","no","0","j","f","space","NA","space","space","j","923","2537","21032","NA","29037","7892","923","2","legacy","1024","1","44100","-16","experiment","felal","2","0","1","1","0","Englisch, Chinesisch","13","Polnisch","odd","2236859","2215292","NA","NA","2239397","2236855","NA","1923505","2236381","1923506","1923506","2130493","2159535","2282910","2281406","2283834","2185978","2167714","2215292","NA","2051354","2119758","2213638","2167495","2236859","2167717","NA","2282909","2282910","NA","NA","2281402","NAP perception","15","15966","16","yes","1024"
"94.1176470588","yes","94.1176470588","1001.29411765","1001.29411765","white","no","xpyriment","Ich habe die obigen Informationen gelesen und verstanden.","legacy","legacy","0","uniform","1","0","0","undefined","undefined","1","f","2","1","NA","0","1","0","0","0","0","0","0","0","0","26","26","26","0","0","0","NA","0","0","2","0","0","0","2","26","26","26","26","26","Wed Oct 25 10:23:09 2017","Forced-choice identification task with a practice and an experimental phase","yes","NAP_GER_AA_4blocks_noglides.osexp","/Users/aviadalbert/Documents/Academisch/UoC/Dissertation/Experiment/OpenSesame/NAP-FC/NAP_GER_AA_4blocks_noglides","yes","no","sans","no","20","no","black","no","Weiter","yes","768","legacy","16","9","0","/Users/aviadalbert/Documents/Academisch/UoC/Dissertation/Experiment/OpenSesame/NAP-FC/NAP_GER_AA_4blocks_noglides/subject-13.csv","xpyriment","Jazzy James","3.1.9","yes","yes","59a800d99ad5a1025d81bb03","59a801616c613b0251691de0","no","no","0","f","f","space","NA","space","space","f","1056","2537","21032","NA","29037","7892","1056","2","legacy","1024","1","44100","-16","experiment","lmal","2","0","1","1","0","Englisch, Chinesisch","13","Polnisch","odd","2236859","2215292","NA","NA","2239397","2236855","NA","1923505","2236381","1923506","1923506","2130493","2159535","2285605","2284101","2286662","2185978","2167714","2215292","NA","2051354","2119758","2213638","2167495","2236859","2167717","NA","2285605","2285605","NA","NA","2284097","NAP perception","16","17022","17","yes","1024"
"94.4444444444","yes","94.4444444444","990.666666667","990.666666667","white","no","xpyriment","Ich habe die obigen Informationen gelesen und verstanden.","legacy","legacy","0","uniform","1","0","0","undefined","undefined","1","j","2","1","NA","0","1","0","0","0","0","0","0","0","0","27","27","27","0","0","0","NA","0","0","2","0","0","0","2","27","27","27","27","27","Wed Oct 25 10:23:09 2017","Forced-choice identification task with a practice and an experimental phase","yes","NAP_GER_AA_4blocks_noglides.osexp","/Users/aviadalbert/Documents/Academisch/UoC/Dissertation/Experiment/OpenSesame/NAP-FC/NAP_GER_AA_4blocks_noglides","yes","no","sans","no","20","no","black","no","Weiter","yes","768","legacy","17","9","0","/Users/aviadalbert/Documents/Academisch/UoC/Dissertation/Experiment/OpenSesame/NAP-FC/NAP_GER_AA_4blocks_noglides/subject-13.csv","xpyriment","Jazzy James","3.1.9","yes","yes","59a800d99ad5a1025d81bb03","59a801616c613b0251691de0","no","no","0","j","f","space","NA","space","space","j","810","2537","21032","NA","29037","7892","810","2","legacy","1024","1","44100","-16","experiment","vezal","2","0","1","1","0","Englisch, Chinesisch","13","Polnisch","odd","2236859","2215292","NA","NA","2239397","2236855","NA","1923505","2236381","1923506","1923506","2130493","2159535","2288444","2286941","2289256","2185978","2167714","2215292","NA","2051354","2119758","2213638","2167495","2236859","2167717","NA","2288444","2288444","NA","NA","2286937","NAP perception","17","17832","18","yes","1024"
"94.7368421053","yes","94.7368421053","975.894736842","975.894736842","white","no","xpyriment","Ich habe die obigen Informationen gelesen und verstanden.","legacy","legacy","0","uniform","1","0","0","undefined","undefined","1","f","2","1","NA","0","1","0","0","0","0","0","0","0","0","28","28","28","0","0","0","NA","0","0","2","0","0","0","2","28","28","28","28","28","Wed Oct 25 10:23:09 2017","Forced-choice identification task with a practice and an experimental phase","yes","NAP_GER_AA_4blocks_noglides.osexp","/Users/aviadalbert/Documents/Academisch/UoC/Dissertation/Experiment/OpenSesame/NAP-FC/NAP_GER_AA_4blocks_noglides","yes","no","sans","no","20","no","black","no","Weiter","yes","768","legacy","18","9","0","/Users/aviadalbert/Documents/Academisch/UoC/Dissertation/Experiment/OpenSesame/NAP-FC/NAP_GER_AA_4blocks_noglides/subject-13.csv","xpyriment","Jazzy James","3.1.9","yes","yes","59a800d99ad5a1025d81bb03","59a801616c613b0251691de0","no","no","0","f","f","space","NA","space","space","f","710","2537","21032","NA","29037","7892","710","2","legacy","1024","1","44100","-16","experiment","ʃpal","2","0","1","1","0","Englisch, Chinesisch","13","Polnisch","odd","2236859","2215292","NA","NA","2239397","2236855","NA","1923505","2236381","1923506","1923506","2130493","2159535","2291021","2289517","2291732","2185978","2167714","2215292","NA","2051354","2119758","2213638","2167495","2236859","2167717","NA","2291021","2291021","NA","NA","2289513","NAP perception","18","18542","19","yes","1024"
"95","yes","95","979.45","979.45","white","no","xpyriment","Ich habe die obigen Informationen gelesen und verstanden.","legacy","legacy","0","uniform","1","0","0","undefined","undefined","1","j","2","1","NA","0","1","0","0","0","0","0","0","0","0","29","29","29","0","0","0","NA","0","0","2","0","0","0","2","29","29","29","29","29","Wed Oct 25 10:23:09 2017","Forced-choice identification task with a practice and an experimental phase","yes","NAP_GER_AA_4blocks_noglides.osexp","/Users/aviadalbert/Documents/Academisch/UoC/Dissertation/Experiment/OpenSesame/NAP-FC/NAP_GER_AA_4blocks_noglides","yes","no","sans","no","20","no","black","no","Weiter","yes","768","legacy","19","9","0","/Users/aviadalbert/Documents/Academisch/UoC/Dissertation/Experiment/OpenSesame/NAP-FC/NAP_GER_AA_4blocks_noglides/subject-13.csv","xpyriment","Jazzy James","3.1.9","yes","yes","59a800d99ad5a1025d81bb03","59a801616c613b0251691de0","no","no","0","j","f","space","NA","space","space","j","1047","2537","21032","NA","29037","7892","1047","2","legacy","1024","1","44100","-16","experiment","eʃmal","2","0","1","1","0","Englisch, Chinesisch","13","Polnisch","odd","2236859","2215292","NA","NA","2239397","2236855","NA","1923505","2236381","1923506","1923506","2130493","2159535","2293519","2292012","2294567","2185978","2167714","2215292","NA","2051354","2119758","2213638","2167495","2236859","2167717","NA","2293519","2293519","NA","NA","2292008","NAP perception","19","19589","20","yes","1024"
"95.2380952381","yes","95.2380952381","970.619047619","970.619047619","white","no","xpyriment","Ich habe die obigen Informationen gelesen und verstanden.","legacy","legacy","0","uniform","1","0","0","undefined","undefined","1","f","2","1","NA","0","1","0","0","0","0","0","0","0","0","30","30","30","0","0","0","NA","0","0","2","0","0","0","2","30","30","30","30","30","Wed Oct 25 10:23:09 2017","Forced-choice identification task with a practice and an experimental phase","yes","NAP_GER_AA_4blocks_noglides.osexp","/Users/aviadalbert/Documents/Academisch/UoC/Dissertation/Experiment/OpenSesame/NAP-FC/NAP_GER_AA_4blocks_noglides","yes","no","sans","no","20","no","black","no","Weiter","yes","768","legacy","20","9","0","/Users/aviadalbert/Documents/Academisch/UoC/Dissertation/Experiment/OpenSesame/NAP-FC/NAP_GER_AA_4blocks_noglides/subject-13.csv","xpyriment","Jazzy James","3.1.9","yes","yes","59a800d99ad5a1025d81bb03","59a801616c613b0251691de0","no","no","0","f","f","space","NA","space","space","f","794","2537","21032","NA","29037","7892","794","2","legacy","1024","1","44100","-16","experiment","vzal","2","0","1","1","0","Englisch, Chinesisch","13","Polnisch","odd","2236859","2215292","NA","NA","2239397","2236855","NA","1923505","2236381","1923506","1923506","2130493","2159535","2296351","2294845","2297146","2185978","2167714","2215292","NA","2051354","2119758","2213638","2167495","2236859","2167717","NA","2296351","2296351","NA","NA","2294841","NAP perception","20","20383","21","yes","1024"
"95.4545454545","yes","95.4545454545","977","977","white","no","xpyriment","Ich habe die obigen Informationen gelesen und verstanden.","legacy","legacy","0","uniform","1","0","0","undefined","undefined","1","f","2","1","NA","0","1","0","0","0","0","0","0","0","0","31","31","31","0","0","0","NA","0","0","2","0","0","0","2","31","31","31","31","31","Wed Oct 25 10:23:09 2017","Forced-choice identification task with a practice and an experimental phase","yes","NAP_GER_AA_4blocks_noglides.osexp","/Users/aviadalbert/Documents/Academisch/UoC/Dissertation/Experiment/OpenSesame/NAP-FC/NAP_GER_AA_4blocks_noglides","yes","no","sans","no","20","no","black","no","Weiter","yes","768","legacy","21","9","0","/Users/aviadalbert/Documents/Academisch/UoC/Dissertation/Experiment/OpenSesame/NAP-FC/NAP_GER_AA_4blocks_noglides/subject-13.csv","xpyriment","Jazzy James","3.1.9","yes","yes","59a800d99ad5a1025d81bb03","59a801616c613b0251691de0","no","no","0","f","f","space","NA","space","space","f","1111","2537","21032","NA","29037","7892","1111","2","legacy","1024","1","44100","-16","experiment","ftal","2","0","1","1","0","Englisch, Chinesisch","13","Polnisch","odd","2236859","2215292","NA","NA","2239397","2236855","NA","1923505","2236381","1923506","1923506","2130493","2159535","2298921","2297416","2300034","2185978","2167714","2215292","NA","2051354","2119758","2213638","2167495","2236859","2167717","NA","2298920","2298920","NA","NA","2297412","NAP perception","21","21494","22","yes","1024"
"91.3043478261","yes","91.3043478261","1000.43478261","1000.43478261","white","no","xpyriment","Ich habe die obigen Informationen gelesen und verstanden.","legacy","legacy","0","uniform","0","0","0","undefined","undefined","0","f","2","1","NA","0","1","0","0","0","0","0","0","0","0","32","32","32","0","0","0","NA","0","0","2","0","0","0","2","32","32","32","32","32","Wed Oct 25 10:23:09 2017","Forced-choice identification task with a practice and an experimental phase","yes","NAP_GER_AA_4blocks_noglides.osexp","/Users/aviadalbert/Documents/Academisch/UoC/Dissertation/Experiment/OpenSesame/NAP-FC/NAP_GER_AA_4blocks_noglides","yes","no","sans","no","20","no","black","no","Weiter","yes","768","legacy","22","9","0","/Users/aviadalbert/Documents/Academisch/UoC/Dissertation/Experiment/OpenSesame/NAP-FC/NAP_GER_AA_4blocks_noglides/subject-13.csv","xpyriment","Jazzy James","3.1.9","yes","yes","59a800d99ad5a1025d81bb03","59a801616c613b0251691de0","no","no","0","j","f","space","NA","space","space","j","1516","2537","21032","NA","29037","7892","1516","2","legacy","1024","1","44100","-16","experiment","lfal","2","0","1","1","0","Englisch, Chinesisch","13","Polnisch","odd","2236859","2215292","NA","NA","2239397","2236855","NA","1923505","2236381","1923506","1923506","2130493","2159535","2301825","2300320","2303342","2185978","2167714","2215292","NA","2051354","2119758","2213638","2167495","2236859","2167717","NA","2301825","2301825","NA","NA","2300316","NAP perception","21","23010","23","yes","1024"
"91.6666666667","yes","91.6666666667","994.875","994.875","white","no","xpyriment","Ich habe die obigen Informationen gelesen und verstanden.","legacy","legacy","0","uniform","1","0","0","undefined","undefined","1","j","2","1","NA","0","1","0","0","0","0","0","0","0","0","33","33","33","0","0","0","NA","0","0","2","0","0","0","2","33","33","33","33","33","Wed Oct 25 10:23:09 2017","Forced-choice identification task with a practice and an experimental phase","yes","NAP_GER_AA_4blocks_noglides.osexp","/Users/aviadalbert/Documents/Academisch/UoC/Dissertation/Experiment/OpenSesame/NAP-FC/NAP_GER_AA_4blocks_noglides","yes","no","sans","no","20","no","black","no","Weiter","yes","768","legacy","23","9","0","/Users/aviadalbert/Documents/Academisch/UoC/Dissertation/Experiment/OpenSesame/NAP-FC/NAP_GER_AA_4blocks_noglides/subject-13.csv","xpyriment","Jazzy James","3.1.9","yes","yes","59a800d99ad5a1025d81bb03","59a801616c613b0251691de0","no","no","0","j","f","space","NA","space","space","j","867","2537","21032","NA","29037","7892","867","2","legacy","1024","1","44100","-16","experiment","mezal","2","0","1","1","0","Englisch, Chinesisch","13","Polnisch","odd","2236859","2215292","NA","NA","2239397","2236855","NA","1923505","2236381","1923506","1923506","2130493","2159535","2305136","2303632","2306004","2185978","2167714","2215292","NA","2051354","2119758","2213638","2167495","2236859","2167717","NA","2305136","2305136","NA","NA","2303628","NAP perception","22","23877","24","yes","1024"
"92","yes","92","994.84","994.84","white","no","xpyriment","Ich habe die obigen Informationen gelesen und verstanden.","legacy","legacy","0","uniform","1","0","0","undefined","undefined","1","f","2","1","NA","0","1","0","0","0","0","0","0","0","0","34","34","34","0","0","0","NA","0","0","2","0","0","0","2","34","34","34","34","34","Wed Oct 25 10:23:09 2017","Forced-choice identification task with a practice and an experimental phase","yes","NAP_GER_AA_4blocks_noglides.osexp","/Users/aviadalbert/Documents/Academisch/UoC/Dissertation/Experiment/OpenSesame/NAP-FC/NAP_GER_AA_4blocks_noglides","yes","no","sans","no","20","no","black","no","Weiter","yes","768","legacy","24","9","0","/Users/aviadalbert/Documents/Academisch/UoC/Dissertation/Experiment/OpenSesame/NAP-FC/NAP_GER_AA_4blocks_noglides/subject-13.csv","xpyriment","Jazzy James","3.1.9","yes","yes","59a800d99ad5a1025d81bb03","59a801616c613b0251691de0","no","no","0","f","f","space","NA","space","space","f","994","2537","21032","NA","29037","7892","994","2","legacy","1024","1","44100","-16","experiment","npal","2","0","1","1","0","Englisch, Chinesisch","13","Polnisch","odd","2236859","2215292","NA","NA","2239397","2236855","NA","1923505","2236381","1923506","1923506","2130493","2159535","2307770","2306264","2308766","2185978","2167714","2215292","NA","2051354","2119758","2213638","2167495","2236859","2167717","NA","2307770","2307770","NA","NA","2306260","NAP perception","23","24871","25","yes","1024"
"92.3076923077","yes","92.3076923077","1004.38461538","1004.38461538","white","no","xpyriment","Ich habe die obigen Informationen gelesen und verstanden.","legacy","legacy","0","uniform","1","0","0","undefined","undefined","1","j","2","1","NA","0","1","0","0","0","0","0","0","0","0","35","35","35","0","0","0","NA","0","0","2","0","0","0","2","35","35","35","35","35","Wed Oct 25 10:23:09 2017","Forced-choice identification task with a practice and an experimental phase","yes","NAP_GER_AA_4blocks_noglides.osexp","/Users/aviadalbert/Documents/Academisch/UoC/Dissertation/Experiment/OpenSesame/NAP-FC/NAP_GER_AA_4blocks_noglides","yes","no","sans","no","20","no","black","no","Weiter","yes","768","legacy","25","9","0","/Users/aviadalbert/Documents/Academisch/UoC/Dissertation/Experiment/OpenSesame/NAP-FC/NAP_GER_AA_4blocks_noglides/subject-13.csv","xpyriment","Jazzy James","3.1.9","yes","yes","59a800d99ad5a1025d81bb03","59a801616c613b0251691de0","no","no","0","j","f","space","NA","space","space","j","1243","2537","21032","NA","29037","7892","1243","2","legacy","1024","1","44100","-16","experiment","evzal","2","0","1","1","0","Englisch, Chinesisch","13","Polnisch","odd","2236859","2215292","NA","NA","2239397","2236855","NA","1923505","2236381","1923506","1923506","2130493","2159535","2310545","2309041","2311789","2185978","2167714","2215292","NA","2051354","2119758","2213638","2167495","2236859","2167717","NA","2310544","2310545","NA","NA","2309037","NAP perception","24","26114","26","yes","1024"
"92.5925925926","yes","92.5925925926","1002.03703704","1002.03703704","white","no","xpyriment","Ich habe die obigen Informationen gelesen und verstanden.","legacy","legacy","0","uniform","1","0","0","undefined","undefined","1","f","2","1","NA","0","1","0","0","0","0","0","0","0","0","36","36","36","0","0","0","NA","0","0","2","0","0","0","2","36","36","36","36","36","Wed Oct 25 10:23:09 2017","Forced-choice identification task with a practice and an experimental phase","yes","NAP_GER_AA_4blocks_noglides.osexp","/Users/aviadalbert/Documents/Academisch/UoC/Dissertation/Experiment/OpenSesame/NAP-FC/NAP_GER_AA_4blocks_noglides","yes","no","sans","no","20","no","black","no","Weiter","yes","768","legacy","26","9","0","/Users/aviadalbert/Documents/Academisch/UoC/Dissertation/Experiment/OpenSesame/NAP-FC/NAP_GER_AA_4blocks_noglides/subject-13.csv","xpyriment","Jazzy James","3.1.9","yes","yes","59a800d99ad5a1025d81bb03","59a801616c613b0251691de0","no","no","0","f","f","space","NA","space","space","f","941","2537","21032","NA","29037","7892","941","2","legacy","1024","1","44100","-16","experiment","spal","2","0","1","1","0","Englisch, Chinesisch","13","Polnisch","odd","2236859","2215292","NA","NA","2239397","2236855","NA","1923505","2236381","1923506","1923506","2130493","2159535","2313558","2312054","2314500","2185978","2167714","2215292","NA","2051354","2119758","2213638","2167495","2236859","2167717","NA","2313557","2313558","NA","NA","2312050","NAP perception","25","27055","27","yes","1024"
"92.8571428571","yes","92.8571428571","1001.64285714","1001.64285714","white","no","xpyriment","Ich habe die obigen Informationen gelesen und verstanden.","legacy","legacy","0","uniform","1","0","0","undefined","undefined","1","j","2","1","NA","0","1","0","0","0","0","0","0","0","0","37","37","37","0","0","0","NA","0","0","2","0","0","0","2","37","37","37","37","37","Wed Oct 25 10:23:09 2017","Forced-choice identification task with a practice and an experimental phase","yes","NAP_GER_AA_4blocks_noglides.osexp","/Users/aviadalbert/Documents/Academisch/UoC/Dissertation/Experiment/OpenSesame/NAP-FC/NAP_GER_AA_4blocks_noglides","yes","no","sans","no","20","no","black","no","Weiter","yes","768","legacy","27","9","0","/Users/aviadalbert/Documents/Academisch/UoC/Dissertation/Experiment/OpenSesame/NAP-FC/NAP_GER_AA_4blocks_noglides/subject-13.csv","xpyriment","Jazzy James","3.1.9","yes","yes","59a800d99ad5a1025d81bb03","59a801616c613b0251691de0","no","no","0","j","f","space","NA","space","space","j","991","2537","21032","NA","29037","7892","991","2","legacy","1024","1","44100","-16","experiment","emlal","2","0","1","1","0","Englisch, Chinesisch","13","Polnisch","odd","2236859","2215292","NA","NA","2239397","2236855","NA","1923505","2236381","1923506","1923506","2130493","2159535","2316286","2314781","2317278","2185978","2167714","2215292","NA","2051354","2119758","2213638","2167495","2236859","2167717","NA","2316286","2316286","NA","NA","2314777","NAP perception","26","28046","28","yes","1024"
"93.1034482759","yes","93.1034482759","1005.37931034","1005.37931034","white","no","xpyriment","Ich habe die obigen Informationen gelesen und verstanden.","legacy","legacy","0","uniform","1","0","0","undefined","undefined","1","j","2","1","NA","0","1","0","0","0","0","0","0","0","0","38","38","38","0","0","0","NA","0","0","2","0","0","0","2","38","38","38","38","38","Wed Oct 25 10:23:09 2017","Forced-choice identification task with a practice and an experimental phase","yes","NAP_GER_AA_4blocks_noglides.osexp","/Users/aviadalbert/Documents/Academisch/UoC/Dissertation/Experiment/OpenSesame/NAP-FC/NAP_GER_AA_4blocks_noglides","yes","no","sans","no","20","no","black","no","Weiter","yes","768","legacy","28","9","0","/Users/aviadalbert/Documents/Academisch/UoC/Dissertation/Experiment/OpenSesame/NAP-FC/NAP_GER_AA_4blocks_noglides/subject-13.csv","xpyriment","Jazzy James","3.1.9","yes","yes","59a800d99ad5a1025d81bb03","59a801616c613b0251691de0","no","no","0","j","f","space","NA","space","space","j","1110","2537","21032","NA","29037","7892","1110","2","legacy","1024","1","44100","-16","experiment","esmal","2","0","1","1","0","Englisch, Chinesisch","13","Polnisch","odd","2236859","2215292","NA","NA","2239397","2236855","NA","1923505","2236381","1923506","1923506","2130493","2159535","2319064","2317561","2320175","2185978","2167714","2215292","NA","2051354","2119758","2213638","2167495","2236859","2167717","NA","2319064","2319064","NA","NA","2317557","NAP perception","27","29156","29","yes","1024"
"93.3333333333","yes","93.3333333333","1000.73333333","1000.73333333","white","no","xpyriment","Ich habe die obigen Informationen gelesen und verstanden.","legacy","legacy","0","uniform","1","0","0","undefined","undefined","1","j","2","1","NA","0","1","0","0","0","0","0","0","0","0","39","39","39","0","0","0","NA","0","0","2","0","0","0","2","39","39","39","39","39","Wed Oct 25 10:23:09 2017","Forced-choice identification task with a practice and an experimental phase","yes","NAP_GER_AA_4blocks_noglides.osexp","/Users/aviadalbert/Documents/Academisch/UoC/Dissertation/Experiment/OpenSesame/NAP-FC/NAP_GER_AA_4blocks_noglides","yes","no","sans","no","20","no","black","no","Weiter","yes","768","legacy","29","9","0","/Users/aviadalbert/Documents/Academisch/UoC/Dissertation/Experiment/OpenSesame/NAP-FC/NAP_GER_AA_4blocks_noglides/subject-13.csv","xpyriment","Jazzy James","3.1.9","yes","yes","59a800d99ad5a1025d81bb03","59a801616c613b0251691de0","no","no","0","j","f","space","NA","space","space","j","866","2537","21032","NA","29037","7892","866","2","legacy","1024","1","44100","-16","experiment","semal","2","0","1","1","0","Englisch, Chinesisch","13","Polnisch","odd","2236859","2215292","NA","NA","2239397","2236855","NA","1923505","2236381","1923506","1923506","2130493","2159535","2321946","2320443","2322813","2185978","2167714","2215292","NA","2051354","2119758","2213638","2167495","2236859","2167717","NA","2321946","2321946","NA","NA","2320439","NAP perception","28","30022","30","yes","1024"
"93.5483870968","yes","93.5483870968","990.451612903","990.451612903","white","no","xpyriment","Ich habe die obigen Informationen gelesen und verstanden.","legacy","legacy","0","uniform","1","0","0","undefined","undefined","1","f","2","1","NA","0","1","0","0","0","0","0","0","0","0","40","40","40","0","0","0","NA","0","0","2","0","0","0","2","40","40","40","40","40","Wed Oct 25 10:23:09 2017","Forced-choice identification task with a practice and an experimental phase","yes","NAP_GER_AA_4blocks_noglides.osexp","/Users/aviadalbert/Documents/Academisch/UoC/Dissertation/Experiment/OpenSesame/NAP-FC/NAP_GER_AA_4blocks_noglides","yes","no","sans","no","20","no","black","no","Weiter","yes","768","legacy","30","9","0","/Users/aviadalbert/Documents/Academisch/UoC/Dissertation/Experiment/OpenSesame/NAP-FC/NAP_GER_AA_4blocks_noglides/subject-13.csv","xpyriment","Jazzy James","3.1.9","yes","yes","59a800d99ad5a1025d81bb03","59a801616c613b0251691de0","no","no","0","f","f","space","NA","space","space","f","682","2537","21032","NA","29037","7892","682","2","legacy","1024","1","44100","-16","experiment","vlal","2","0","1","1","0","Englisch, Chinesisch","13","Polnisch","odd","2236859","2215292","NA","NA","2239397","2236855","NA","1923505","2236381","1923506","1923506","2130493","2159535","2324588","2323080","2325272","2185978","2167714","2215292","NA","2051354","2119758","2213638","2167495","2236859","2167717","NA","2324588","2324588","NA","NA","2323076","NAP perception","29","30704","31","yes","1024"
"93.75","yes","93.75","984.15625","984.15625","white","no","xpyriment","Ich habe die obigen Informationen gelesen und verstanden.","legacy","legacy","0","uniform","1","0","0","undefined","undefined","1","j","2","1","NA","0","1","0","0","0","0","0","0","0","0","41","41","41","0","0","0","NA","0","0","2","0","0","0","2","41","41","41","41","41","Wed Oct 25 10:23:09 2017","Forced-choice identification task with a practice and an experimental phase","yes","NAP_GER_AA_4blocks_noglides.osexp","/Users/aviadalbert/Documents/Academisch/UoC/Dissertation/Experiment/OpenSesame/NAP-FC/NAP_GER_AA_4blocks_noglides","yes","no","sans","no","20","no","black","no","Weiter","yes","768","legacy","31","9","0","/Users/aviadalbert/Documents/Academisch/UoC/Dissertation/Experiment/OpenSesame/NAP-FC/NAP_GER_AA_4blocks_noglides/subject-13.csv","xpyriment","Jazzy James","3.1.9","yes","yes","59a800d99ad5a1025d81bb03","59a801616c613b0251691de0","no","no","0","j","f","space","NA","space","space","j","789","2537","21032","NA","29037","7892","789","2","legacy","1024","1","44100","-16","experiment","sefal","2","0","1","1","0","Englisch, Chinesisch","13","Polnisch","odd","2236859","2215292","NA","NA","2239397","2236855","NA","1923505","2236381","1923506","1923506","2130493","2159535","2327053","2325549","2327844","2185978","2167714","2215292","NA","2051354","2119758","2213638","2167495","2236859","2167717","NA","2327052","2327052","NA","NA","2325545","NAP perception","30","31493","32","yes","1024"
"93.9393939394","yes","93.9393939394","995.515151515","995.515151515","white","no","xpyriment","Ich habe die obigen Informationen gelesen und verstanden.","legacy","legacy","0","uniform","1","0","0","undefined","undefined","1","f","2","1","NA","0","1","0","0","0","0","0","0","0","0","42","42","42","0","0","0","NA","0","0","2","0","0","0","2","42","42","42","42","42","Wed Oct 25 10:23:09 2017","Forced-choice identification task with a practice and an experimental phase","yes","NAP_GER_AA_4blocks_noglides.osexp","/Users/aviadalbert/Documents/Academisch/UoC/Dissertation/Experiment/OpenSesame/NAP-FC/NAP_GER_AA_4blocks_noglides","yes","no","sans","no","20","no","black","no","Weiter","yes","768","legacy","32","9","0","/Users/aviadalbert/Documents/Academisch/UoC/Dissertation/Experiment/OpenSesame/NAP-FC/NAP_GER_AA_4blocks_noglides/subject-13.csv","xpyriment","Jazzy James","3.1.9","yes","yes","59a800d99ad5a1025d81bb03","59a801616c613b0251691de0","no","no","0","f","f","space","NA","space","space","f","1359","2537","21032","NA","29037","7892","1359","2","legacy","1024","1","44100","-16","experiment","fsal","2","0","1","1","0","Englisch, Chinesisch","13","Polnisch","odd","2236859","2215292","NA","NA","2239397","2236855","NA","1923505","2236381","1923506","1923506","2130493","2159535","2329627","2328121","2330988","2185978","2167714","2215292","NA","2051354","2119758","2213638","2167495","2236859","2167717","NA","2329627","2329627","NA","NA","2328117","NAP perception","31","32852","33","yes","1024"
"94.1176470588","yes","94.1176470588","1011.14705882","1011.14705882","white","no","xpyriment","Ich habe die obigen Informationen gelesen und verstanden.","legacy","legacy","0","uniform","1","0","0","undefined","undefined","1","f","2","1","NA","0","1","0","0","0","0","0","0","0","0","43","43","43","0","0","0","NA","0","0","2","0","0","0","2","43","43","43","43","43","Wed Oct 25 10:23:09 2017","Forced-choice identification task with a practice and an experimental phase","yes","NAP_GER_AA_4blocks_noglides.osexp","/Users/aviadalbert/Documents/Academisch/UoC/Dissertation/Experiment/OpenSesame/NAP-FC/NAP_GER_AA_4blocks_noglides","yes","no","sans","no","20","no","black","no","Weiter","yes","768","legacy","33","9","0","/Users/aviadalbert/Documents/Academisch/UoC/Dissertation/Experiment/OpenSesame/NAP-FC/NAP_GER_AA_4blocks_noglides/subject-13.csv","xpyriment","Jazzy James","3.1.9","yes","yes","59a800d99ad5a1025d81bb03","59a801616c613b0251691de0","no","no","0","f","f","space","NA","space","space","f","1527","2537","21032","NA","29037","7892","1527","2","legacy","1024","1","44100","-16","experiment","mtal","2","0","1","1","0","Englisch, Chinesisch","13","Polnisch","odd","2236859","2215292","NA","NA","2239397","2236855","NA","1923505","2236381","1923506","1923506","2130493","2159535","2332756","2331252","2334286","2185978","2167714","2215292","NA","2051354","2119758","2213638","2167495","2236859","2167717","NA","2332756","2332756","NA","NA","2331248","NAP perception","32","34379","34","yes","1024"
"94.2857142857","yes","94.2857142857","1004.77142857","1004.77142857","white","no","xpyriment","Ich habe die obigen Informationen gelesen und verstanden.","legacy","legacy","0","uniform","1","0","0","undefined","undefined","1","f","2","1","NA","0","1","0","0","0","0","0","0","0","0","44","44","44","0","0","0","NA","0","0","2","0","0","0","2","44","44","44","44","44","Wed Oct 25 10:23:09 2017","Forced-choice identification task with a practice and an experimental phase","yes","NAP_GER_AA_4blocks_noglides.osexp","/Users/aviadalbert/Documents/Academisch/UoC/Dissertation/Experiment/OpenSesame/NAP-FC/NAP_GER_AA_4blocks_noglides","yes","no","sans","no","20","no","black","no","Weiter","yes","768","legacy","34","9","0","/Users/aviadalbert/Documents/Academisch/UoC/Dissertation/Experiment/OpenSesame/NAP-FC/NAP_GER_AA_4blocks_noglides/subject-13.csv","xpyriment","Jazzy James","3.1.9","yes","yes","59a800d99ad5a1025d81bb03","59a801616c613b0251691de0","no","no","0","f","f","space","NA","space","space","f","788","2537","21032","NA","29037","7892","788","2","legacy","1024","1","44100","-16","experiment","smal","2","0","1","1","0","Englisch, Chinesisch","13","Polnisch","odd","2236859","2215292","NA","NA","2239397","2236855","NA","1923505","2236381","1923506","1923506","2130493","2159535","2336060","2334557","2336850","2185978","2167714","2215292","NA","2051354","2119758","2213638","2167495","2236859","2167717","NA","2336060","2336060","NA","NA","2334553","NAP perception","33","35167","35","yes","1024"
"94.4444444444","yes","94.4444444444","1007.61111111","1007.61111111","white","no","xpyriment","Ich habe die obigen Informationen gelesen und verstanden.","legacy","legacy","0","uniform","1","0","0","undefined","undefined","1","j","2","1","NA","0","1","0","0","0","0","0","0","0","0","45","45","45","0","0","0","NA","0","0","2","0","0","0","2","45","45","45","45","45","Wed Oct 25 10:23:09 2017","Forced-choice identification task with a practice and an experimental phase","yes","NAP_GER_AA_4blocks_noglides.osexp","/Users/aviadalbert/Documents/Academisch/UoC/Dissertation/Experiment/OpenSesame/NAP-FC/NAP_GER_AA_4blocks_noglides","yes","no","sans","no","20","no","black","no","Weiter","yes","768","legacy","35","9","0","/Users/aviadalbert/Documents/Academisch/UoC/Dissertation/Experiment/OpenSesame/NAP-FC/NAP_GER_AA_4blocks_noglides/subject-13.csv","xpyriment","Jazzy James","3.1.9","yes","yes","59a800d99ad5a1025d81bb03","59a801616c613b0251691de0","no","no","0","j","f","space","NA","space","space","j","1107","2537","21032","NA","29037","7892","1107","2","legacy","1024","1","44100","-16","experiment","evlal","2","0","1","1","0","Englisch, Chinesisch","13","Polnisch","odd","2236859","2215292","NA","NA","2239397","2236855","NA","1923505","2236381","1923506","1923506","2130493","2159535","2338626","2337121","2339735","2185978","2167714","2215292","NA","2051354","2119758","2213638","2167495","2236859","2167717","NA","2338626","2338626","NA","NA","2337117","NAP perception","34","36274","36","yes","1024"
"94.5945945946","yes","94.5945945946","1015.21621622","1015.21621622","white","no","xpyriment","Ich habe die obigen Informationen gelesen und verstanden.","legacy","legacy","0","uniform","1","0","0","undefined","undefined","1","f","2","1","NA","0","1","0","0","0","0","0","0","0","0","46","46","46","0","0","0","NA","0","0","2","0","0","0","2","46","46","46","46","46","Wed Oct 25 10:23:09 2017","Forced-choice identification task with a practice and an experimental phase","yes","NAP_GER_AA_4blocks_noglides.osexp","/Users/aviadalbert/Documents/Academisch/UoC/Dissertation/Experiment/OpenSesame/NAP-FC/NAP_GER_AA_4blocks_noglides","yes","no","sans","no","20","no","black","no","Weiter","yes","768","legacy","36","9","0","/Users/aviadalbert/Documents/Academisch/UoC/Dissertation/Experiment/OpenSesame/NAP-FC/NAP_GER_AA_4blocks_noglides/subject-13.csv","xpyriment","Jazzy James","3.1.9","yes","yes","59a800d99ad5a1025d81bb03","59a801616c613b0251691de0","no","no","0","f","f","space","NA","space","space","f","1289","2537","21032","NA","29037","7892","1289","2","legacy","1024","1","44100","-16","experiment","ʃfal","2","0","1","1","0","Englisch, Chinesisch","13","Polnisch","odd","2236859","2215292","NA","NA","2239397","2236855","NA","1923505","2236381","1923506","1923506","2130493","2159535","2341508","2340003","2342799","2185978","2167714","2215292","NA","2051354","2119758","2213638","2167495","2236859","2167717","NA","2341508","2341508","NA","NA","2340000","NAP perception","35","37563","37","yes","1024"
"94.7368421053","yes","94.7368421053","1012.97368421","1012.97368421","white","no","xpyriment","Ich habe die obigen Informationen gelesen und verstanden.","legacy","legacy","0","uniform","1","0","0","undefined","undefined","1","j","2","1","NA","0","1","0","0","0","0","0","0","0","0","47","47","47","0","0","0","NA","0","0","2","0","0","0","2","47","47","47","47","47","Wed Oct 25 10:23:09 2017","Forced-choice identification task with a practice and an experimental phase","yes","NAP_GER_AA_4blocks_noglides.osexp","/Users/aviadalbert/Documents/Academisch/UoC/Dissertation/Experiment/OpenSesame/NAP-FC/NAP_GER_AA_4blocks_noglides","yes","no","sans","no","20","no","black","no","Weiter","yes","768","legacy","37","9","0","/Users/aviadalbert/Documents/Academisch/UoC/Dissertation/Experiment/OpenSesame/NAP-FC/NAP_GER_AA_4blocks_noglides/subject-13.csv","xpyriment","Jazzy James","3.1.9","yes","yes","59a800d99ad5a1025d81bb03","59a801616c613b0251691de0","no","no","0","j","f","space","NA","space","space","j","930","2537","21032","NA","29037","7892","930","2","legacy","1024","1","44100","-16","experiment","ezval","2","0","1","1","0","Englisch, Chinesisch","13","Polnisch","odd","2236859","2215292","NA","NA","2239397","2236855","NA","1923505","2236381","1923506","1923506","2130493","2159535","2344583","2343079","2345515","2185978","2167714","2215292","NA","2051354","2119758","2213638","2167495","2236859","2167717","NA","2344583","2344583","NA","NA","2343076","NAP perception","36","38493","38","yes","1024"
"94.8717948718","yes","94.8717948718","1008.94871795","1008.94871795","white","no","xpyriment","Ich habe die obigen Informationen gelesen und verstanden.","legacy","legacy","0","uniform","1","0","0","undefined","undefined","1","f","2","1","NA","0","1","0","0","0","0","0","0","0","0","48","48","48","0","0","0","NA","0","0","2","0","0","0","2","48","48","48","48","48","Wed Oct 25 10:23:09 2017","Forced-choice identification task with a practice and an experimental phase","yes","NAP_GER_AA_4blocks_noglides.osexp","/Users/aviadalbert/Documents/Academisch/UoC/Dissertation/Experiment/OpenSesame/NAP-FC/NAP_GER_AA_4blocks_noglides","yes","no","sans","no","20","no","black","no","Weiter","yes","768","legacy","38","9","0","/Users/aviadalbert/Documents/Academisch/UoC/Dissertation/Experiment/OpenSesame/NAP-FC/NAP_GER_AA_4blocks_noglides/subject-13.csv","xpyriment","Jazzy James","3.1.9","yes","yes","59a800d99ad5a1025d81bb03","59a801616c613b0251691de0","no","no","0","f","f","space","NA","space","space","f","856","2537","21032","NA","29037","7892","856","2","legacy","1024","1","44100","-16","experiment","mzal","2","0","1","1","0","Englisch, Chinesisch","13","Polnisch","odd","2236859","2215292","NA","NA","2239397","2236855","NA","1923505","2236381","1923506","1923506","2130493","2159535","2347281","2345778","2348139","2185978","2167714","2215292","NA","2051354","2119758","2213638","2167495","2236859","2167717","NA","2347281","2347281","NA","NA","2345774","NAP perception","37","39349","39","yes","1024"
"95","yes","95","1007.825","1007.825","white","no","xpyriment","Ich habe die obigen Informationen gelesen und verstanden.","legacy","legacy","0","uniform","1","0","0","undefined","undefined","1","f","2","1","NA","0","1","0","0","0","0","0","0","0","0","49","49","49","0","0","0","NA","0","0","2","0","0","0","2","49","49","49","49","49","Wed Oct 25 10:23:09 2017","Forced-choice identification task with a practice and an experimental phase","yes","NAP_GER_AA_4blocks_noglides.osexp","/Users/aviadalbert/Documents/Academisch/UoC/Dissertation/Experiment/OpenSesame/NAP-FC/NAP_GER_AA_4blocks_noglides","yes","no","sans","no","20","no","black","no","Weiter","yes","768","legacy","39","9","0","/Users/aviadalbert/Documents/Academisch/UoC/Dissertation/Experiment/OpenSesame/NAP-FC/NAP_GER_AA_4blocks_noglides/subject-13.csv","xpyriment","Jazzy James","3.1.9","yes","yes","59a800d99ad5a1025d81bb03","59a801616c613b0251691de0","no","no","0","f","f","space","NA","space","space","f","964","2537","21032","NA","29037","7892","964","2","legacy","1024","1","44100","-16","experiment","ʃfal","2","0","1","1","0","Englisch, Chinesisch","13","Polnisch","odd","2236859","2215292","NA","NA","2239397","2236855","NA","1923505","2236381","1923506","1923506","2130493","2159535","2349903","2348398","2350870","2185978","2167714","2215292","NA","2051354","2119758","2213638","2167495","2236859","2167717","NA","2349903","2349903","NA","NA","2348395","NAP perception","38","40313","40","yes","1024"
"95.1219512195","yes","95.1219512195","1010.53658537","1010.53658537","white","no","xpyriment","Ich habe die obigen Informationen gelesen und verstanden.","legacy","legacy","0","uniform","1","0","0","undefined","undefined","1","j","2","1","NA","0","1","0","0","0","0","0","0","0","0","50","50","50","0","0","0","NA","0","0","2","0","0","0","2","50","50","50","50","50","Wed Oct 25 10:23:09 2017","Forced-choice identification task with a practice and an experimental phase","yes","NAP_GER_AA_4blocks_noglides.osexp","/Users/aviadalbert/Documents/Academisch/UoC/Dissertation/Experiment/OpenSesame/NAP-FC/NAP_GER_AA_4blocks_noglides","yes","no","sans","no","20","no","black","no","Weiter","yes","768","legacy","40","9","0","/Users/aviadalbert/Documents/Academisch/UoC/Dissertation/Experiment/OpenSesame/NAP-FC/NAP_GER_AA_4blocks_noglides/subject-13.csv","xpyriment","Jazzy James","3.1.9","yes","yes","59a800d99ad5a1025d81bb03","59a801616c613b0251691de0","no","no","0","j","f","space","NA","space","space","j","1119","2537","21032","NA","29037","7892","1119","2","legacy","1024","1","44100","-16","experiment","elval","2","0","1","1","0","Englisch, Chinesisch","13","Polnisch","odd","2236859","2215292","NA","NA","2239397","2236855","NA","1923505","2236381","1923506","1923506","2130493","2159535","2352642","2351139","2353763","2185978","2167714","2215292","NA","2051354","2119758","2213638","2167495","2236859","2167717","NA","2352642","2352642","NA","NA","2351135","NAP perception","39","41432","41","yes","1024"
"95.2380952381","yes","95.2380952381","1019","1019","white","no","xpyriment","Ich habe die obigen Informationen gelesen und verstanden.","legacy","legacy","0","uniform","1","0","0","undefined","undefined","1","f","2","1","NA","0","1","0","0","0","0","0","0","0","0","51","51","51","0","0","0","NA","0","0","2","0","0","0","2","51","51","51","51","51","Wed Oct 25 10:23:09 2017","Forced-choice identification task with a practice and an experimental phase","yes","NAP_GER_AA_4blocks_noglides.osexp","/Users/aviadalbert/Documents/Academisch/UoC/Dissertation/Experiment/OpenSesame/NAP-FC/NAP_GER_AA_4blocks_noglides","yes","no","sans","no","20","no","black","no","Weiter","yes","768","legacy","41","9","0","/Users/aviadalbert/Documents/Academisch/UoC/Dissertation/Experiment/OpenSesame/NAP-FC/NAP_GER_AA_4blocks_noglides/subject-13.csv","xpyriment","Jazzy James","3.1.9","yes","yes","59a800d99ad5a1025d81bb03","59a801616c613b0251691de0","no","no","0","f","f","space","NA","space","space","f","1366","2537","21032","NA","29037","7892","1366","2","legacy","1024","1","44100","-16","experiment","lpal","2","0","1","1","0","Englisch, Chinesisch","13","Polnisch","odd","2236859","2215292","NA","NA","2239397","2236855","NA","1923505","2236381","1923506","1923506","2130493","2159535","2355544","2354041","2356912","2185978","2167714","2215292","NA","2051354","2119758","2213638","2167495","2236859","2167717","NA","2355544","2355544","NA","NA","2354037","NAP perception","40","42798","42","yes","1024"
"95.3488372093","yes","95.3488372093","1015.86046512","1015.86046512","white","no","xpyriment","Ich habe die obigen Informationen gelesen und verstanden.","legacy","legacy","0","uniform","1","0","0","undefined","undefined","1","j","2","1","NA","0","1","0","0","0","0","0","0","0","0","52","52","52","0","0","0","NA","0","0","2","0","0","0","2","52","52","52","52","52","Wed Oct 25 10:23:09 2017","Forced-choice identification task with a practice and an experimental phase","yes","NAP_GER_AA_4blocks_noglides.osexp","/Users/aviadalbert/Documents/Academisch/UoC/Dissertation/Experiment/OpenSesame/NAP-FC/NAP_GER_AA_4blocks_noglides","yes","no","sans","no","20","no","black","no","Weiter","yes","768","legacy","42","9","0","/Users/aviadalbert/Documents/Academisch/UoC/Dissertation/Experiment/OpenSesame/NAP-FC/NAP_GER_AA_4blocks_noglides/subject-13.csv","xpyriment","Jazzy James","3.1.9","yes","yes","59a800d99ad5a1025d81bb03","59a801616c613b0251691de0","no","no","0","j","f","space","NA","space","space","j","884","2537","21032","NA","29037","7892","884","2","legacy","1024","1","44100","-16","experiment","efsal","2","0","1","1","0","Englisch, Chinesisch","13","Polnisch","odd","2236859","2215292","NA","NA","2239397","2236855","NA","1923505","2236381","1923506","1923506","2130493","2159535","2358699","2357196","2359585","2185978","2167714","2215292","NA","2051354","2119758","2213638","2167495","2236859","2167717","NA","2358699","2358699","NA","NA","2357192","NAP perception","41","43682","43","yes","1024"
"95.4545454545","yes","95.4545454545","1019.93181818","1019.93181818","white","no","xpyriment","Ich habe die obigen Informationen gelesen und verstanden.","legacy","legacy","0","uniform","1","0","0","undefined","undefined","1","j","2","1","NA","0","1","0","0","0","0","0","0","0","0","53","53","53","0","0","0","NA","0","0","2","0","0","0","2","53","53","53","53","53","Wed Oct 25 10:23:09 2017","Forced-choice identification task with a practice and an experimental phase","yes","NAP_GER_AA_4blocks_noglides.osexp","/Users/aviadalbert/Documents/Academisch/UoC/Dissertation/Experiment/OpenSesame/NAP-FC/NAP_GER_AA_4blocks_noglides","yes","no","sans","no","20","no","black","no","Weiter","yes","768","legacy","43","9","0","/Users/aviadalbert/Documents/Academisch/UoC/Dissertation/Experiment/OpenSesame/NAP-FC/NAP_GER_AA_4blocks_noglides/subject-13.csv","xpyriment","Jazzy James","3.1.9","yes","yes","59a800d99ad5a1025d81bb03","59a801616c613b0251691de0","no","no","0","j","f","space","NA","space","space","j","1195","2537","21032","NA","29037","7892","1195","2","legacy","1024","1","44100","-16","experiment","ʃepal","2","0","1","1","0","Englisch, Chinesisch","13","Polnisch","odd","2236859","2215292","NA","NA","2239397","2236855","NA","1923505","2236381","1923506","1923506","2130493","2159535","2361377","2359872","2362574","2185978","2167714","2215292","NA","2051354","2119758","2213638","2167495","2236859","2167717","NA","2361376","2361377","NA","NA","2359869","NAP perception","42","44877","44","yes","1024"
"95.5555555556","yes","95.5555555556","1019.97777778","1019.97777778","white","no","xpyriment","Ich habe die obigen Informationen gelesen und verstanden.","legacy","legacy","0","uniform","1","0","0","undefined","undefined","1","f","2","1","NA","0","1","0","0","0","0","0","0","0","0","54","54","54","0","0","0","NA","0","0","2","0","0","0","2","54","54","54","54","54","Wed Oct 25 10:23:09 2017","Forced-choice identification task with a practice and an experimental phase","yes","NAP_GER_AA_4blocks_noglides.osexp","/Users/aviadalbert/Documents/Academisch/UoC/Dissertation/Experiment/OpenSesame/NAP-FC/NAP_GER_AA_4blocks_noglides","yes","no","sans","no","20","no","black","no","Weiter","yes","768","legacy","44","9","0","/Users/aviadalbert/Documents/Academisch/UoC/Dissertation/Experiment/OpenSesame/NAP-FC/NAP_GER_AA_4blocks_noglides/subject-13.csv","xpyriment","Jazzy James","3.1.9","yes","yes","59a800d99ad5a1025d81bb03","59a801616c613b0251691de0","no","no","0","f","f","space","NA","space","space","f","1022","2537","21032","NA","29037","7892","1022","2","legacy","1024","1","44100","-16","experiment","fsal","2","0","1","1","0","Englisch, Chinesisch","13","Polnisch","odd","2236859","2215292","NA","NA","2239397","2236855","NA","1923505","2236381","1923506","1923506","2130493","2159535","2364353","2362848","2365377","2185978","2167714","2215292","NA","2051354","2119758","2213638","2167495","2236859","2167717","NA","2364352","2364352","NA","NA","2362844","NAP perception","43","45899","45","yes","1024"
"95.652173913","yes","95.652173913","1018.43478261","1018.43478261","white","no","xpyriment","Ich habe die obigen Informationen gelesen und verstanden.","legacy","legacy","0","uniform","1","0","0","undefined","undefined","1","j","2","1","NA","0","1","0","0","0","0","0","0","0","0","55","55","55","0","0","0","NA","0","0","2","0","0","0","2","55","55","55","55","55","Wed Oct 25 10:23:09 2017","Forced-choice identification task with a practice and an experimental phase","yes","NAP_GER_AA_4blocks_noglides.osexp","/Users/aviadalbert/Documents/Academisch/UoC/Dissertation/Experiment/OpenSesame/NAP-FC/NAP_GER_AA_4blocks_noglides","yes","no","sans","no","20","no","black","no","Weiter","yes","768","legacy","45","9","0","/Users/aviadalbert/Documents/Academisch/UoC/Dissertation/Experiment/OpenSesame/NAP-FC/NAP_GER_AA_4blocks_noglides/subject-13.csv","xpyriment","Jazzy James","3.1.9","yes","yes","59a800d99ad5a1025d81bb03","59a801616c613b0251691de0","no","no","0","j","f","space","NA","space","space","j","949","2537","21032","NA","29037","7892","949","2","legacy","1024","1","44100","-16","experiment","mesal","2","0","1","1","0","Englisch, Chinesisch","13","Polnisch","odd","2236859","2215292","NA","NA","2239397","2236855","NA","1923505","2236381","1923506","1923506","2130493","2159535","2367158","2365654","2368109","2185978","2167714","2215292","NA","2051354","2119758","2213638","2167495","2236859","2167717","NA","2367158","2367158","NA","NA","2365650","NAP perception","44","46848","46","yes","1024"
"95.7446808511","yes","95.7446808511","1018.38297872","1018.38297872","white","no","xpyriment","Ich habe die obigen Informationen gelesen und verstanden.","legacy","legacy","0","uniform","1","0","0","undefined","undefined","1","j","2","1","NA","0","1","0","0","0","0","0","0","0","0","56","56","56","0","0","0","NA","0","0","2","0","0","0","2","56","56","56","56","56","Wed Oct 25 10:23:09 2017","Forced-choice identification task with a practice and an experimental phase","yes","NAP_GER_AA_4blocks_noglides.osexp","/Users/aviadalbert/Documents/Academisch/UoC/Dissertation/Experiment/OpenSesame/NAP-FC/NAP_GER_AA_4blocks_noglides","yes","no","sans","no","20","no","black","no","Weiter","yes","768","legacy","46","9","0","/Users/aviadalbert/Documents/Academisch/UoC/Dissertation/Experiment/OpenSesame/NAP-FC/NAP_GER_AA_4blocks_noglides/subject-13.csv","xpyriment","Jazzy James","3.1.9","yes","yes","59a800d99ad5a1025d81bb03","59a801616c613b0251691de0","no","no","0","j","f","space","NA","space","space","j","1016","2537","21032","NA","29037","7892","1016","2","legacy","1024","1","44100","-16","experiment","emzal","2","0","1","1","0","Englisch, Chinesisch","13","Polnisch","odd","2236859","2215292","NA","NA","2239397","2236855","NA","1923505","2236381","1923506","1923506","2130493","2159535","2369884","2368379","2370902","2185978","2167714","2215292","NA","2051354","2119758","2213638","2167495","2236859","2167717","NA","2369884","2369884","NA","NA","2368376","NAP perception","45","47864","47","yes","1024"
"95.8333333333","yes","95.8333333333","1022.22916667","1022.22916667","white","no","xpyriment","Ich habe die obigen Informationen gelesen und verstanden.","legacy","legacy","0","uniform","1","0","0","undefined","undefined","1","j","2","1","NA","0","1","0","0","0","0","0","0","0","0","57","57","57","0","0","0","NA","0","0","2","0","0","0","2","57","57","57","57","57","Wed Oct 25 10:23:09 2017","Forced-choice identification task with a practice and an experimental phase","yes","NAP_GER_AA_4blocks_noglides.osexp","/Users/aviadalbert/Documents/Academisch/UoC/Dissertation/Experiment/OpenSesame/NAP-FC/NAP_GER_AA_4blocks_noglides","yes","no","sans","no","20","no","black","no","Weiter","yes","768","legacy","47","9","0","/Users/aviadalbert/Documents/Academisch/UoC/Dissertation/Experiment/OpenSesame/NAP-FC/NAP_GER_AA_4blocks_noglides/subject-13.csv","xpyriment","Jazzy James","3.1.9","yes","yes","59a800d99ad5a1025d81bb03","59a801616c613b0251691de0","no","no","0","j","f","space","NA","space","space","j","1203","2537","21032","NA","29037","7892","1203","2","legacy","1024","1","44100","-16","experiment","elfal","2","0","1","1","0","Englisch, Chinesisch","13","Polnisch","odd","2236859","2215292","NA","NA","2239397","2236855","NA","1923505","2236381","1923506","1923506","2130493","2159535","2372671","2371165","2373876","2185978","2167714","2215292","NA","2051354","2119758","2213638","2167495","2236859","2167717","NA","2372671","2372671","NA","NA","2371161","NAP perception","46","49067","48","yes","1024"
"95.9183673469","yes","95.9183673469","1015.95918367","1015.95918367","white","no","xpyriment","Ich habe die obigen Informationen gelesen und verstanden.","legacy","legacy","0","uniform","1","0","0","undefined","undefined","1","j","2","1","NA","0","1","0","0","0","0","0","0","0","0","58","58","58","0","0","0","NA","0","0","2","0","0","0","2","58","58","58","58","58","Wed Oct 25 10:23:09 2017","Forced-choice identification task with a practice and an experimental phase","yes","NAP_GER_AA_4blocks_noglides.osexp","/Users/aviadalbert/Documents/Academisch/UoC/Dissertation/Experiment/OpenSesame/NAP-FC/NAP_GER_AA_4blocks_noglides","yes","no","sans","no","20","no","black","no","Weiter","yes","768","legacy","48","9","0","/Users/aviadalbert/Documents/Academisch/UoC/Dissertation/Experiment/OpenSesame/NAP-FC/NAP_GER_AA_4blocks_noglides/subject-13.csv","xpyriment","Jazzy James","3.1.9","yes","yes","59a800d99ad5a1025d81bb03","59a801616c613b0251691de0","no","no","0","j","f","space","NA","space","space","j","715","2537","21032","NA","29037","7892","715","2","legacy","1024","1","44100","-16","experiment","lemal","2","0","1","1","0","Englisch, Chinesisch","13","Polnisch","odd","2236859","2215292","NA","NA","2239397","2236855","NA","1923505","2236381","1923506","1923506","2130493","2159535","2375658","2374154","2376375","2185978","2167714","2215292","NA","2051354","2119758","2213638","2167495","2236859","2167717","NA","2375657","2375658","NA","NA","2374150","NAP perception","47","49782","49","yes","1024"
"96","yes","96","1011.56","1011.56","white","no","xpyriment","Ich habe die obigen Informationen gelesen und verstanden.","legacy","legacy","0","uniform","1","0","0","undefined","undefined","1","j","2","1","NA","0","1","0","0","0","0","0","0","0","0","59","59","59","0","0","0","NA","0","0","2","0","0","0","2","59","59","59","59","59","Wed Oct 25 10:23:09 2017","Forced-choice identification task with a practice and an experimental phase","yes","NAP_GER_AA_4blocks_noglides.osexp","/Users/aviadalbert/Documents/Academisch/UoC/Dissertation/Experiment/OpenSesame/NAP-FC/NAP_GER_AA_4blocks_noglides","yes","no","sans","no","20","no","black","no","Weiter","yes","768","legacy","49","9","0","/Users/aviadalbert/Documents/Academisch/UoC/Dissertation/Experiment/OpenSesame/NAP-FC/NAP_GER_AA_4blocks_noglides/subject-13.csv","xpyriment","Jazzy James","3.1.9","yes","yes","59a800d99ad5a1025d81bb03","59a801616c613b0251691de0","no","no","0","j","f","space","NA","space","space","j","796","2537","21032","NA","29037","7892","796","2","legacy","1024","1","44100","-16","experiment","eʃfal","2","0","1","1","0","Englisch, Chinesisch","13","Polnisch","odd","2236859","2215292","NA","NA","2239397","2236855","NA","1923505","2236381","1923506","1923506","2130493","2159535","2378154","2376651","2378951","2185978","2167714","2215292","NA","2051354","2119758","2213638","2167495","2236859","2167717","NA","2378154","2378154","NA","NA","2376647","NAP perception","48","50578","50","yes","1024"
"96.0784313725","yes","96.0784313725","1007.56862745","1007.56862745","white","no","xpyriment","Ich habe die obigen Informationen gelesen und verstanden.","legacy","legacy","0","uniform","1","0","0","undefined","undefined","1","f","2","1","NA","0","1","0","0","0","0","0","0","0","0","60","60","60","0","0","0","NA","0","0","2","0","0","0","2","60","60","60","60","60","Wed Oct 25 10:23:09 2017","Forced-choice identification task with a practice and an experimental phase","yes","NAP_GER_AA_4blocks_noglides.osexp","/Users/aviadalbert/Documents/Academisch/UoC/Dissertation/Experiment/OpenSesame/NAP-FC/NAP_GER_AA_4blocks_noglides","yes","no","sans","no","20","no","black","no","Weiter","yes","768","legacy","50","9","0","/Users/aviadalbert/Documents/Academisch/UoC/Dissertation/Experiment/OpenSesame/NAP-FC/NAP_GER_AA_4blocks_noglides/subject-13.csv","xpyriment","Jazzy James","3.1.9","yes","yes","59a800d99ad5a1025d81bb03","59a801616c613b0251691de0","no","no","0","f","f","space","NA","space","space","f","808","2537","21032","NA","29037","7892","808","2","legacy","1024","1","44100","-16","experiment","vzal","2","0","1","1","0","Englisch, Chinesisch","13","Polnisch","odd","2236859","2215292","NA","NA","2239397","2236855","NA","1923505","2236381","1923506","1923506","2130493","2159535","2380728","2379224","2381538","2185978","2167714","2215292","NA","2051354","2119758","2213638","2167495","2236859","2167717","NA","2380727","2380728","NA","NA","2379220","NAP perception","49","51386","51","yes","1024"
"96.1538461538","yes","96.1538461538","1009.42307692","1009.42307692","white","no","xpyriment","Ich habe die obigen Informationen gelesen und verstanden.","legacy","legacy","0","uniform","1","0","0","undefined","undefined","1","f","2","1","NA","0","1","0","0","0","0","0","0","0","0","61","61","61","0","0","0","NA","0","0","2","0","0","0","2","61","61","61","61","61","Wed Oct 25 10:23:09 2017","Forced-choice identification task with a practice and an experimental phase","yes","NAP_GER_AA_4blocks_noglides.osexp","/Users/aviadalbert/Documents/Academisch/UoC/Dissertation/Experiment/OpenSesame/NAP-FC/NAP_GER_AA_4blocks_noglides","yes","no","sans","no","20","no","black","no","Weiter","yes","768","legacy","51","9","0","/Users/aviadalbert/Documents/Academisch/UoC/Dissertation/Experiment/OpenSesame/NAP-FC/NAP_GER_AA_4blocks_noglides/subject-13.csv","xpyriment","Jazzy James","3.1.9","yes","yes","59a800d99ad5a1025d81bb03","59a801616c613b0251691de0","no","no","0","f","f","space","NA","space","space","f","1104","2537","21032","NA","29037","7892","1104","2","legacy","1024","1","44100","-16","experiment","msal","2","0","1","1","0","Englisch, Chinesisch","13","Polnisch","odd","2236859","2215292","NA","NA","2239397","2236855","NA","1923505","2236381","1923506","1923506","2130493","2159535","2383314","2381810","2384420","2185978","2167714","2215292","NA","2051354","2119758","2213638","2167495","2236859","2167717","NA","2383313","2383314","NA","NA","2381806","NAP perception","50","52490","52","yes","1024"
"96.2264150943","yes","96.2264150943","1009.79245283","1009.79245283","white","no","xpyriment","Ich habe die obigen Informationen gelesen und verstanden.","legacy","legacy","0","uniform","1","0","0","undefined","undefined","1","f","2","1","NA","0","1","0","0","0","0","0","0","0","0","62","62","62","0","0","0","NA","0","0","2","0","0","0","2","62","62","62","62","62","Wed Oct 25 10:23:09 2017","Forced-choice identification task with a practice and an experimental phase","yes","NAP_GER_AA_4blocks_noglides.osexp","/Users/aviadalbert/Documents/Academisch/UoC/Dissertation/Experiment/OpenSesame/NAP-FC/NAP_GER_AA_4blocks_noglides","yes","no","sans","no","20","no","black","no","Weiter","yes","768","legacy","52","9","0","/Users/aviadalbert/Documents/Academisch/UoC/Dissertation/Experiment/OpenSesame/NAP-FC/NAP_GER_AA_4blocks_noglides/subject-13.csv","xpyriment","Jazzy James","3.1.9","yes","yes","59a800d99ad5a1025d81bb03","59a801616c613b0251691de0","no","no","0","f","f","space","NA","space","space","f","1029","2537","21032","NA","29037","7892","1029","2","legacy","1024","1","44100","-16","experiment","ʃmal","2","0","1","1","0","Englisch, Chinesisch","13","Polnisch","odd","2236859","2215292","NA","NA","2239397","2236855","NA","1923505","2236381","1923506","1923506","2130493","2159535","2386185","2384682","2387215","2185978","2167714","2215292","NA","2051354","2119758","2213638","2167495","2236859","2167717","NA","2386185","2386185","NA","NA","2384678","NAP perception","51","53519","53","yes","1024"
"96.2962962963","yes","96.2962962963","1009.27777778","1009.27777778","white","no","xpyriment","Ich habe die obigen Informationen gelesen und verstanden.","legacy","legacy","0","uniform","1","0","0","undefined","undefined","1","j","2","1","NA","0","1","0","0","0","0","0","0","0","0","63","63","63","0","0","0","NA","0","0","2","0","0","0","2","63","63","63","63","63","Wed Oct 25 10:23:09 2017","Forced-choice identification task with a practice and an experimental phase","yes","NAP_GER_AA_4blocks_noglides.osexp","/Users/aviadalbert/Documents/Academisch/UoC/Dissertation/Experiment/OpenSesame/NAP-FC/NAP_GER_AA_4blocks_noglides","yes","no","sans","no","20","no","black","no","Weiter","yes","768","legacy","53","9","0","/Users/aviadalbert/Documents/Academisch/UoC/Dissertation/Experiment/OpenSesame/NAP-FC/NAP_GER_AA_4blocks_noglides/subject-13.csv","xpyriment","Jazzy James","3.1.9","yes","yes","59a800d99ad5a1025d81bb03","59a801616c613b0251691de0","no","no","0","j","f","space","NA","space","space","j","982","2537","21032","NA","29037","7892","982","2","legacy","1024","1","44100","-16","experiment","espal","2","0","1","1","0","Englisch, Chinesisch","13","Polnisch","odd","2236859","2215292","NA","NA","2239397","2236855","NA","1923505","2236381","1923506","1923506","2130493","2159535","2388992","2387485","2389977","2185978","2167714","2215292","NA","2051354","2119758","2213638","2167495","2236859","2167717","NA","2388991","2388991","NA","NA","2387481","NAP perception","52","54501","54","yes","1024"
