"acc","accept_status","accuracy","average_response_time","avg_rt","background","bidi","canvas_backend","checkbox_status","clock_backend","color_backend","compensation","coordinates","correct","correct_block_activation","correct_block_exit","correct_instructions_1","correct_instructions_2","correct_keyboard_response","correct_response","count_block_activation","count_block_exit","count_block_info_QA","count_cont_e_block_message","count_e_block_loop","count_e_block_sequence","count_end_of_experiment","count_experiment","count_experimental_loop","count_form_consent","count_info_forms","count_instructions_1","count_instructions_2","count_keyboard_response","count_listen_message","count_logger","count_p_block_loop","count_p_block_sequence","count_p_feedback","count_pause_feedback","count_personal_details_form_1","count_personal_details_form_2","count_post_loop_blank","count_practice_loop","count_pre_e_block_message","count_pre_p_block_message","count_reset_feedback","count_stimulus_image","count_stimulus_sound","count_timeout_message","count_timeout_sound","count_trial_sequence","datetime","description","disable_garbage_collection","experiment_file","experiment_path","expyriment_opengl","font_bold","font_family","font_italic","font_size","font_underline","foreground","form_clicks","form_response","fullscreen","height","keyboard_backend","live_row","live_row_p_block_loop","live_row_practice_loop","logfile","mouse_backend","opensesame_codename","opensesame_version","osf_always_upload_data","osf_always_upload_experiment","osf_datanode_id","osf_id","practice","pygame_doublebuf","repeat_cycle","response","response_block_activation","response_block_exit","response_block_info_QA","response_instructions_1","response_instructions_2","response_keyboard_response","response_time","response_time_block_activation","response_time_block_exit","response_time_block_info_QA","response_time_instructions_1","response_time_instructions_2","response_time_keyboard_response","round_decimals","sampler_backend","sound_buf_size","sound_channels","sound_freq","sound_sample_size","start","stimulus","subject_age","subject_education","subject_gender","subject_german_native","subject_handedness","subject_language_other","subject_nr","subject_other_native_lang","subject_parity","time_block_activation","time_block_exit","time_block_info_QA","time_cont_e_block_message","time_e_block_loop","time_e_block_sequence","time_end_of_experiment","time_experiment","time_experimental_loop","time_form_consent","time_info_forms","time_instructions_1","time_instructions_2","time_keyboard_response","time_listen_message","time_logger","time_p_block_loop","time_p_block_sequence","time_p_feedback","time_pause_feedback","time_personal_details_form_1","time_personal_details_form_2","time_post_loop_blank","time_practice_loop","time_pre_e_block_message","time_pre_p_block_message","time_reset_feedback","time_stimulus_image","time_stimulus_sound","time_timeout_message","time_timeout_sound","time_trial_sequence","title","total_correct","total_response_time","total_responses","uniform_coordinates","width"
"100","yes","100","1309","1309","white","no","xpyriment","Ich habe die obigen Informationen gelesen und verstanden.","legacy","legacy","0","uniform","1","0","NA","undefined","undefined","1","f","0","0","NA","NA","NA","NA","NA","0","0","0","0","0","0","0","0","0","0","0","NA","NA","0","0","0","0","NA","0","0","0","0","0","0","0","Wed Oct 25 09:59:07 2017","Forced-choice identification task with a practice and an experimental phase","yes","NAP_GER_AA_4blocks_noglides.osexp","/Users/aviadalbert/Documents/Academisch/UoC/Dissertation/Experiment/OpenSesame/NAP-FC/NAP_GER_AA_4blocks_noglides","yes","no","sans","no","20","no","black","no","Weiter","yes","768","legacy","0","0","0","/Users/aviadalbert/Documents/Academisch/UoC/Dissertation/Experiment/OpenSesame/NAP-FC/NAP_GER_AA_4blocks_noglides/subject-12.csv","xpyriment","Jazzy James","3.1.9","yes","yes","59a800d99ad5a1025d81bb03","59a801616c613b0251691de0","yes","no","0","f","f","NA","NA","space","space","f","1309","8086","NA","NA","21044","20290","1309","2","legacy","1024","1","44100","-16","experiment","flal","2","1","1","0","1","Englisch","12","","even","982394","NA","NA","NA","NA","NA","NA","481117","NA","481117","481117","940765","961813","992188","990683","993498","990481","982390","NA","NA","887912","928911","NA","982169","NA","982394","NA","992187","992187","NA","NA","990680","NAP perception","1","1309","1","yes","1024"
"100","yes","100","1017","1017","white","no","xpyriment","Ich habe die obigen Informationen gelesen und verstanden.","legacy","legacy","0","uniform","1","0","NA","undefined","undefined","1","j","0","0","NA","NA","NA","NA","NA","0","0","0","0","0","0","1","1","1","0","0","NA","NA","0","0","0","0","NA","0","0","1","1","1","1","1","Wed Oct 25 09:59:07 2017","Forced-choice identification task with a practice and an experimental phase","yes","NAP_GER_AA_4blocks_noglides.osexp","/Users/aviadalbert/Documents/Academisch/UoC/Dissertation/Experiment/OpenSesame/NAP-FC/NAP_GER_AA_4blocks_noglides","yes","no","sans","no","20","no","black","no","Weiter","yes","768","legacy","1","1","0","/Users/aviadalbert/Documents/Academisch/UoC/Dissertation/Experiment/OpenSesame/NAP-FC/NAP_GER_AA_4blocks_noglides/subject-12.csv","xpyriment","Jazzy James","3.1.9","yes","yes","59a800d99ad5a1025d81bb03","59a801616c613b0251691de0","yes","no","0","j","f","NA","NA","space","space","j","725","8086","NA","NA","21044","20290","725","2","legacy","1024","1","44100","-16","experiment","lepal","2","1","1","0","1","Englisch","12","","even","982394","NA","NA","NA","NA","NA","NA","481117","NA","481117","481117","940765","961813","995284","993779","996010","990481","982390","NA","NA","887912","928911","NA","982169","NA","982394","NA","995284","995284","NA","NA","993775","NAP perception","2","2034","2","yes","1024"
"100","yes","100","924.333333333","924.333333333","white","no","xpyriment","Ich habe die obigen Informationen gelesen und verstanden.","legacy","legacy","0","uniform","1","0","NA","undefined","undefined","1","j","0","0","NA","NA","NA","NA","NA","0","0","0","0","0","0","2","2","2","0","0","NA","NA","0","0","0","0","NA","0","0","2","2","2","2","2","Wed Oct 25 09:59:07 2017","Forced-choice identification task with a practice and an experimental phase","yes","NAP_GER_AA_4blocks_noglides.osexp","/Users/aviadalbert/Documents/Academisch/UoC/Dissertation/Experiment/OpenSesame/NAP-FC/NAP_GER_AA_4blocks_noglides","yes","no","sans","no","20","no","black","no","Weiter","yes","768","legacy","2","2","0","/Users/aviadalbert/Documents/Academisch/UoC/Dissertation/Experiment/OpenSesame/NAP-FC/NAP_GER_AA_4blocks_noglides/subject-12.csv","xpyriment","Jazzy James","3.1.9","yes","yes","59a800d99ad5a1025d81bb03","59a801616c613b0251691de0","yes","no","0","j","f","NA","NA","space","space","j","739","8086","NA","NA","21044","20290","739","2","legacy","1024","1","44100","-16","experiment","emtal","2","1","1","0","1","Englisch","12","","even","982394","NA","NA","NA","NA","NA","NA","481117","NA","481117","481117","940765","961813","997799","996294","998539","990481","982390","NA","NA","887912","928911","NA","982169","NA","982394","NA","997798","997798","NA","NA","996290","NAP perception","3","2773","3","yes","1024"
"100","yes","100","931.25","931.25","white","no","xpyriment","Ich habe die obigen Informationen gelesen und verstanden.","legacy","legacy","0","uniform","1","0","NA","undefined","undefined","1","f","0","0","NA","NA","NA","NA","NA","0","0","0","0","0","0","3","3","3","0","0","NA","NA","0","0","0","0","NA","0","0","3","3","3","3","3","Wed Oct 25 09:59:07 2017","Forced-choice identification task with a practice and an experimental phase","yes","NAP_GER_AA_4blocks_noglides.osexp","/Users/aviadalbert/Documents/Academisch/UoC/Dissertation/Experiment/OpenSesame/NAP-FC/NAP_GER_AA_4blocks_noglides","yes","no","sans","no","20","no","black","no","Weiter","yes","768","legacy","3","3","0","/Users/aviadalbert/Documents/Academisch/UoC/Dissertation/Experiment/OpenSesame/NAP-FC/NAP_GER_AA_4blocks_noglides/subject-12.csv","xpyriment","Jazzy James","3.1.9","yes","yes","59a800d99ad5a1025d81bb03","59a801616c613b0251691de0","yes","no","0","f","f","NA","NA","space","space","f","952","8086","NA","NA","21044","20290","952","2","legacy","1024","1","44100","-16","experiment","ʃpal","2","1","1","0","1","Englisch","12","","even","982394","NA","NA","NA","NA","NA","NA","481117","NA","481117","481117","940765","961813","1000316","998812","1001269","990481","982390","NA","NA","887912","928911","NA","982169","NA","982394","NA","1000315","1000315","NA","NA","998808","NAP perception","4","3725","4","yes","1024"
"100","yes","100","909.6","909.6","white","no","xpyriment","Ich habe die obigen Informationen gelesen und verstanden.","legacy","legacy","0","uniform","1","0","NA","undefined","undefined","1","j","0","0","NA","NA","NA","NA","NA","0","0","0","0","0","0","4","4","4","0","0","NA","NA","0","0","0","0","NA","0","0","4","4","4","4","4","Wed Oct 25 09:59:07 2017","Forced-choice identification task with a practice and an experimental phase","yes","NAP_GER_AA_4blocks_noglides.osexp","/Users/aviadalbert/Documents/Academisch/UoC/Dissertation/Experiment/OpenSesame/NAP-FC/NAP_GER_AA_4blocks_noglides","yes","no","sans","no","20","no","black","no","Weiter","yes","768","legacy","4","4","0","/Users/aviadalbert/Documents/Academisch/UoC/Dissertation/Experiment/OpenSesame/NAP-FC/NAP_GER_AA_4blocks_noglides/subject-12.csv","xpyriment","Jazzy James","3.1.9","yes","yes","59a800d99ad5a1025d81bb03","59a801616c613b0251691de0","yes","no","0","j","f","NA","NA","space","space","j","823","8086","NA","NA","21044","20290","823","2","legacy","1024","1","44100","-16","experiment","nefal","2","1","1","0","1","Englisch","12","","even","982394","NA","NA","NA","NA","NA","NA","481117","NA","481117","481117","940765","961813","1003055","1001550","1003880","990481","982390","NA","NA","887912","928911","NA","982169","NA","982394","NA","1003055","1003055","NA","NA","1001546","NAP perception","5","4548","5","yes","1024"
"100","yes","100","909.5","909.5","white","no","xpyriment","Ich habe die obigen Informationen gelesen und verstanden.","legacy","legacy","0","uniform","1","0","NA","undefined","undefined","1","f","0","0","NA","NA","NA","NA","NA","0","0","0","0","0","0","5","5","5","0","0","NA","NA","0","0","0","0","NA","0","0","5","5","5","5","5","Wed Oct 25 09:59:07 2017","Forced-choice identification task with a practice and an experimental phase","yes","NAP_GER_AA_4blocks_noglides.osexp","/Users/aviadalbert/Documents/Academisch/UoC/Dissertation/Experiment/OpenSesame/NAP-FC/NAP_GER_AA_4blocks_noglides","yes","no","sans","no","20","no","black","no","Weiter","yes","768","legacy","5","5","0","/Users/aviadalbert/Documents/Academisch/UoC/Dissertation/Experiment/OpenSesame/NAP-FC/NAP_GER_AA_4blocks_noglides/subject-12.csv","xpyriment","Jazzy James","3.1.9","yes","yes","59a800d99ad5a1025d81bb03","59a801616c613b0251691de0","yes","no","0","f","f","NA","NA","space","space","f","909","8086","NA","NA","21044","20290","909","2","legacy","1024","1","44100","-16","experiment","sfal","2","1","1","0","1","Englisch","12","","even","982394","NA","NA","NA","NA","NA","NA","481117","NA","481117","481117","940765","961813","1005659","1004154","1006570","990481","982390","NA","NA","887912","928911","NA","982169","NA","982394","NA","1005659","1005659","NA","NA","1004150","NAP perception","6","5457","6","yes","1024"
"100","yes","100","1060.71428571","1060.71428571","white","no","xpyriment","Ich habe die obigen Informationen gelesen und verstanden.","legacy","legacy","0","uniform","1","0","NA","undefined","undefined","1","f","0","0","NA","NA","NA","NA","NA","0","0","0","0","0","0","6","6","6","0","0","NA","NA","0","0","0","0","NA","0","0","6","6","6","6","6","Wed Oct 25 09:59:07 2017","Forced-choice identification task with a practice and an experimental phase","yes","NAP_GER_AA_4blocks_noglides.osexp","/Users/aviadalbert/Documents/Academisch/UoC/Dissertation/Experiment/OpenSesame/NAP-FC/NAP_GER_AA_4blocks_noglides","yes","no","sans","no","20","no","black","no","Weiter","yes","768","legacy","6","6","0","/Users/aviadalbert/Documents/Academisch/UoC/Dissertation/Experiment/OpenSesame/NAP-FC/NAP_GER_AA_4blocks_noglides/subject-12.csv","xpyriment","Jazzy James","3.1.9","yes","yes","59a800d99ad5a1025d81bb03","59a801616c613b0251691de0","yes","no","0","f","f","NA","NA","space","space","f","1968","8086","NA","NA","21044","20290","1968","2","legacy","1024","1","44100","-16","experiment","zmal","2","1","1","0","1","Englisch","12","","even","982394","NA","NA","NA","NA","NA","NA","481117","NA","481117","481117","940765","961813","1008349","1006842","1010318","990481","982390","NA","NA","887912","928911","NA","982169","NA","982394","NA","1008348","1008348","NA","NA","1006838","NAP perception","7","7425","7","yes","1024"
"100","yes","100","1082.75","1082.75","white","no","xpyriment","Ich habe die obigen Informationen gelesen und verstanden.","legacy","legacy","0","uniform","1","0","NA","undefined","undefined","1","j","0","0","NA","NA","NA","NA","NA","0","0","0","0","0","0","7","7","7","0","0","NA","NA","0","0","0","0","NA","0","0","7","7","7","7","7","Wed Oct 25 09:59:07 2017","Forced-choice identification task with a practice and an experimental phase","yes","NAP_GER_AA_4blocks_noglides.osexp","/Users/aviadalbert/Documents/Academisch/UoC/Dissertation/Experiment/OpenSesame/NAP-FC/NAP_GER_AA_4blocks_noglides","yes","no","sans","no","20","no","black","no","Weiter","yes","768","legacy","7","7","0","/Users/aviadalbert/Documents/Academisch/UoC/Dissertation/Experiment/OpenSesame/NAP-FC/NAP_GER_AA_4blocks_noglides/subject-12.csv","xpyriment","Jazzy James","3.1.9","yes","yes","59a800d99ad5a1025d81bb03","59a801616c613b0251691de0","yes","no","0","j","f","NA","NA","space","space","j","1237","8086","NA","NA","21044","20290","1237","2","legacy","1024","1","44100","-16","experiment","mesal","2","1","1","0","1","Englisch","12","","even","982394","NA","NA","NA","NA","NA","NA","481117","NA","481117","481117","940765","961813","1012082","1010578","1013320","990481","982390","NA","NA","887912","928911","NA","982169","NA","982394","NA","1012081","1012081","NA","NA","1010574","NAP perception","8","8662","8","yes","1024"
"100","yes","100","1087.11111111","1087.11111111","white","no","xpyriment","Ich habe die obigen Informationen gelesen und verstanden.","legacy","legacy","0","uniform","1","0","NA","undefined","undefined","1","j","0","0","NA","NA","NA","NA","NA","0","0","0","0","0","0","8","8","8","0","0","NA","NA","0","0","0","0","NA","0","0","8","8","8","8","8","Wed Oct 25 09:59:07 2017","Forced-choice identification task with a practice and an experimental phase","yes","NAP_GER_AA_4blocks_noglides.osexp","/Users/aviadalbert/Documents/Academisch/UoC/Dissertation/Experiment/OpenSesame/NAP-FC/NAP_GER_AA_4blocks_noglides","yes","no","sans","no","20","no","black","no","Weiter","yes","768","legacy","8","8","0","/Users/aviadalbert/Documents/Academisch/UoC/Dissertation/Experiment/OpenSesame/NAP-FC/NAP_GER_AA_4blocks_noglides/subject-12.csv","xpyriment","Jazzy James","3.1.9","yes","yes","59a800d99ad5a1025d81bb03","59a801616c613b0251691de0","yes","no","0","j","f","NA","NA","space","space","j","1122","8086","NA","NA","21044","20290","1122","2","legacy","1024","1","44100","-16","experiment","enval","2","1","1","0","1","Englisch","12","","even","982394","NA","NA","NA","NA","NA","NA","481117","NA","481117","481117","940765","961813","1015098","1013593","1016221","990481","982390","NA","NA","887912","928911","NA","982169","NA","982394","NA","1015097","1015097","NA","NA","1013589","NAP perception","9","9784","9","yes","1024"
"100","yes","100","1110.1","1110.1","white","no","xpyriment","Ich habe die obigen Informationen gelesen und verstanden.","legacy","legacy","0","uniform","1","0","NA","undefined","undefined","1","f","0","0","NA","NA","NA","NA","NA","0","0","0","0","0","0","9","9","9","0","0","NA","NA","0","0","0","0","NA","0","0","9","9","9","9","9","Wed Oct 25 09:59:07 2017","Forced-choice identification task with a practice and an experimental phase","yes","NAP_GER_AA_4blocks_noglides.osexp","/Users/aviadalbert/Documents/Academisch/UoC/Dissertation/Experiment/OpenSesame/NAP-FC/NAP_GER_AA_4blocks_noglides","yes","no","sans","no","20","no","black","no","Weiter","yes","768","legacy","9","9","0","/Users/aviadalbert/Documents/Academisch/UoC/Dissertation/Experiment/OpenSesame/NAP-FC/NAP_GER_AA_4blocks_noglides/subject-12.csv","xpyriment","Jazzy James","3.1.9","yes","yes","59a800d99ad5a1025d81bb03","59a801616c613b0251691de0","yes","no","0","f","f","NA","NA","space","space","f","1317","8086","NA","NA","21044","20290","1317","2","legacy","1024","1","44100","-16","experiment","vlal","2","1","1","0","1","Englisch","12","","even","982394","NA","NA","NA","NA","NA","NA","481117","NA","481117","481117","940765","961813","1017997","1016492","1019315","990481","982390","NA","NA","887912","928911","NA","982169","NA","982394","NA","1017997","1017997","NA","NA","1016488","NAP perception","10","11101","10","yes","1024"
"0","yes","0","2660","2660","white","no","xpyriment","Ich habe die obigen Informationen gelesen und verstanden.","legacy","legacy","0","uniform","0","0","0","undefined","undefined","0","j","2","1","NA","0","1","0","0","0","0","0","0","0","0","10","10","10","0","0","0","NA","0","0","2","0","0","0","2","10","10","10","10","10","Wed Oct 25 09:59:07 2017","Forced-choice identification task with a practice and an experimental phase","yes","NAP_GER_AA_4blocks_noglides.osexp","/Users/aviadalbert/Documents/Academisch/UoC/Dissertation/Experiment/OpenSesame/NAP-FC/NAP_GER_AA_4blocks_noglides","yes","no","sans","no","20","no","black","no","Weiter","yes","768","legacy","0","9","0","/Users/aviadalbert/Documents/Academisch/UoC/Dissertation/Experiment/OpenSesame/NAP-FC/NAP_GER_AA_4blocks_noglides/subject-12.csv","xpyriment","Jazzy James","3.1.9","yes","yes","59a800d99ad5a1025d81bb03","59a801616c613b0251691de0","no","no","0","f","f","space","NA","space","space","f","2660","4112","24221","NA","21044","20290","2660","2","legacy","1024","1","44100","-16","experiment","evzal","2","1","1","0","1","Englisch","12","","even","1045781","1021031","NA","NA","1049894","1045777","NA","481117","1045307","481117","481117","940765","961813","1051615","1050110","1054276","990481","982390","1021031","NA","887912","928911","1019379","982169","1045781","982394","NA","1051614","1051614","NA","NA","1050106","NAP perception","0","2660","1","yes","1024"
"50","yes","50","1916.5","1916.5","white","no","xpyriment","Ich habe die obigen Informationen gelesen und verstanden.","legacy","legacy","0","uniform","1","0","0","undefined","undefined","1","f","2","1","NA","0","1","0","0","0","0","0","0","0","0","11","11","11","0","0","0","NA","0","0","2","0","0","0","2","11","11","11","11","11","Wed Oct 25 09:59:07 2017","Forced-choice identification task with a practice and an experimental phase","yes","NAP_GER_AA_4blocks_noglides.osexp","/Users/aviadalbert/Documents/Academisch/UoC/Dissertation/Experiment/OpenSesame/NAP-FC/NAP_GER_AA_4blocks_noglides","yes","no","sans","no","20","no","black","no","Weiter","yes","768","legacy","1","9","0","/Users/aviadalbert/Documents/Academisch/UoC/Dissertation/Experiment/OpenSesame/NAP-FC/NAP_GER_AA_4blocks_noglides/subject-12.csv","xpyriment","Jazzy James","3.1.9","yes","yes","59a800d99ad5a1025d81bb03","59a801616c613b0251691de0","no","no","0","f","f","space","NA","space","space","f","1173","4112","24221","NA","21044","20290","1173","2","legacy","1024","1","44100","-16","experiment","fsal","2","1","1","0","1","Englisch","12","","even","1045781","1021031","NA","NA","1049894","1045777","NA","481117","1045307","481117","481117","940765","961813","1056049","1054544","1057223","990481","982390","1021031","NA","887912","928911","1019379","982169","1045781","982394","NA","1056048","1056048","NA","NA","1054540","NAP perception","1","3833","2","yes","1024"
"66.6666666667","yes","66.6666666667","1818.66666667","1818.66666667","white","no","xpyriment","Ich habe die obigen Informationen gelesen und verstanden.","legacy","legacy","0","uniform","1","0","0","undefined","undefined","1","f","2","1","NA","0","1","0","0","0","0","0","0","0","0","12","12","12","0","0","0","NA","0","0","2","0","0","0","2","12","12","12","12","12","Wed Oct 25 09:59:07 2017","Forced-choice identification task with a practice and an experimental phase","yes","NAP_GER_AA_4blocks_noglides.osexp","/Users/aviadalbert/Documents/Academisch/UoC/Dissertation/Experiment/OpenSesame/NAP-FC/NAP_GER_AA_4blocks_noglides","yes","no","sans","no","20","no","black","no","Weiter","yes","768","legacy","2","9","0","/Users/aviadalbert/Documents/Academisch/UoC/Dissertation/Experiment/OpenSesame/NAP-FC/NAP_GER_AA_4blocks_noglides/subject-12.csv","xpyriment","Jazzy James","3.1.9","yes","yes","59a800d99ad5a1025d81bb03","59a801616c613b0251691de0","no","no","0","f","f","space","NA","space","space","f","1623","4112","24221","NA","21044","20290","1623","2","legacy","1024","1","44100","-16","experiment","zmal","2","1","1","0","1","Englisch","12","","even","1045781","1021031","NA","NA","1049894","1045777","NA","481117","1045307","481117","481117","940765","961813","1058996","1057492","1060620","990481","982390","1021031","NA","887912","928911","1019379","982169","1045781","982394","NA","1058996","1058996","NA","NA","1057488","NAP perception","2","5456","3","yes","1024"
"75","yes","75","1837.25","1837.25","white","no","xpyriment","Ich habe die obigen Informationen gelesen und verstanden.","legacy","legacy","0","uniform","1","0","0","undefined","undefined","1","f","2","1","NA","0","1","0","0","0","0","0","0","0","0","13","13","13","0","0","0","NA","0","0","2","0","0","0","2","13","13","13","13","13","Wed Oct 25 09:59:07 2017","Forced-choice identification task with a practice and an experimental phase","yes","NAP_GER_AA_4blocks_noglides.osexp","/Users/aviadalbert/Documents/Academisch/UoC/Dissertation/Experiment/OpenSesame/NAP-FC/NAP_GER_AA_4blocks_noglides","yes","no","sans","no","20","no","black","no","Weiter","yes","768","legacy","3","9","0","/Users/aviadalbert/Documents/Academisch/UoC/Dissertation/Experiment/OpenSesame/NAP-FC/NAP_GER_AA_4blocks_noglides/subject-12.csv","xpyriment","Jazzy James","3.1.9","yes","yes","59a800d99ad5a1025d81bb03","59a801616c613b0251691de0","no","no","0","f","f","space","NA","space","space","f","1893","4112","24221","NA","21044","20290","1893","2","legacy","1024","1","44100","-16","experiment","mzal","2","1","1","0","1","Englisch","12","","even","1045781","1021031","NA","NA","1049894","1045777","NA","481117","1045307","481117","481117","940765","961813","1062410","1060906","1064304","990481","982390","1021031","NA","887912","928911","1019379","982169","1045781","982394","NA","1062409","1062409","NA","NA","1060902","NAP perception","3","7349","4","yes","1024"
"80","yes","80","1763.2","1763.2","white","no","xpyriment","Ich habe die obigen Informationen gelesen und verstanden.","legacy","legacy","0","uniform","1","0","0","undefined","undefined","1","f","2","1","NA","0","1","0","0","0","0","0","0","0","0","14","14","14","0","0","0","NA","0","0","2","0","0","0","2","14","14","14","14","14","Wed Oct 25 09:59:07 2017","Forced-choice identification task with a practice and an experimental phase","yes","NAP_GER_AA_4blocks_noglides.osexp","/Users/aviadalbert/Documents/Academisch/UoC/Dissertation/Experiment/OpenSesame/NAP-FC/NAP_GER_AA_4blocks_noglides","yes","no","sans","no","20","no","black","no","Weiter","yes","768","legacy","4","9","0","/Users/aviadalbert/Documents/Academisch/UoC/Dissertation/Experiment/OpenSesame/NAP-FC/NAP_GER_AA_4blocks_noglides/subject-12.csv","xpyriment","Jazzy James","3.1.9","yes","yes","59a800d99ad5a1025d81bb03","59a801616c613b0251691de0","no","no","0","f","f","space","NA","space","space","f","1467","4112","24221","NA","21044","20290","1467","2","legacy","1024","1","44100","-16","experiment","ʃpal","2","1","1","0","1","Englisch","12","","even","1045781","1021031","NA","NA","1049894","1045777","NA","481117","1045307","481117","481117","940765","961813","1066086","1064580","1067554","990481","982390","1021031","NA","887912","928911","1019379","982169","1045781","982394","NA","1066086","1066086","NA","NA","1064576","NAP perception","4","8816","5","yes","1024"
"83.3333333333","yes","83.3333333333","1743.5","1743.5","white","no","xpyriment","Ich habe die obigen Informationen gelesen und verstanden.","legacy","legacy","0","uniform","1","0","0","undefined","undefined","1","j","2","1","NA","0","1","0","0","0","0","0","0","0","0","15","15","15","0","0","0","NA","0","0","2","0","0","0","2","15","15","15","15","15","Wed Oct 25 09:59:07 2017","Forced-choice identification task with a practice and an experimental phase","yes","NAP_GER_AA_4blocks_noglides.osexp","/Users/aviadalbert/Documents/Academisch/UoC/Dissertation/Experiment/OpenSesame/NAP-FC/NAP_GER_AA_4blocks_noglides","yes","no","sans","no","20","no","black","no","Weiter","yes","768","legacy","5","9","0","/Users/aviadalbert/Documents/Academisch/UoC/Dissertation/Experiment/OpenSesame/NAP-FC/NAP_GER_AA_4blocks_noglides/subject-12.csv","xpyriment","Jazzy James","3.1.9","yes","yes","59a800d99ad5a1025d81bb03","59a801616c613b0251691de0","no","no","0","j","f","space","NA","space","space","j","1645","4112","24221","NA","21044","20290","1645","2","legacy","1024","1","44100","-16","experiment","efsal","2","1","1","0","1","Englisch","12","","even","1045781","1021031","NA","NA","1049894","1045777","NA","481117","1045307","481117","481117","940765","961813","1069318","1067814","1070965","990481","982390","1021031","NA","887912","928911","1019379","982169","1045781","982394","NA","1069318","1069318","NA","NA","1067809","NAP perception","5","10461","6","yes","1024"
"71.4285714286","yes","71.4285714286","1681.71428571","1681.71428571","white","no","xpyriment","Ich habe die obigen Informationen gelesen und verstanden.","legacy","legacy","0","uniform","0","0","0","undefined","undefined","0","j","2","1","NA","0","1","0","0","0","0","0","0","0","0","16","16","16","0","0","0","NA","0","0","2","0","0","0","2","16","16","16","16","16","Wed Oct 25 09:59:07 2017","Forced-choice identification task with a practice and an experimental phase","yes","NAP_GER_AA_4blocks_noglides.osexp","/Users/aviadalbert/Documents/Academisch/UoC/Dissertation/Experiment/OpenSesame/NAP-FC/NAP_GER_AA_4blocks_noglides","yes","no","sans","no","20","no","black","no","Weiter","yes","768","legacy","6","9","0","/Users/aviadalbert/Documents/Academisch/UoC/Dissertation/Experiment/OpenSesame/NAP-FC/NAP_GER_AA_4blocks_noglides/subject-12.csv","xpyriment","Jazzy James","3.1.9","yes","yes","59a800d99ad5a1025d81bb03","59a801616c613b0251691de0","no","no","0","f","f","space","NA","space","space","f","1311","4112","24221","NA","21044","20290","1311","2","legacy","1024","1","44100","-16","experiment","vezal","2","1","1","0","1","Englisch","12","","even","1045781","1021031","NA","NA","1049894","1045777","NA","481117","1045307","481117","481117","940765","961813","1072743","1071238","1074055","990481","982390","1021031","NA","887912","928911","1019379","982169","1045781","982394","NA","1072743","1072743","NA","NA","1071234","NAP perception","5","11772","7","yes","1024"
"62.5","yes","62.5","1846.5","1846.5","white","no","xpyriment","Ich habe die obigen Informationen gelesen und verstanden.","legacy","legacy","0","uniform","0","0","0","undefined","undefined","0","j","2","1","NA","0","1","0","0","0","0","0","0","0","0","17","17","17","0","0","0","NA","0","0","2","0","0","0","2","17","17","17","17","17","Wed Oct 25 09:59:07 2017","Forced-choice identification task with a practice and an experimental phase","yes","NAP_GER_AA_4blocks_noglides.osexp","/Users/aviadalbert/Documents/Academisch/UoC/Dissertation/Experiment/OpenSesame/NAP-FC/NAP_GER_AA_4blocks_noglides","yes","no","sans","no","20","no","black","no","Weiter","yes","768","legacy","7","9","0","/Users/aviadalbert/Documents/Academisch/UoC/Dissertation/Experiment/OpenSesame/NAP-FC/NAP_GER_AA_4blocks_noglides/subject-12.csv","xpyriment","Jazzy James","3.1.9","yes","yes","59a800d99ad5a1025d81bb03","59a801616c613b0251691de0","no","no","0","None","f","space","NA","space","space","None","3000","4112","24221","NA","21044","20290","3000","2","legacy","1024","1","44100","-16","experiment","evlal","2","1","1","0","1","Englisch","12","","even","1045781","1021031","NA","NA","1049894","1045777","NA","481117","1045307","481117","481117","940765","961813","1075834","1074327","1079838","990481","982390","1021031","NA","887912","928911","1019379","982169","1045781","982394","NA","1075834","1075834","1078838","1078834","1074323","NAP perception","5","14772","8","yes","1024"
"66.6666666667","yes","66.6666666667","1780","1780","white","no","xpyriment","Ich habe die obigen Informationen gelesen und verstanden.","legacy","legacy","0","uniform","1","0","0","undefined","undefined","1","f","2","1","NA","0","1","0","0","0","0","0","0","0","0","18","18","18","0","0","0","NA","0","0","2","0","0","0","2","18","18","18","18","18","Wed Oct 25 09:59:07 2017","Forced-choice identification task with a practice and an experimental phase","yes","NAP_GER_AA_4blocks_noglides.osexp","/Users/aviadalbert/Documents/Academisch/UoC/Dissertation/Experiment/OpenSesame/NAP-FC/NAP_GER_AA_4blocks_noglides","yes","no","sans","no","20","no","black","no","Weiter","yes","768","legacy","8","9","0","/Users/aviadalbert/Documents/Academisch/UoC/Dissertation/Experiment/OpenSesame/NAP-FC/NAP_GER_AA_4blocks_noglides/subject-12.csv","xpyriment","Jazzy James","3.1.9","yes","yes","59a800d99ad5a1025d81bb03","59a801616c613b0251691de0","no","no","0","f","f","space","NA","space","space","f","1248","4112","24221","NA","21044","20290","1248","2","legacy","1024","1","44100","-16","experiment","mtal","2","1","1","0","1","Englisch","12","","even","1045781","1021031","NA","NA","1049894","1045777","NA","481117","1045307","481117","481117","940765","961813","1081626","1080121","1082875","990481","982390","1021031","NA","887912","928911","1019379","982169","1045781","982394","NA","1081626","1081626","1078838","1078834","1080116","NAP perception","6","16020","9","yes","1024"
"60","yes","60","1801.2","1801.2","white","no","xpyriment","Ich habe die obigen Informationen gelesen und verstanden.","legacy","legacy","0","uniform","0","0","0","undefined","undefined","0","f","2","1","NA","0","1","0","0","0","0","0","0","0","0","19","19","19","0","0","0","NA","0","0","2","0","0","0","2","19","19","19","19","19","Wed Oct 25 09:59:07 2017","Forced-choice identification task with a practice and an experimental phase","yes","NAP_GER_AA_4blocks_noglides.osexp","/Users/aviadalbert/Documents/Academisch/UoC/Dissertation/Experiment/OpenSesame/NAP-FC/NAP_GER_AA_4blocks_noglides","yes","no","sans","no","20","no","black","no","Weiter","yes","768","legacy","9","9","0","/Users/aviadalbert/Documents/Academisch/UoC/Dissertation/Experiment/OpenSesame/NAP-FC/NAP_GER_AA_4blocks_noglides/subject-12.csv","xpyriment","Jazzy James","3.1.9","yes","yes","59a800d99ad5a1025d81bb03","59a801616c613b0251691de0","no","no","0","j","f","space","NA","space","space","j","1992","4112","24221","NA","21044","20290","1992","2","legacy","1024","1","44100","-16","experiment","npal","2","1","1","0","1","Englisch","12","","even","1045781","1021031","NA","NA","1049894","1045777","NA","481117","1045307","481117","481117","940765","961813","1084655","1083150","1086649","990481","982390","1021031","NA","887912","928911","1019379","982169","1045781","982394","NA","1084655","1084655","1078838","1078834","1083145","NAP perception","6","18012","10","yes","1024"
"63.6363636364","yes","63.6363636364","1737.18181818","1737.18181818","white","no","xpyriment","Ich habe die obigen Informationen gelesen und verstanden.","legacy","legacy","0","uniform","1","0","0","undefined","undefined","1","f","2","1","NA","0","1","0","0","0","0","0","0","0","0","20","20","20","0","0","0","NA","0","0","2","0","0","0","2","20","20","20","20","20","Wed Oct 25 09:59:07 2017","Forced-choice identification task with a practice and an experimental phase","yes","NAP_GER_AA_4blocks_noglides.osexp","/Users/aviadalbert/Documents/Academisch/UoC/Dissertation/Experiment/OpenSesame/NAP-FC/NAP_GER_AA_4blocks_noglides","yes","no","sans","no","20","no","black","no","Weiter","yes","768","legacy","10","9","0","/Users/aviadalbert/Documents/Academisch/UoC/Dissertation/Experiment/OpenSesame/NAP-FC/NAP_GER_AA_4blocks_noglides/subject-12.csv","xpyriment","Jazzy James","3.1.9","yes","yes","59a800d99ad5a1025d81bb03","59a801616c613b0251691de0","no","no","0","f","f","space","NA","space","space","f","1097","4112","24221","NA","21044","20290","1097","2","legacy","1024","1","44100","-16","experiment","nfal","2","1","1","0","1","Englisch","12","","even","1045781","1021031","NA","NA","1049894","1045777","NA","481117","1045307","481117","481117","940765","961813","1088432","1086928","1089530","990481","982390","1021031","NA","887912","928911","1019379","982169","1045781","982394","NA","1088431","1088431","1078838","1078834","1086923","NAP perception","7","19109","11","yes","1024"
"66.6666666667","yes","66.6666666667","1705.66666667","1705.66666667","white","no","xpyriment","Ich habe die obigen Informationen gelesen und verstanden.","legacy","legacy","0","uniform","1","0","0","undefined","undefined","1","j","2","1","NA","0","1","0","0","0","0","0","0","0","0","21","21","21","0","0","0","NA","0","0","2","0","0","0","2","21","21","21","21","21","Wed Oct 25 09:59:07 2017","Forced-choice identification task with a practice and an experimental phase","yes","NAP_GER_AA_4blocks_noglides.osexp","/Users/aviadalbert/Documents/Academisch/UoC/Dissertation/Experiment/OpenSesame/NAP-FC/NAP_GER_AA_4blocks_noglides","yes","no","sans","no","20","no","black","no","Weiter","yes","768","legacy","11","9","0","/Users/aviadalbert/Documents/Academisch/UoC/Dissertation/Experiment/OpenSesame/NAP-FC/NAP_GER_AA_4blocks_noglides/subject-12.csv","xpyriment","Jazzy James","3.1.9","yes","yes","59a800d99ad5a1025d81bb03","59a801616c613b0251691de0","no","no","0","j","f","space","NA","space","space","j","1359","4112","24221","NA","21044","20290","1359","2","legacy","1024","1","44100","-16","experiment","neval","2","1","1","0","1","Englisch","12","","even","1045781","1021031","NA","NA","1049894","1045777","NA","481117","1045307","481117","481117","940765","961813","1091299","1089795","1092659","990481","982390","1021031","NA","887912","928911","1019379","982169","1045781","982394","NA","1091299","1091299","1078838","1078834","1089790","NAP perception","8","20468","12","yes","1024"
"69.2307692308","yes","69.2307692308","1659","1659","white","no","xpyriment","Ich habe die obigen Informationen gelesen und verstanden.","legacy","legacy","0","uniform","1","0","0","undefined","undefined","1","f","2","1","NA","0","1","0","0","0","0","0","0","0","0","22","22","22","0","0","0","NA","0","0","2","0","0","0","2","22","22","22","22","22","Wed Oct 25 09:59:07 2017","Forced-choice identification task with a practice and an experimental phase","yes","NAP_GER_AA_4blocks_noglides.osexp","/Users/aviadalbert/Documents/Academisch/UoC/Dissertation/Experiment/OpenSesame/NAP-FC/NAP_GER_AA_4blocks_noglides","yes","no","sans","no","20","no","black","no","Weiter","yes","768","legacy","12","9","0","/Users/aviadalbert/Documents/Academisch/UoC/Dissertation/Experiment/OpenSesame/NAP-FC/NAP_GER_AA_4blocks_noglides/subject-12.csv","xpyriment","Jazzy James","3.1.9","yes","yes","59a800d99ad5a1025d81bb03","59a801616c613b0251691de0","no","no","0","f","f","space","NA","space","space","f","1099","4112","24221","NA","21044","20290","1099","2","legacy","1024","1","44100","-16","experiment","ʃpal","2","1","1","0","1","Englisch","12","","even","1045781","1021031","NA","NA","1049894","1045777","NA","481117","1045307","481117","481117","940765","961813","1094433","1092929","1095534","990481","982390","1021031","NA","887912","928911","1019379","982169","1045781","982394","NA","1094432","1094432","1078838","1078834","1092924","NAP perception","9","21567","13","yes","1024"
"64.2857142857","yes","64.2857142857","1649.42857143","1649.42857143","white","no","xpyriment","Ich habe die obigen Informationen gelesen und verstanden.","legacy","legacy","0","uniform","0","0","0","undefined","undefined","0","j","2","1","NA","0","1","0","0","0","0","0","0","0","0","23","23","23","0","0","0","NA","0","0","2","0","0","0","2","23","23","23","23","23","Wed Oct 25 09:59:07 2017","Forced-choice identification task with a practice and an experimental phase","yes","NAP_GER_AA_4blocks_noglides.osexp","/Users/aviadalbert/Documents/Academisch/UoC/Dissertation/Experiment/OpenSesame/NAP-FC/NAP_GER_AA_4blocks_noglides","yes","no","sans","no","20","no","black","no","Weiter","yes","768","legacy","13","9","0","/Users/aviadalbert/Documents/Academisch/UoC/Dissertation/Experiment/OpenSesame/NAP-FC/NAP_GER_AA_4blocks_noglides/subject-12.csv","xpyriment","Jazzy James","3.1.9","yes","yes","59a800d99ad5a1025d81bb03","59a801616c613b0251691de0","no","no","0","f","f","space","NA","space","space","f","1525","4112","24221","NA","21044","20290","1525","2","legacy","1024","1","44100","-16","experiment","eʃpal","2","1","1","0","1","Englisch","12","","even","1045781","1021031","NA","NA","1049894","1045777","NA","481117","1045307","481117","481117","940765","961813","1097301","1095797","1098827","990481","982390","1021031","NA","887912","928911","1019379","982169","1045781","982394","NA","1097300","1097300","1078838","1078834","1095793","NAP perception","9","23092","14","yes","1024"
"66.6666666667","yes","66.6666666667","1675.13333333","1675.13333333","white","no","xpyriment","Ich habe die obigen Informationen gelesen und verstanden.","legacy","legacy","0","uniform","1","0","0","undefined","undefined","1","j","2","1","NA","0","1","0","0","0","0","0","0","0","0","24","24","24","0","0","0","NA","0","0","2","0","0","0","2","24","24","24","24","24","Wed Oct 25 09:59:07 2017","Forced-choice identification task with a practice and an experimental phase","yes","NAP_GER_AA_4blocks_noglides.osexp","/Users/aviadalbert/Documents/Academisch/UoC/Dissertation/Experiment/OpenSesame/NAP-FC/NAP_GER_AA_4blocks_noglides","yes","no","sans","no","20","no","black","no","Weiter","yes","768","legacy","14","9","0","/Users/aviadalbert/Documents/Academisch/UoC/Dissertation/Experiment/OpenSesame/NAP-FC/NAP_GER_AA_4blocks_noglides/subject-12.csv","xpyriment","Jazzy James","3.1.9","yes","yes","59a800d99ad5a1025d81bb03","59a801616c613b0251691de0","no","no","0","j","f","space","NA","space","space","j","2035","4112","24221","NA","21044","20290","2035","2","legacy","1024","1","44100","-16","experiment","eftal","2","1","1","0","1","Englisch","12","","even","1045781","1021031","NA","NA","1049894","1045777","NA","481117","1045307","481117","481117","940765","961813","1100605","1099100","1102641","990481","982390","1021031","NA","887912","928911","1019379","982169","1045781","982394","NA","1100605","1100605","1078838","1078834","1099096","NAP perception","10","25127","15","yes","1024"
"68.75","yes","68.75","1656.5625","1656.5625","white","no","xpyriment","Ich habe die obigen Informationen gelesen und verstanden.","legacy","legacy","0","uniform","1","0","0","undefined","undefined","1","j","2","1","NA","0","1","0","0","0","0","0","0","0","0","25","25","25","0","0","0","NA","0","0","2","0","0","0","2","25","25","25","25","25","Wed Oct 25 09:59:07 2017","Forced-choice identification task with a practice and an experimental phase","yes","NAP_GER_AA_4blocks_noglides.osexp","/Users/aviadalbert/Documents/Academisch/UoC/Dissertation/Experiment/OpenSesame/NAP-FC/NAP_GER_AA_4blocks_noglides","yes","no","sans","no","20","no","black","no","Weiter","yes","768","legacy","15","9","0","/Users/aviadalbert/Documents/Academisch/UoC/Dissertation/Experiment/OpenSesame/NAP-FC/NAP_GER_AA_4blocks_noglides/subject-12.csv","xpyriment","Jazzy James","3.1.9","yes","yes","59a800d99ad5a1025d81bb03","59a801616c613b0251691de0","no","no","0","j","f","space","NA","space","space","j","1378","4112","24221","NA","21044","20290","1378","2","legacy","1024","1","44100","-16","experiment","ʃepal","2","1","1","0","1","Englisch","12","","even","1045781","1021031","NA","NA","1049894","1045777","NA","481117","1045307","481117","481117","940765","961813","1104436","1102931","1105815","990481","982390","1021031","NA","887912","928911","1019379","982169","1045781","982394","NA","1104436","1104436","1078838","1078834","1102926","NAP perception","11","26505","16","yes","1024"
"70.5882352941","yes","70.5882352941","1647.76470588","1647.76470588","white","no","xpyriment","Ich habe die obigen Informationen gelesen und verstanden.","legacy","legacy","0","uniform","1","0","0","undefined","undefined","1","f","2","1","NA","0","1","0","0","0","0","0","0","0","0","26","26","26","0","0","0","NA","0","0","2","0","0","0","2","26","26","26","26","26","Wed Oct 25 09:59:07 2017","Forced-choice identification task with a practice and an experimental phase","yes","NAP_GER_AA_4blocks_noglides.osexp","/Users/aviadalbert/Documents/Academisch/UoC/Dissertation/Experiment/OpenSesame/NAP-FC/NAP_GER_AA_4blocks_noglides","yes","no","sans","no","20","no","black","no","Weiter","yes","768","legacy","16","9","0","/Users/aviadalbert/Documents/Academisch/UoC/Dissertation/Experiment/OpenSesame/NAP-FC/NAP_GER_AA_4blocks_noglides/subject-12.csv","xpyriment","Jazzy James","3.1.9","yes","yes","59a800d99ad5a1025d81bb03","59a801616c613b0251691de0","no","no","0","f","f","space","NA","space","space","f","1507","4112","24221","NA","21044","20290","1507","2","legacy","1024","1","44100","-16","experiment","vlal","2","1","1","0","1","Englisch","12","","even","1045781","1021031","NA","NA","1049894","1045777","NA","481117","1045307","481117","481117","940765","961813","1107580","1106073","1109088","990481","982390","1021031","NA","887912","928911","1019379","982169","1045781","982394","NA","1107580","1107580","1078838","1078834","1106069","NAP perception","12","28012","17","yes","1024"
"72.2222222222","yes","72.2222222222","1643.66666667","1643.66666667","white","no","xpyriment","Ich habe die obigen Informationen gelesen und verstanden.","legacy","legacy","0","uniform","1","0","0","undefined","undefined","1","f","2","1","NA","0","1","0","0","0","0","0","0","0","0","27","27","27","0","0","0","NA","0","0","2","0","0","0","2","27","27","27","27","27","Wed Oct 25 09:59:07 2017","Forced-choice identification task with a practice and an experimental phase","yes","NAP_GER_AA_4blocks_noglides.osexp","/Users/aviadalbert/Documents/Academisch/UoC/Dissertation/Experiment/OpenSesame/NAP-FC/NAP_GER_AA_4blocks_noglides","yes","no","sans","no","20","no","black","no","Weiter","yes","768","legacy","17","9","0","/Users/aviadalbert/Documents/Academisch/UoC/Dissertation/Experiment/OpenSesame/NAP-FC/NAP_GER_AA_4blocks_noglides/subject-12.csv","xpyriment","Jazzy James","3.1.9","yes","yes","59a800d99ad5a1025d81bb03","59a801616c613b0251691de0","no","no","0","f","f","space","NA","space","space","f","1574","4112","24221","NA","21044","20290","1574","2","legacy","1024","1","44100","-16","experiment","mtal","2","1","1","0","1","Englisch","12","","even","1045781","1021031","NA","NA","1049894","1045777","NA","481117","1045307","481117","481117","940765","961813","1110860","1109355","1112436","990481","982390","1021031","NA","887912","928911","1019379","982169","1045781","982394","NA","1110860","1110860","1078838","1078834","1109350","NAP perception","13","29586","18","yes","1024"
"73.6842105263","yes","73.6842105263","1642.10526316","1642.10526316","white","no","xpyriment","Ich habe die obigen Informationen gelesen und verstanden.","legacy","legacy","0","uniform","1","0","0","undefined","undefined","1","j","2","1","NA","0","1","0","0","0","0","0","0","0","0","28","28","28","0","0","0","NA","0","0","2","0","0","0","2","28","28","28","28","28","Wed Oct 25 09:59:07 2017","Forced-choice identification task with a practice and an experimental phase","yes","NAP_GER_AA_4blocks_noglides.osexp","/Users/aviadalbert/Documents/Academisch/UoC/Dissertation/Experiment/OpenSesame/NAP-FC/NAP_GER_AA_4blocks_noglides","yes","no","sans","no","20","no","black","no","Weiter","yes","768","legacy","18","9","0","/Users/aviadalbert/Documents/Academisch/UoC/Dissertation/Experiment/OpenSesame/NAP-FC/NAP_GER_AA_4blocks_noglides/subject-12.csv","xpyriment","Jazzy James","3.1.9","yes","yes","59a800d99ad5a1025d81bb03","59a801616c613b0251691de0","no","no","0","j","f","space","NA","space","space","j","1614","4112","24221","NA","21044","20290","1614","2","legacy","1024","1","44100","-16","experiment","enmal","2","1","1","0","1","Englisch","12","","even","1045781","1021031","NA","NA","1049894","1045777","NA","481117","1045307","481117","481117","940765","961813","1114219","1112714","1115834","990481","982390","1021031","NA","887912","928911","1019379","982169","1045781","982394","NA","1114218","1114218","1078838","1078834","1112710","NAP perception","14","31200","19","yes","1024"
"75","yes","75","1625.6","1625.6","white","no","xpyriment","Ich habe die obigen Informationen gelesen und verstanden.","legacy","legacy","0","uniform","1","0","0","undefined","undefined","1","j","2","1","NA","0","1","0","0","0","0","0","0","0","0","29","29","29","0","0","0","NA","0","0","2","0","0","0","2","29","29","29","29","29","Wed Oct 25 09:59:07 2017","Forced-choice identification task with a practice and an experimental phase","yes","NAP_GER_AA_4blocks_noglides.osexp","/Users/aviadalbert/Documents/Academisch/UoC/Dissertation/Experiment/OpenSesame/NAP-FC/NAP_GER_AA_4blocks_noglides","yes","no","sans","no","20","no","black","no","Weiter","yes","768","legacy","19","9","0","/Users/aviadalbert/Documents/Academisch/UoC/Dissertation/Experiment/OpenSesame/NAP-FC/NAP_GER_AA_4blocks_noglides/subject-12.csv","xpyriment","Jazzy James","3.1.9","yes","yes","59a800d99ad5a1025d81bb03","59a801616c613b0251691de0","no","no","0","j","f","space","NA","space","space","j","1312","4112","24221","NA","21044","20290","1312","2","legacy","1024","1","44100","-16","experiment","ezval","2","1","1","0","1","Englisch","12","","even","1045781","1021031","NA","NA","1049894","1045777","NA","481117","1045307","481117","481117","940765","961813","1117615","1116108","1118928","990481","982390","1021031","NA","887912","928911","1019379","982169","1045781","982394","NA","1117615","1117615","1078838","1078834","1116104","NAP perception","15","32512","20","yes","1024"
"76.1904761905","yes","76.1904761905","1664.95238095","1664.95238095","white","no","xpyriment","Ich habe die obigen Informationen gelesen und verstanden.","legacy","legacy","0","uniform","1","0","0","undefined","undefined","1","f","2","1","NA","0","1","0","0","0","0","0","0","0","0","30","30","30","0","0","0","NA","0","0","2","0","0","0","2","30","30","30","30","30","Wed Oct 25 09:59:07 2017","Forced-choice identification task with a practice and an experimental phase","yes","NAP_GER_AA_4blocks_noglides.osexp","/Users/aviadalbert/Documents/Academisch/UoC/Dissertation/Experiment/OpenSesame/NAP-FC/NAP_GER_AA_4blocks_noglides","yes","no","sans","no","20","no","black","no","Weiter","yes","768","legacy","20","9","0","/Users/aviadalbert/Documents/Academisch/UoC/Dissertation/Experiment/OpenSesame/NAP-FC/NAP_GER_AA_4blocks_noglides/subject-12.csv","xpyriment","Jazzy James","3.1.9","yes","yes","59a800d99ad5a1025d81bb03","59a801616c613b0251691de0","no","no","0","f","f","space","NA","space","space","f","2452","4112","24221","NA","21044","20290","2452","2","legacy","1024","1","44100","-16","experiment","lval","2","1","1","0","1","Englisch","12","","even","1045781","1021031","NA","NA","1049894","1045777","NA","481117","1045307","481117","481117","940765","961813","1120703","1119197","1123157","990481","982390","1021031","NA","887912","928911","1019379","982169","1045781","982394","NA","1120703","1120703","1078838","1078834","1119193","NAP perception","16","34964","21","yes","1024"
"77.2727272727","yes","77.2727272727","1665.59090909","1665.59090909","white","no","xpyriment","Ich habe die obigen Informationen gelesen und verstanden.","legacy","legacy","0","uniform","1","0","0","undefined","undefined","1","f","2","1","NA","0","1","0","0","0","0","0","0","0","0","31","31","31","0","0","0","NA","0","0","2","0","0","0","2","31","31","31","31","31","Wed Oct 25 09:59:07 2017","Forced-choice identification task with a practice and an experimental phase","yes","NAP_GER_AA_4blocks_noglides.osexp","/Users/aviadalbert/Documents/Academisch/UoC/Dissertation/Experiment/OpenSesame/NAP-FC/NAP_GER_AA_4blocks_noglides","yes","no","sans","no","20","no","black","no","Weiter","yes","768","legacy","21","9","0","/Users/aviadalbert/Documents/Academisch/UoC/Dissertation/Experiment/OpenSesame/NAP-FC/NAP_GER_AA_4blocks_noglides/subject-12.csv","xpyriment","Jazzy James","3.1.9","yes","yes","59a800d99ad5a1025d81bb03","59a801616c613b0251691de0","no","no","0","f","f","space","NA","space","space","f","1679","4112","24221","NA","21044","20290","1679","2","legacy","1024","1","44100","-16","experiment","mlal","2","1","1","0","1","Englisch","12","","even","1045781","1021031","NA","NA","1049894","1045777","NA","481117","1045307","481117","481117","940765","961813","1124926","1123420","1126606","990481","982390","1021031","NA","887912","928911","1019379","982169","1045781","982394","NA","1124925","1124926","1078838","1078834","1123416","NAP perception","17","36643","22","yes","1024"
"78.2608695652","yes","78.2608695652","1691.95652174","1691.95652174","white","no","xpyriment","Ich habe die obigen Informationen gelesen und verstanden.","legacy","legacy","0","uniform","1","0","0","undefined","undefined","1","f","2","1","NA","0","1","0","0","0","0","0","0","0","0","32","32","32","0","0","0","NA","0","0","2","0","0","0","2","32","32","32","32","32","Wed Oct 25 09:59:07 2017","Forced-choice identification task with a practice and an experimental phase","yes","NAP_GER_AA_4blocks_noglides.osexp","/Users/aviadalbert/Documents/Academisch/UoC/Dissertation/Experiment/OpenSesame/NAP-FC/NAP_GER_AA_4blocks_noglides","yes","no","sans","no","20","no","black","no","Weiter","yes","768","legacy","22","9","0","/Users/aviadalbert/Documents/Academisch/UoC/Dissertation/Experiment/OpenSesame/NAP-FC/NAP_GER_AA_4blocks_noglides/subject-12.csv","xpyriment","Jazzy James","3.1.9","yes","yes","59a800d99ad5a1025d81bb03","59a801616c613b0251691de0","no","no","0","f","f","space","NA","space","space","f","2272","4112","24221","NA","21044","20290","2272","2","legacy","1024","1","44100","-16","experiment","fnal","2","1","1","0","1","Englisch","12","","even","1045781","1021031","NA","NA","1049894","1045777","NA","481117","1045307","481117","481117","940765","961813","1128376","1126871","1130649","990481","982390","1021031","NA","887912","928911","1019379","982169","1045781","982394","NA","1128376","1128376","1078838","1078834","1126866","NAP perception","18","38915","23","yes","1024"
"79.1666666667","yes","79.1666666667","1672.29166667","1672.29166667","white","no","xpyriment","Ich habe die obigen Informationen gelesen und verstanden.","legacy","legacy","0","uniform","1","0","0","undefined","undefined","1","f","2","1","NA","0","1","0","0","0","0","0","0","0","0","33","33","33","0","0","0","NA","0","0","2","0","0","0","2","33","33","33","33","33","Wed Oct 25 09:59:07 2017","Forced-choice identification task with a practice and an experimental phase","yes","NAP_GER_AA_4blocks_noglides.osexp","/Users/aviadalbert/Documents/Academisch/UoC/Dissertation/Experiment/OpenSesame/NAP-FC/NAP_GER_AA_4blocks_noglides","yes","no","sans","no","20","no","black","no","Weiter","yes","768","legacy","23","9","0","/Users/aviadalbert/Documents/Academisch/UoC/Dissertation/Experiment/OpenSesame/NAP-FC/NAP_GER_AA_4blocks_noglides/subject-12.csv","xpyriment","Jazzy James","3.1.9","yes","yes","59a800d99ad5a1025d81bb03","59a801616c613b0251691de0","no","no","0","f","f","space","NA","space","space","f","1220","4112","24221","NA","21044","20290","1220","2","legacy","1024","1","44100","-16","experiment","lpal","2","1","1","0","1","Englisch","12","","even","1045781","1021031","NA","NA","1049894","1045777","NA","481117","1045307","481117","481117","940765","961813","1132423","1130918","1133644","990481","982390","1021031","NA","887912","928911","1019379","982169","1045781","982394","NA","1132422","1132422","1078838","1078834","1130914","NAP perception","19","40135","24","yes","1024"
"80","yes","80","1669.4","1669.4","white","no","xpyriment","Ich habe die obigen Informationen gelesen und verstanden.","legacy","legacy","0","uniform","1","0","0","undefined","undefined","1","j","2","1","NA","0","1","0","0","0","0","0","0","0","0","34","34","34","0","0","0","NA","0","0","2","0","0","0","2","34","34","34","34","34","Wed Oct 25 09:59:07 2017","Forced-choice identification task with a practice and an experimental phase","yes","NAP_GER_AA_4blocks_noglides.osexp","/Users/aviadalbert/Documents/Academisch/UoC/Dissertation/Experiment/OpenSesame/NAP-FC/NAP_GER_AA_4blocks_noglides","yes","no","sans","no","20","no","black","no","Weiter","yes","768","legacy","24","9","0","/Users/aviadalbert/Documents/Academisch/UoC/Dissertation/Experiment/OpenSesame/NAP-FC/NAP_GER_AA_4blocks_noglides/subject-12.csv","xpyriment","Jazzy James","3.1.9","yes","yes","59a800d99ad5a1025d81bb03","59a801616c613b0251691de0","no","no","0","j","f","space","NA","space","space","j","1600","4112","24221","NA","21044","20290","1600","2","legacy","1024","1","44100","-16","experiment","efnal","2","1","1","0","1","Englisch","12","","even","1045781","1021031","NA","NA","1049894","1045777","NA","481117","1045307","481117","481117","940765","961813","1135437","1133933","1137038","990481","982390","1021031","NA","887912","928911","1019379","982169","1045781","982394","NA","1135436","1135436","1078838","1078834","1133929","NAP perception","20","41735","25","yes","1024"
"80.7692307692","yes","80.7692307692","1660.19230769","1660.19230769","white","no","xpyriment","Ich habe die obigen Informationen gelesen und verstanden.","legacy","legacy","0","uniform","1","0","0","undefined","undefined","1","j","2","1","NA","0","1","0","0","0","0","0","0","0","0","35","35","35","0","0","0","NA","0","0","2","0","0","0","2","35","35","35","35","35","Wed Oct 25 09:59:07 2017","Forced-choice identification task with a practice and an experimental phase","yes","NAP_GER_AA_4blocks_noglides.osexp","/Users/aviadalbert/Documents/Academisch/UoC/Dissertation/Experiment/OpenSesame/NAP-FC/NAP_GER_AA_4blocks_noglides","yes","no","sans","no","20","no","black","no","Weiter","yes","768","legacy","25","9","0","/Users/aviadalbert/Documents/Academisch/UoC/Dissertation/Experiment/OpenSesame/NAP-FC/NAP_GER_AA_4blocks_noglides/subject-12.csv","xpyriment","Jazzy James","3.1.9","yes","yes","59a800d99ad5a1025d81bb03","59a801616c613b0251691de0","no","no","0","j","f","space","NA","space","space","j","1430","4112","24221","NA","21044","20290","1430","2","legacy","1024","1","44100","-16","experiment","lemal","2","1","1","0","1","Englisch","12","","even","1045781","1021031","NA","NA","1049894","1045777","NA","481117","1045307","481117","481117","940765","961813","1138817","1137310","1140248","990481","982390","1021031","NA","887912","928911","1019379","982169","1045781","982394","NA","1138817","1138817","1078838","1078834","1137306","NAP perception","21","43165","26","yes","1024"
"81.4814814815","yes","81.4814814815","1663.14814815","1663.14814815","white","no","xpyriment","Ich habe die obigen Informationen gelesen und verstanden.","legacy","legacy","0","uniform","1","0","0","undefined","undefined","1","f","2","1","NA","0","1","0","0","0","0","0","0","0","0","36","36","36","0","0","0","NA","0","0","2","0","0","0","2","36","36","36","36","36","Wed Oct 25 09:59:07 2017","Forced-choice identification task with a practice and an experimental phase","yes","NAP_GER_AA_4blocks_noglides.osexp","/Users/aviadalbert/Documents/Academisch/UoC/Dissertation/Experiment/OpenSesame/NAP-FC/NAP_GER_AA_4blocks_noglides","yes","no","sans","no","20","no","black","no","Weiter","yes","768","legacy","26","9","0","/Users/aviadalbert/Documents/Academisch/UoC/Dissertation/Experiment/OpenSesame/NAP-FC/NAP_GER_AA_4blocks_noglides/subject-12.csv","xpyriment","Jazzy James","3.1.9","yes","yes","59a800d99ad5a1025d81bb03","59a801616c613b0251691de0","no","no","0","f","f","space","NA","space","space","f","1740","4112","24221","NA","21044","20290","1740","2","legacy","1024","1","44100","-16","experiment","spal","2","1","1","0","1","Englisch","12","","even","1045781","1021031","NA","NA","1049894","1045777","NA","481117","1045307","481117","481117","940765","961813","1142028","1140524","1143769","990481","982390","1021031","NA","887912","928911","1019379","982169","1045781","982394","NA","1142027","1142027","1078838","1078834","1140520","NAP perception","22","44905","27","yes","1024"
"82.1428571429","yes","82.1428571429","1663.14285714","1663.14285714","white","no","xpyriment","Ich habe die obigen Informationen gelesen und verstanden.","legacy","legacy","0","uniform","1","0","0","undefined","undefined","1","j","2","1","NA","0","1","0","0","0","0","0","0","0","0","37","37","37","0","0","0","NA","0","0","2","0","0","0","2","37","37","37","37","37","Wed Oct 25 09:59:07 2017","Forced-choice identification task with a practice and an experimental phase","yes","NAP_GER_AA_4blocks_noglides.osexp","/Users/aviadalbert/Documents/Academisch/UoC/Dissertation/Experiment/OpenSesame/NAP-FC/NAP_GER_AA_4blocks_noglides","yes","no","sans","no","20","no","black","no","Weiter","yes","768","legacy","27","9","0","/Users/aviadalbert/Documents/Academisch/UoC/Dissertation/Experiment/OpenSesame/NAP-FC/NAP_GER_AA_4blocks_noglides/subject-12.csv","xpyriment","Jazzy James","3.1.9","yes","yes","59a800d99ad5a1025d81bb03","59a801616c613b0251691de0","no","no","0","j","f","space","NA","space","space","j","1663","4112","24221","NA","21044","20290","1663","2","legacy","1024","1","44100","-16","experiment","zemal","2","1","1","0","1","Englisch","12","","even","1045781","1021031","NA","NA","1049894","1045777","NA","481117","1045307","481117","481117","940765","961813","1145565","1144061","1147229","990481","982390","1021031","NA","887912","928911","1019379","982169","1045781","982394","NA","1145564","1145564","1078838","1078834","1144056","NAP perception","23","46568","28","yes","1024"
"79.3103448276","yes","79.3103448276","1687.79310345","1687.79310345","white","no","xpyriment","Ich habe die obigen Informationen gelesen und verstanden.","legacy","legacy","0","uniform","0","0","0","undefined","undefined","0","f","2","1","NA","0","1","0","0","0","0","0","0","0","0","38","38","38","0","0","0","NA","0","0","2","0","0","0","2","38","38","38","38","38","Wed Oct 25 09:59:07 2017","Forced-choice identification task with a practice and an experimental phase","yes","NAP_GER_AA_4blocks_noglides.osexp","/Users/aviadalbert/Documents/Academisch/UoC/Dissertation/Experiment/OpenSesame/NAP-FC/NAP_GER_AA_4blocks_noglides","yes","no","sans","no","20","no","black","no","Weiter","yes","768","legacy","28","9","0","/Users/aviadalbert/Documents/Academisch/UoC/Dissertation/Experiment/OpenSesame/NAP-FC/NAP_GER_AA_4blocks_noglides/subject-12.csv","xpyriment","Jazzy James","3.1.9","yes","yes","59a800d99ad5a1025d81bb03","59a801616c613b0251691de0","no","no","0","j","f","space","NA","space","space","j","2378","4112","24221","NA","21044","20290","2378","2","legacy","1024","1","44100","-16","experiment","vzal","2","1","1","0","1","Englisch","12","","even","1045781","1021031","NA","NA","1049894","1045777","NA","481117","1045307","481117","481117","940765","961813","1149013","1147509","1151392","990481","982390","1021031","NA","887912","928911","1019379","982169","1045781","982394","NA","1149012","1149012","1078838","1078834","1147504","NAP perception","23","48946","29","yes","1024"
"80","yes","80","1700.03333333","1700.03333333","white","no","xpyriment","Ich habe die obigen Informationen gelesen und verstanden.","legacy","legacy","0","uniform","1","0","0","undefined","undefined","1","f","2","1","NA","0","1","0","0","0","0","0","0","0","0","39","39","39","0","0","0","NA","0","0","2","0","0","0","2","39","39","39","39","39","Wed Oct 25 09:59:07 2017","Forced-choice identification task with a practice and an experimental phase","yes","NAP_GER_AA_4blocks_noglides.osexp","/Users/aviadalbert/Documents/Academisch/UoC/Dissertation/Experiment/OpenSesame/NAP-FC/NAP_GER_AA_4blocks_noglides","yes","no","sans","no","20","no","black","no","Weiter","yes","768","legacy","29","9","0","/Users/aviadalbert/Documents/Academisch/UoC/Dissertation/Experiment/OpenSesame/NAP-FC/NAP_GER_AA_4blocks_noglides/subject-12.csv","xpyriment","Jazzy James","3.1.9","yes","yes","59a800d99ad5a1025d81bb03","59a801616c613b0251691de0","no","no","0","f","f","space","NA","space","space","f","2055","4112","24221","NA","21044","20290","2055","2","legacy","1024","1","44100","-16","experiment","sfal","2","1","1","0","1","Englisch","12","","even","1045781","1021031","NA","NA","1049894","1045777","NA","481117","1045307","481117","481117","940765","961813","1153169","1151665","1155225","990481","982390","1021031","NA","887912","928911","1019379","982169","1045781","982394","NA","1153168","1153168","1078838","1078834","1151661","NAP perception","24","51001","30","yes","1024"
"80.6451612903","yes","80.6451612903","1687.41935484","1687.41935484","white","no","xpyriment","Ich habe die obigen Informationen gelesen und verstanden.","legacy","legacy","0","uniform","1","0","0","undefined","undefined","1","j","2","1","NA","0","1","0","0","0","0","0","0","0","0","40","40","40","0","0","0","NA","0","0","2","0","0","0","2","40","40","40","40","40","Wed Oct 25 09:59:07 2017","Forced-choice identification task with a practice and an experimental phase","yes","NAP_GER_AA_4blocks_noglides.osexp","/Users/aviadalbert/Documents/Academisch/UoC/Dissertation/Experiment/OpenSesame/NAP-FC/NAP_GER_AA_4blocks_noglides","yes","no","sans","no","20","no","black","no","Weiter","yes","768","legacy","30","9","0","/Users/aviadalbert/Documents/Academisch/UoC/Dissertation/Experiment/OpenSesame/NAP-FC/NAP_GER_AA_4blocks_noglides/subject-12.csv","xpyriment","Jazzy James","3.1.9","yes","yes","59a800d99ad5a1025d81bb03","59a801616c613b0251691de0","no","no","0","j","f","space","NA","space","space","j","1309","4112","24221","NA","21044","20290","1309","2","legacy","1024","1","44100","-16","experiment","fesal","2","1","1","0","1","Englisch","12","","even","1045781","1021031","NA","NA","1049894","1045777","NA","481117","1045307","481117","481117","940765","961813","1156992","1155487","1158302","990481","982390","1021031","NA","887912","928911","1019379","982169","1045781","982394","NA","1156991","1156991","1078838","1078834","1155483","NAP perception","25","52310","31","yes","1024"
"81.25","yes","81.25","1706.75","1706.75","white","no","xpyriment","Ich habe die obigen Informationen gelesen und verstanden.","legacy","legacy","0","uniform","1","0","0","undefined","undefined","1","f","2","1","NA","0","1","0","0","0","0","0","0","0","0","41","41","41","0","0","0","NA","0","0","2","0","0","0","2","41","41","41","41","41","Wed Oct 25 09:59:07 2017","Forced-choice identification task with a practice and an experimental phase","yes","NAP_GER_AA_4blocks_noglides.osexp","/Users/aviadalbert/Documents/Academisch/UoC/Dissertation/Experiment/OpenSesame/NAP-FC/NAP_GER_AA_4blocks_noglides","yes","no","sans","no","20","no","black","no","Weiter","yes","768","legacy","31","9","0","/Users/aviadalbert/Documents/Academisch/UoC/Dissertation/Experiment/OpenSesame/NAP-FC/NAP_GER_AA_4blocks_noglides/subject-12.csv","xpyriment","Jazzy James","3.1.9","yes","yes","59a800d99ad5a1025d81bb03","59a801616c613b0251691de0","no","no","0","f","f","space","NA","space","space","f","2306","4112","24221","NA","21044","20290","2306","2","legacy","1024","1","44100","-16","experiment","msal","2","1","1","0","1","Englisch","12","","even","1045781","1021031","NA","NA","1049894","1045777","NA","481117","1045307","481117","481117","940765","961813","1160064","1158560","1162371","990481","982390","1021031","NA","887912","928911","1019379","982169","1045781","982394","NA","1160063","1160063","1078838","1078834","1158556","NAP perception","26","54616","32","yes","1024"
"81.8181818182","yes","81.8181818182","1693","1693","white","no","xpyriment","Ich habe die obigen Informationen gelesen und verstanden.","legacy","legacy","0","uniform","1","0","0","undefined","undefined","1","j","2","1","NA","0","1","0","0","0","0","0","0","0","0","42","42","42","0","0","0","NA","0","0","2","0","0","0","2","42","42","42","42","42","Wed Oct 25 09:59:07 2017","Forced-choice identification task with a practice and an experimental phase","yes","NAP_GER_AA_4blocks_noglides.osexp","/Users/aviadalbert/Documents/Academisch/UoC/Dissertation/Experiment/OpenSesame/NAP-FC/NAP_GER_AA_4blocks_noglides","yes","no","sans","no","20","no","black","no","Weiter","yes","768","legacy","32","9","0","/Users/aviadalbert/Documents/Academisch/UoC/Dissertation/Experiment/OpenSesame/NAP-FC/NAP_GER_AA_4blocks_noglides/subject-12.csv","xpyriment","Jazzy James","3.1.9","yes","yes","59a800d99ad5a1025d81bb03","59a801616c613b0251691de0","no","no","0","j","f","space","NA","space","space","j","1253","4112","24221","NA","21044","20290","1253","2","legacy","1024","1","44100","-16","experiment","emlal","2","1","1","0","1","Englisch","12","","even","1045781","1021031","NA","NA","1049894","1045777","NA","481117","1045307","481117","481117","940765","961813","1164141","1162636","1165396","990481","982390","1021031","NA","887912","928911","1019379","982169","1045781","982394","NA","1164140","1164140","1078838","1078834","1162632","NAP perception","27","55869","33","yes","1024"
"79.4117647059","yes","79.4117647059","1690.17647059","1690.17647059","white","no","xpyriment","Ich habe die obigen Informationen gelesen und verstanden.","legacy","legacy","0","uniform","0","0","0","undefined","undefined","0","f","2","1","NA","0","1","0","0","0","0","0","0","0","0","43","43","43","0","0","0","NA","0","0","2","0","0","0","2","43","43","43","43","43","Wed Oct 25 09:59:07 2017","Forced-choice identification task with a practice and an experimental phase","yes","NAP_GER_AA_4blocks_noglides.osexp","/Users/aviadalbert/Documents/Academisch/UoC/Dissertation/Experiment/OpenSesame/NAP-FC/NAP_GER_AA_4blocks_noglides","yes","no","sans","no","20","no","black","no","Weiter","yes","768","legacy","33","9","0","/Users/aviadalbert/Documents/Academisch/UoC/Dissertation/Experiment/OpenSesame/NAP-FC/NAP_GER_AA_4blocks_noglides/subject-12.csv","xpyriment","Jazzy James","3.1.9","yes","yes","59a800d99ad5a1025d81bb03","59a801616c613b0251691de0","no","no","0","j","f","space","NA","space","space","j","1597","4112","24221","NA","21044","20290","1597","2","legacy","1024","1","44100","-16","experiment","nfal","2","1","1","0","1","Englisch","12","","even","1045781","1021031","NA","NA","1049894","1045777","NA","481117","1045307","481117","481117","940765","961813","1167182","1165678","1168780","990481","982390","1021031","NA","887912","928911","1019379","982169","1045781","982394","NA","1167181","1167181","1078838","1078834","1165674","NAP perception","27","57466","34","yes","1024"
"80","yes","80","1709.54285714","1709.54285714","white","no","xpyriment","Ich habe die obigen Informationen gelesen und verstanden.","legacy","legacy","0","uniform","1","0","0","undefined","undefined","1","f","2","1","NA","0","1","0","0","0","0","0","0","0","0","44","44","44","0","0","0","NA","0","0","2","0","0","0","2","44","44","44","44","44","Wed Oct 25 09:59:07 2017","Forced-choice identification task with a practice and an experimental phase","yes","NAP_GER_AA_4blocks_noglides.osexp","/Users/aviadalbert/Documents/Academisch/UoC/Dissertation/Experiment/OpenSesame/NAP-FC/NAP_GER_AA_4blocks_noglides","yes","no","sans","no","20","no","black","no","Weiter","yes","768","legacy","34","9","0","/Users/aviadalbert/Documents/Academisch/UoC/Dissertation/Experiment/OpenSesame/NAP-FC/NAP_GER_AA_4blocks_noglides/subject-12.csv","xpyriment","Jazzy James","3.1.9","yes","yes","59a800d99ad5a1025d81bb03","59a801616c613b0251691de0","no","no","0","f","f","space","NA","space","space","f","2368","4112","24221","NA","21044","20290","2368","2","legacy","1024","1","44100","-16","experiment","nval","2","1","1","0","1","Englisch","12","","even","1045781","1021031","NA","NA","1049894","1045777","NA","481117","1045307","481117","481117","940765","961813","1170564","1169060","1172933","990481","982390","1021031","NA","887912","928911","1019379","982169","1045781","982394","NA","1170563","1170563","1078838","1078834","1169056","NAP perception","28","59834","35","yes","1024"
"80.5555555556","yes","80.5555555556","1734.63888889","1734.63888889","white","no","xpyriment","Ich habe die obigen Informationen gelesen und verstanden.","legacy","legacy","0","uniform","1","0","0","undefined","undefined","1","f","2","1","NA","0","1","0","0","0","0","0","0","0","0","45","45","45","0","0","0","NA","0","0","2","0","0","0","2","45","45","45","45","45","Wed Oct 25 09:59:07 2017","Forced-choice identification task with a practice and an experimental phase","yes","NAP_GER_AA_4blocks_noglides.osexp","/Users/aviadalbert/Documents/Academisch/UoC/Dissertation/Experiment/OpenSesame/NAP-FC/NAP_GER_AA_4blocks_noglides","yes","no","sans","no","20","no","black","no","Weiter","yes","768","legacy","35","9","0","/Users/aviadalbert/Documents/Academisch/UoC/Dissertation/Experiment/OpenSesame/NAP-FC/NAP_GER_AA_4blocks_noglides/subject-12.csv","xpyriment","Jazzy James","3.1.9","yes","yes","59a800d99ad5a1025d81bb03","59a801616c613b0251691de0","no","no","0","f","f","space","NA","space","space","f","2613","4112","24221","NA","21044","20290","2613","2","legacy","1024","1","44100","-16","experiment","lmal","2","1","1","0","1","Englisch","12","","even","1045781","1021031","NA","NA","1049894","1045777","NA","481117","1045307","481117","481117","940765","961813","1174711","1173205","1177326","990481","982390","1021031","NA","887912","928911","1019379","982169","1045781","982394","NA","1174711","1174711","1078838","1078834","1173201","NAP perception","29","62447","36","yes","1024"
"78.3783783784","yes","78.3783783784","1732.91891892","1732.91891892","white","no","xpyriment","Ich habe die obigen Informationen gelesen und verstanden.","legacy","legacy","0","uniform","0","0","0","undefined","undefined","0","j","2","1","NA","0","1","0","0","0","0","0","0","0","0","46","46","46","0","0","0","NA","0","0","2","0","0","0","2","46","46","46","46","46","Wed Oct 25 09:59:07 2017","Forced-choice identification task with a practice and an experimental phase","yes","NAP_GER_AA_4blocks_noglides.osexp","/Users/aviadalbert/Documents/Academisch/UoC/Dissertation/Experiment/OpenSesame/NAP-FC/NAP_GER_AA_4blocks_noglides","yes","no","sans","no","20","no","black","no","Weiter","yes","768","legacy","36","9","0","/Users/aviadalbert/Documents/Academisch/UoC/Dissertation/Experiment/OpenSesame/NAP-FC/NAP_GER_AA_4blocks_noglides/subject-12.csv","xpyriment","Jazzy James","3.1.9","yes","yes","59a800d99ad5a1025d81bb03","59a801616c613b0251691de0","no","no","0","f","f","space","NA","space","space","f","1671","4112","24221","NA","21044","20290","1671","2","legacy","1024","1","44100","-16","experiment","emtal","2","1","1","0","1","Englisch","12","","even","1045781","1021031","NA","NA","1049894","1045777","NA","481117","1045307","481117","481117","940765","961813","1179104","1177600","1180776","990481","982390","1021031","NA","887912","928911","1019379","982169","1045781","982394","NA","1179104","1179104","1078838","1078834","1177595","NAP perception","29","64118","37","yes","1024"
"76.3157894737","yes","76.3157894737","1766.26315789","1766.26315789","white","no","xpyriment","Ich habe die obigen Informationen gelesen und verstanden.","legacy","legacy","0","uniform","0","0","0","undefined","undefined","0","f","2","1","NA","0","1","0","0","0","0","0","0","0","0","47","47","47","0","0","0","NA","0","0","2","0","0","0","2","47","47","47","47","47","Wed Oct 25 09:59:07 2017","Forced-choice identification task with a practice and an experimental phase","yes","NAP_GER_AA_4blocks_noglides.osexp","/Users/aviadalbert/Documents/Academisch/UoC/Dissertation/Experiment/OpenSesame/NAP-FC/NAP_GER_AA_4blocks_noglides","yes","no","sans","no","20","no","black","no","Weiter","yes","768","legacy","37","9","0","/Users/aviadalbert/Documents/Academisch/UoC/Dissertation/Experiment/OpenSesame/NAP-FC/NAP_GER_AA_4blocks_noglides/subject-12.csv","xpyriment","Jazzy James","3.1.9","yes","yes","59a800d99ad5a1025d81bb03","59a801616c613b0251691de0","no","no","0","None","f","space","NA","space","space","None","3000","4112","24221","NA","21044","20290","3000","2","legacy","1024","1","44100","-16","experiment","nval","2","1","1","0","1","Englisch","12","","even","1045781","1021031","NA","NA","1049894","1045777","NA","481117","1045307","481117","481117","940765","961813","1182543","1181039","1186547","990481","982390","1021031","NA","887912","928911","1019379","982169","1045781","982394","NA","1182543","1182543","1185547","1185543","1181034","NAP perception","29","67118","38","yes","1024"
"76.9230769231","yes","76.9230769231","1758.84615385","1758.84615385","white","no","xpyriment","Ich habe die obigen Informationen gelesen und verstanden.","legacy","legacy","0","uniform","1","0","0","undefined","undefined","1","j","2","1","NA","0","1","0","0","0","0","0","0","0","0","48","48","48","0","0","0","NA","0","0","2","0","0","0","2","48","48","48","48","48","Wed Oct 25 09:59:07 2017","Forced-choice identification task with a practice and an experimental phase","yes","NAP_GER_AA_4blocks_noglides.osexp","/Users/aviadalbert/Documents/Academisch/UoC/Dissertation/Experiment/OpenSesame/NAP-FC/NAP_GER_AA_4blocks_noglides","yes","no","sans","no","20","no","black","no","Weiter","yes","768","legacy","38","9","0","/Users/aviadalbert/Documents/Academisch/UoC/Dissertation/Experiment/OpenSesame/NAP-FC/NAP_GER_AA_4blocks_noglides/subject-12.csv","xpyriment","Jazzy James","3.1.9","yes","yes","59a800d99ad5a1025d81bb03","59a801616c613b0251691de0","no","no","0","j","f","space","NA","space","space","j","1477","4112","24221","NA","21044","20290","1477","2","legacy","1024","1","44100","-16","experiment","sepal","2","1","1","0","1","Englisch","12","","even","1045781","1021031","NA","NA","1049894","1045777","NA","481117","1045307","481117","481117","940765","961813","1188322","1186816","1189801","990481","982390","1021031","NA","887912","928911","1019379","982169","1045781","982394","NA","1188321","1188321","1185547","1185543","1186811","NAP perception","30","68595","39","yes","1024"
"77.5","yes","77.5","1740.7","1740.7","white","no","xpyriment","Ich habe die obigen Informationen gelesen und verstanden.","legacy","legacy","0","uniform","1","0","0","undefined","undefined","1","f","2","1","NA","0","1","0","0","0","0","0","0","0","0","49","49","49","0","0","0","NA","0","0","2","0","0","0","2","49","49","49","49","49","Wed Oct 25 09:59:07 2017","Forced-choice identification task with a practice and an experimental phase","yes","NAP_GER_AA_4blocks_noglides.osexp","/Users/aviadalbert/Documents/Academisch/UoC/Dissertation/Experiment/OpenSesame/NAP-FC/NAP_GER_AA_4blocks_noglides","yes","no","sans","no","20","no","black","no","Weiter","yes","768","legacy","39","9","0","/Users/aviadalbert/Documents/Academisch/UoC/Dissertation/Experiment/OpenSesame/NAP-FC/NAP_GER_AA_4blocks_noglides/subject-12.csv","xpyriment","Jazzy James","3.1.9","yes","yes","59a800d99ad5a1025d81bb03","59a801616c613b0251691de0","no","no","0","f","f","space","NA","space","space","f","1033","4112","24221","NA","21044","20290","1033","2","legacy","1024","1","44100","-16","experiment","ftal","2","1","1","0","1","Englisch","12","","even","1045781","1021031","NA","NA","1049894","1045777","NA","481117","1045307","481117","481117","940765","961813","1191579","1190074","1192613","990481","982390","1021031","NA","887912","928911","1019379","982169","1045781","982394","NA","1191579","1191579","1185547","1185543","1190070","NAP perception","31","69628","40","yes","1024"
"75.6097560976","yes","75.6097560976","1746.04878049","1746.04878049","white","no","xpyriment","Ich habe die obigen Informationen gelesen und verstanden.","legacy","legacy","0","uniform","0","0","0","undefined","undefined","0","f","2","1","NA","0","1","0","0","0","0","0","0","0","0","50","50","50","0","0","0","NA","0","0","2","0","0","0","2","50","50","50","50","50","Wed Oct 25 09:59:07 2017","Forced-choice identification task with a practice and an experimental phase","yes","NAP_GER_AA_4blocks_noglides.osexp","/Users/aviadalbert/Documents/Academisch/UoC/Dissertation/Experiment/OpenSesame/NAP-FC/NAP_GER_AA_4blocks_noglides","yes","no","sans","no","20","no","black","no","Weiter","yes","768","legacy","40","9","0","/Users/aviadalbert/Documents/Academisch/UoC/Dissertation/Experiment/OpenSesame/NAP-FC/NAP_GER_AA_4blocks_noglides/subject-12.csv","xpyriment","Jazzy James","3.1.9","yes","yes","59a800d99ad5a1025d81bb03","59a801616c613b0251691de0","no","no","0","j","f","space","NA","space","space","j","1960","4112","24221","NA","21044","20290","1960","2","legacy","1024","1","44100","-16","experiment","sfal","2","1","1","0","1","Englisch","12","","even","1045781","1021031","NA","NA","1049894","1045777","NA","481117","1045307","481117","481117","940765","961813","1194395","1192891","1196357","990481","982390","1021031","NA","887912","928911","1019379","982169","1045781","982394","NA","1194394","1194394","1185547","1185543","1192887","NAP perception","31","71588","41","yes","1024"
"76.1904761905","yes","76.1904761905","1756.35714286","1756.35714286","white","no","xpyriment","Ich habe die obigen Informationen gelesen und verstanden.","legacy","legacy","0","uniform","1","0","0","undefined","undefined","1","f","2","1","NA","0","1","0","0","0","0","0","0","0","0","51","51","51","0","0","0","NA","0","0","2","0","0","0","2","51","51","51","51","51","Wed Oct 25 09:59:07 2017","Forced-choice identification task with a practice and an experimental phase","yes","NAP_GER_AA_4blocks_noglides.osexp","/Users/aviadalbert/Documents/Academisch/UoC/Dissertation/Experiment/OpenSesame/NAP-FC/NAP_GER_AA_4blocks_noglides","yes","no","sans","no","20","no","black","no","Weiter","yes","768","legacy","41","9","0","/Users/aviadalbert/Documents/Academisch/UoC/Dissertation/Experiment/OpenSesame/NAP-FC/NAP_GER_AA_4blocks_noglides/subject-12.csv","xpyriment","Jazzy James","3.1.9","yes","yes","59a800d99ad5a1025d81bb03","59a801616c613b0251691de0","no","no","0","f","f","space","NA","space","space","f","2179","4112","24221","NA","21044","20290","2179","2","legacy","1024","1","44100","-16","experiment","mnal","2","1","1","0","1","Englisch","12","","even","1045781","1021031","NA","NA","1049894","1045777","NA","481117","1045307","481117","481117","940765","961813","1198145","1196640","1200326","990481","982390","1021031","NA","887912","928911","1019379","982169","1045781","982394","NA","1198145","1198145","1185547","1185543","1196636","NAP perception","32","73767","42","yes","1024"
"76.7441860465","yes","76.7441860465","1743.11627907","1743.11627907","white","no","xpyriment","Ich habe die obigen Informationen gelesen und verstanden.","legacy","legacy","0","uniform","1","0","0","undefined","undefined","1","j","2","1","NA","0","1","0","0","0","0","0","0","0","0","52","52","52","0","0","0","NA","0","0","2","0","0","0","2","52","52","52","52","52","Wed Oct 25 09:59:07 2017","Forced-choice identification task with a practice and an experimental phase","yes","NAP_GER_AA_4blocks_noglides.osexp","/Users/aviadalbert/Documents/Academisch/UoC/Dissertation/Experiment/OpenSesame/NAP-FC/NAP_GER_AA_4blocks_noglides","yes","no","sans","no","20","no","black","no","Weiter","yes","768","legacy","42","9","0","/Users/aviadalbert/Documents/Academisch/UoC/Dissertation/Experiment/OpenSesame/NAP-FC/NAP_GER_AA_4blocks_noglides/subject-12.csv","xpyriment","Jazzy James","3.1.9","yes","yes","59a800d99ad5a1025d81bb03","59a801616c613b0251691de0","no","no","0","j","f","space","NA","space","space","j","1187","4112","24221","NA","21044","20290","1187","2","legacy","1024","1","44100","-16","experiment","emnal","2","1","1","0","1","Englisch","12","","even","1045781","1021031","NA","NA","1049894","1045777","NA","481117","1045307","481117","481117","940765","961813","1202112","1200608","1203300","990481","982390","1021031","NA","887912","928911","1019379","982169","1045781","982394","NA","1202111","1202111","1185547","1185543","1200604","NAP perception","33","74954","43","yes","1024"
"77.2727272727","yes","77.2727272727","1729.18181818","1729.18181818","white","no","xpyriment","Ich habe die obigen Informationen gelesen und verstanden.","legacy","legacy","0","uniform","1","0","0","undefined","undefined","1","j","2","1","NA","0","1","0","0","0","0","0","0","0","0","53","53","53","0","0","0","NA","0","0","2","0","0","0","2","53","53","53","53","53","Wed Oct 25 09:59:07 2017","Forced-choice identification task with a practice and an experimental phase","yes","NAP_GER_AA_4blocks_noglides.osexp","/Users/aviadalbert/Documents/Academisch/UoC/Dissertation/Experiment/OpenSesame/NAP-FC/NAP_GER_AA_4blocks_noglides","yes","no","sans","no","20","no","black","no","Weiter","yes","768","legacy","43","9","0","/Users/aviadalbert/Documents/Academisch/UoC/Dissertation/Experiment/OpenSesame/NAP-FC/NAP_GER_AA_4blocks_noglides/subject-12.csv","xpyriment","Jazzy James","3.1.9","yes","yes","59a800d99ad5a1025d81bb03","59a801616c613b0251691de0","no","no","0","j","f","space","NA","space","space","j","1130","4112","24221","NA","21044","20290","1130","2","legacy","1024","1","44100","-16","experiment","leval","2","1","1","0","1","Englisch","12","","even","1045781","1021031","NA","NA","1049894","1045777","NA","481117","1045307","481117","481117","940765","961813","1205072","1203568","1206203","990481","982390","1021031","NA","887912","928911","1019379","982169","1045781","982394","NA","1205071","1205071","1185547","1185543","1203564","NAP perception","34","76084","44","yes","1024"
"77.7777777778","yes","77.7777777778","1736.02222222","1736.02222222","white","no","xpyriment","Ich habe die obigen Informationen gelesen und verstanden.","legacy","legacy","0","uniform","1","0","0","undefined","undefined","1","f","2","1","NA","0","1","0","0","0","0","0","0","0","0","54","54","54","0","0","0","NA","0","0","2","0","0","0","2","54","54","54","54","54","Wed Oct 25 09:59:07 2017","Forced-choice identification task with a practice and an experimental phase","yes","NAP_GER_AA_4blocks_noglides.osexp","/Users/aviadalbert/Documents/Academisch/UoC/Dissertation/Experiment/OpenSesame/NAP-FC/NAP_GER_AA_4blocks_noglides","yes","no","sans","no","20","no","black","no","Weiter","yes","768","legacy","44","9","0","/Users/aviadalbert/Documents/Academisch/UoC/Dissertation/Experiment/OpenSesame/NAP-FC/NAP_GER_AA_4blocks_noglides/subject-12.csv","xpyriment","Jazzy James","3.1.9","yes","yes","59a800d99ad5a1025d81bb03","59a801616c613b0251691de0","no","no","0","f","f","space","NA","space","space","f","2037","4112","24221","NA","21044","20290","2037","2","legacy","1024","1","44100","-16","experiment","ʃfal","2","1","1","0","1","Englisch","12","","even","1045781","1021031","NA","NA","1049894","1045777","NA","481117","1045307","481117","481117","940765","961813","1207984","1206479","1210022","990481","982390","1021031","NA","887912","928911","1019379","982169","1045781","982394","NA","1207983","1207983","1185547","1185543","1206475","NAP perception","35","78121","45","yes","1024"
"78.2608695652","yes","78.2608695652","1727.2826087","1727.2826087","white","no","xpyriment","Ich habe die obigen Informationen gelesen und verstanden.","legacy","legacy","0","uniform","1","0","0","undefined","undefined","1","f","2","1","NA","0","1","0","0","0","0","0","0","0","0","55","55","55","0","0","0","NA","0","0","2","0","0","0","2","55","55","55","55","55","Wed Oct 25 09:59:07 2017","Forced-choice identification task with a practice and an experimental phase","yes","NAP_GER_AA_4blocks_noglides.osexp","/Users/aviadalbert/Documents/Academisch/UoC/Dissertation/Experiment/OpenSesame/NAP-FC/NAP_GER_AA_4blocks_noglides","yes","no","sans","no","20","no","black","no","Weiter","yes","768","legacy","45","9","0","/Users/aviadalbert/Documents/Academisch/UoC/Dissertation/Experiment/OpenSesame/NAP-FC/NAP_GER_AA_4blocks_noglides/subject-12.csv","xpyriment","Jazzy James","3.1.9","yes","yes","59a800d99ad5a1025d81bb03","59a801616c613b0251691de0","no","no","0","f","f","space","NA","space","space","f","1334","4112","24221","NA","21044","20290","1334","2","legacy","1024","1","44100","-16","experiment","smal","2","1","1","0","1","Englisch","12","","even","1045781","1021031","NA","NA","1049894","1045777","NA","481117","1045307","481117","481117","940765","961813","1211811","1210304","1213146","990481","982390","1021031","NA","887912","928911","1019379","982169","1045781","982394","NA","1211811","1211811","1185547","1185543","1210300","NAP perception","36","79455","46","yes","1024"
"78.7234042553","yes","78.7234042553","1709.55319149","1709.55319149","white","no","xpyriment","Ich habe die obigen Informationen gelesen und verstanden.","legacy","legacy","0","uniform","1","0","0","undefined","undefined","1","j","2","1","NA","0","1","0","0","0","0","0","0","0","0","56","56","56","0","0","0","NA","0","0","2","0","0","0","2","56","56","56","56","56","Wed Oct 25 09:59:07 2017","Forced-choice identification task with a practice and an experimental phase","yes","NAP_GER_AA_4blocks_noglides.osexp","/Users/aviadalbert/Documents/Academisch/UoC/Dissertation/Experiment/OpenSesame/NAP-FC/NAP_GER_AA_4blocks_noglides","yes","no","sans","no","20","no","black","no","Weiter","yes","768","legacy","46","9","0","/Users/aviadalbert/Documents/Academisch/UoC/Dissertation/Experiment/OpenSesame/NAP-FC/NAP_GER_AA_4blocks_noglides/subject-12.csv","xpyriment","Jazzy James","3.1.9","yes","yes","59a800d99ad5a1025d81bb03","59a801616c613b0251691de0","no","no","0","j","f","space","NA","space","space","j","894","4112","24221","NA","21044","20290","894","2","legacy","1024","1","44100","-16","experiment","elpal","2","1","1","0","1","Englisch","12","","even","1045781","1021031","NA","NA","1049894","1045777","NA","481117","1045307","481117","481117","940765","961813","1214930","1213425","1215825","990481","982390","1021031","NA","887912","928911","1019379","982169","1045781","982394","NA","1214930","1214930","1185547","1185543","1213421","NAP perception","37","80349","47","yes","1024"
"79.1666666667","yes","79.1666666667","1700.0625","1700.0625","white","no","xpyriment","Ich habe die obigen Informationen gelesen und verstanden.","legacy","legacy","0","uniform","1","0","0","undefined","undefined","1","j","2","1","NA","0","1","0","0","0","0","0","0","0","0","57","57","57","0","0","0","NA","0","0","2","0","0","0","2","57","57","57","57","57","Wed Oct 25 09:59:07 2017","Forced-choice identification task with a practice and an experimental phase","yes","NAP_GER_AA_4blocks_noglides.osexp","/Users/aviadalbert/Documents/Academisch/UoC/Dissertation/Experiment/OpenSesame/NAP-FC/NAP_GER_AA_4blocks_noglides","yes","no","sans","no","20","no","black","no","Weiter","yes","768","legacy","47","9","0","/Users/aviadalbert/Documents/Academisch/UoC/Dissertation/Experiment/OpenSesame/NAP-FC/NAP_GER_AA_4blocks_noglides/subject-12.csv","xpyriment","Jazzy James","3.1.9","yes","yes","59a800d99ad5a1025d81bb03","59a801616c613b0251691de0","no","no","0","j","f","space","NA","space","space","j","1254","4112","24221","NA","21044","20290","1254","2","legacy","1024","1","44100","-16","experiment","ʃemal","2","1","1","0","1","Englisch","12","","even","1045781","1021031","NA","NA","1049894","1045777","NA","481117","1045307","481117","481117","940765","961813","1217610","1216106","1218865","990481","982390","1021031","NA","887912","928911","1019379","982169","1045781","982394","NA","1217609","1217609","1185547","1185543","1216101","NAP perception","38","81603","48","yes","1024"
"79.5918367347","yes","79.5918367347","1708.06122449","1708.06122449","white","no","xpyriment","Ich habe die obigen Informationen gelesen und verstanden.","legacy","legacy","0","uniform","1","0","0","undefined","undefined","1","f","2","1","NA","0","1","0","0","0","0","0","0","0","0","58","58","58","0","0","0","NA","0","0","2","0","0","0","2","58","58","58","58","58","Wed Oct 25 09:59:07 2017","Forced-choice identification task with a practice and an experimental phase","yes","NAP_GER_AA_4blocks_noglides.osexp","/Users/aviadalbert/Documents/Academisch/UoC/Dissertation/Experiment/OpenSesame/NAP-FC/NAP_GER_AA_4blocks_noglides","yes","no","sans","no","20","no","black","no","Weiter","yes","768","legacy","48","9","0","/Users/aviadalbert/Documents/Academisch/UoC/Dissertation/Experiment/OpenSesame/NAP-FC/NAP_GER_AA_4blocks_noglides/subject-12.csv","xpyriment","Jazzy James","3.1.9","yes","yes","59a800d99ad5a1025d81bb03","59a801616c613b0251691de0","no","no","0","f","f","space","NA","space","space","f","2092","4112","24221","NA","21044","20290","2092","2","legacy","1024","1","44100","-16","experiment","mnal","2","1","1","0","1","Englisch","12","","even","1045781","1021031","NA","NA","1049894","1045777","NA","481117","1045307","481117","481117","940765","961813","1220647","1219143","1222741","990481","982390","1021031","NA","887912","928911","1019379","982169","1045781","982394","NA","1220647","1220647","1185547","1185543","1219139","NAP perception","39","83695","49","yes","1024"
"80","yes","80","1715.78","1715.78","white","no","xpyriment","Ich habe die obigen Informationen gelesen und verstanden.","legacy","legacy","0","uniform","1","0","0","undefined","undefined","1","f","2","1","NA","0","1","0","0","0","0","0","0","0","0","59","59","59","0","0","0","NA","0","0","2","0","0","0","2","59","59","59","59","59","Wed Oct 25 09:59:07 2017","Forced-choice identification task with a practice and an experimental phase","yes","NAP_GER_AA_4blocks_noglides.osexp","/Users/aviadalbert/Documents/Academisch/UoC/Dissertation/Experiment/OpenSesame/NAP-FC/NAP_GER_AA_4blocks_noglides","yes","no","sans","no","20","no","black","no","Weiter","yes","768","legacy","49","9","0","/Users/aviadalbert/Documents/Academisch/UoC/Dissertation/Experiment/OpenSesame/NAP-FC/NAP_GER_AA_4blocks_noglides/subject-12.csv","xpyriment","Jazzy James","3.1.9","yes","yes","59a800d99ad5a1025d81bb03","59a801616c613b0251691de0","no","no","0","f","f","space","NA","space","space","f","2094","4112","24221","NA","21044","20290","2094","2","legacy","1024","1","44100","-16","experiment","vnal","2","1","1","0","1","Englisch","12","","even","1045781","1021031","NA","NA","1049894","1045777","NA","481117","1045307","481117","481117","940765","961813","1224512","1223008","1226608","990481","982390","1021031","NA","887912","928911","1019379","982169","1045781","982394","NA","1224512","1224512","1185547","1185543","1223004","NAP perception","40","85789","50","yes","1024"
"80.3921568627","yes","80.3921568627","1701.92156863","1701.92156863","white","no","xpyriment","Ich habe die obigen Informationen gelesen und verstanden.","legacy","legacy","0","uniform","1","0","0","undefined","undefined","1","j","2","1","NA","0","1","0","0","0","0","0","0","0","0","60","60","60","0","0","0","NA","0","0","2","0","0","0","2","60","60","60","60","60","Wed Oct 25 09:59:07 2017","Forced-choice identification task with a practice and an experimental phase","yes","NAP_GER_AA_4blocks_noglides.osexp","/Users/aviadalbert/Documents/Academisch/UoC/Dissertation/Experiment/OpenSesame/NAP-FC/NAP_GER_AA_4blocks_noglides","yes","no","sans","no","20","no","black","no","Weiter","yes","768","legacy","50","9","0","/Users/aviadalbert/Documents/Academisch/UoC/Dissertation/Experiment/OpenSesame/NAP-FC/NAP_GER_AA_4blocks_noglides/subject-12.csv","xpyriment","Jazzy James","3.1.9","yes","yes","59a800d99ad5a1025d81bb03","59a801616c613b0251691de0","no","no","0","j","f","space","NA","space","space","j","1009","4112","24221","NA","21044","20290","1009","2","legacy","1024","1","44100","-16","experiment","eflal","2","1","1","0","1","Englisch","12","","even","1045781","1021031","NA","NA","1049894","1045777","NA","481117","1045307","481117","481117","940765","961813","1228390","1226884","1229401","990481","982390","1021031","NA","887912","928911","1019379","982169","1045781","982394","NA","1228389","1228389","1185547","1185543","1226880","NAP perception","41","86798","51","yes","1024"
"78.8461538462","yes","78.8461538462","1695.90384615","1695.90384615","white","no","xpyriment","Ich habe die obigen Informationen gelesen und verstanden.","legacy","legacy","0","uniform","0","0","0","undefined","undefined","0","f","2","1","NA","0","1","0","0","0","0","0","0","0","0","61","61","61","0","0","0","NA","0","0","2","0","0","0","2","61","61","61","61","61","Wed Oct 25 09:59:07 2017","Forced-choice identification task with a practice and an experimental phase","yes","NAP_GER_AA_4blocks_noglides.osexp","/Users/aviadalbert/Documents/Academisch/UoC/Dissertation/Experiment/OpenSesame/NAP-FC/NAP_GER_AA_4blocks_noglides","yes","no","sans","no","20","no","black","no","Weiter","yes","768","legacy","51","9","0","/Users/aviadalbert/Documents/Academisch/UoC/Dissertation/Experiment/OpenSesame/NAP-FC/NAP_GER_AA_4blocks_noglides/subject-12.csv","xpyriment","Jazzy James","3.1.9","yes","yes","59a800d99ad5a1025d81bb03","59a801616c613b0251691de0","no","no","0","j","f","space","NA","space","space","j","1389","4112","24221","NA","21044","20290","1389","2","legacy","1024","1","44100","-16","experiment","lkal","2","1","1","0","1","Englisch","12","","even","1045781","1021031","NA","NA","1049894","1045777","NA","481117","1045307","481117","481117","940765","961813","1231176","1229672","1232567","990481","982390","1021031","NA","887912","928911","1019379","982169","1045781","982394","NA","1231176","1231176","1185547","1185543","1229667","NAP perception","41","88187","52","yes","1024"
"79.2452830189","yes","79.2452830189","1683.98113208","1683.98113208","white","no","xpyriment","Ich habe die obigen Informationen gelesen und verstanden.","legacy","legacy","0","uniform","1","0","0","undefined","undefined","1","j","2","1","NA","0","1","0","0","0","0","0","0","0","0","62","62","62","0","0","0","NA","0","0","2","0","0","0","2","62","62","62","62","62","Wed Oct 25 09:59:07 2017","Forced-choice identification task with a practice and an experimental phase","yes","NAP_GER_AA_4blocks_noglides.osexp","/Users/aviadalbert/Documents/Academisch/UoC/Dissertation/Experiment/OpenSesame/NAP-FC/NAP_GER_AA_4blocks_noglides","yes","no","sans","no","20","no","black","no","Weiter","yes","768","legacy","52","9","0","/Users/aviadalbert/Documents/Academisch/UoC/Dissertation/Experiment/OpenSesame/NAP-FC/NAP_GER_AA_4blocks_noglides/subject-12.csv","xpyriment","Jazzy James","3.1.9","yes","yes","59a800d99ad5a1025d81bb03","59a801616c613b0251691de0","no","no","0","j","f","space","NA","space","space","j","1064","4112","24221","NA","21044","20290","1064","2","legacy","1024","1","44100","-16","experiment","nefal","2","1","1","0","1","Englisch","12","","even","1045781","1021031","NA","NA","1049894","1045777","NA","481117","1045307","481117","481117","940765","961813","1234345","1232840","1235411","990481","982390","1021031","NA","887912","928911","1019379","982169","1045781","982394","NA","1234345","1234345","1185547","1185543","1232835","NAP perception","42","89251","53","yes","1024"
"79.6296296296","yes","79.6296296296","1681.94444444","1681.94444444","white","no","xpyriment","Ich habe die obigen Informationen gelesen und verstanden.","legacy","legacy","0","uniform","1","0","0","undefined","undefined","1","j","2","1","NA","0","1","0","0","0","0","0","0","0","0","63","63","63","0","0","0","NA","0","0","2","0","0","0","2","63","63","63","63","63","Wed Oct 25 09:59:07 2017","Forced-choice identification task with a practice and an experimental phase","yes","NAP_GER_AA_4blocks_noglides.osexp","/Users/aviadalbert/Documents/Academisch/UoC/Dissertation/Experiment/OpenSesame/NAP-FC/NAP_GER_AA_4blocks_noglides","yes","no","sans","no","20","no","black","no","Weiter","yes","768","legacy","53","9","0","/Users/aviadalbert/Documents/Academisch/UoC/Dissertation/Experiment/OpenSesame/NAP-FC/NAP_GER_AA_4blocks_noglides/subject-12.csv","xpyriment","Jazzy James","3.1.9","yes","yes","59a800d99ad5a1025d81bb03","59a801616c613b0251691de0","no","no","0","j","f","space","NA","space","space","j","1574","4112","24221","NA","21044","20290","1574","2","legacy","1024","1","44100","-16","experiment","elfal","2","1","1","0","1","Englisch","12","","even","1045781","1021031","NA","NA","1049894","1045777","NA","481117","1045307","481117","481117","940765","961813","1237214","1235708","1238791","990481","982390","1021031","NA","887912","928911","1019379","982169","1045781","982394","NA","1237213","1237214","1185547","1185543","1235703","NAP perception","43","90825","54","yes","1024"
"80","yes","80","1668.36363636","1668.36363636","white","no","xpyriment","Ich habe die obigen Informationen gelesen und verstanden.","legacy","legacy","0","uniform","1","0","0","undefined","undefined","1","j","2","1","NA","0","1","0","0","0","0","0","0","0","0","64","64","64","0","0","0","NA","0","0","2","0","0","0","2","64","64","64","64","64","Wed Oct 25 09:59:07 2017","Forced-choice identification task with a practice and an experimental phase","yes","NAP_GER_AA_4blocks_noglides.osexp","/Users/aviadalbert/Documents/Academisch/UoC/Dissertation/Experiment/OpenSesame/NAP-FC/NAP_GER_AA_4blocks_noglides","yes","no","sans","no","20","no","black","no","Weiter","yes","768","legacy","54","9","0","/Users/aviadalbert/Documents/Academisch/UoC/Dissertation/Experiment/OpenSesame/NAP-FC/NAP_GER_AA_4blocks_noglides/subject-12.csv","xpyriment","Jazzy James","3.1.9","yes","yes","59a800d99ad5a1025d81bb03","59a801616c613b0251691de0","no","no","0","j","f","space","NA","space","space","j","935","4112","24221","NA","21044","20290","935","2","legacy","1024","1","44100","-16","experiment","lefal","2","1","1","0","1","Englisch","12","","even","1045781","1021031","NA","NA","1049894","1045777","NA","481117","1045307","481117","481117","940765","961813","1240559","1239053","1241496","990481","982390","1021031","NA","887912","928911","1019379","982169","1045781","982394","NA","1240559","1240559","1185547","1185543","1239048","NAP perception","44","91760","55","yes","1024"
