"acc","accept_status","accuracy","average_response_time","avg_rt","background","bidi","canvas_backend","checkbox_status","clock_backend","color_backend","compensation","coordinates","correct","correct_block_activation","correct_block_exit","correct_instructions_1","correct_instructions_2","correct_keyboard_response","correct_response","count_block_activation","count_block_exit","count_block_info_QA","count_cont_e_block_message","count_e_block_loop","count_e_block_sequence","count_end_of_experiment","count_experiment","count_experimental_loop","count_form_consent","count_info_forms","count_instructions_1","count_instructions_2","count_keyboard_response","count_listen_message","count_logger","count_p_block_loop","count_p_block_sequence","count_p_feedback","count_pause_feedback","count_personal_details_form_1","count_personal_details_form_2","count_post_loop_blank","count_practice_loop","count_pre_e_block_message","count_pre_p_block_message","count_reset_feedback","count_stimulus_image","count_stimulus_sound","count_timeout_message","count_timeout_sound","count_trial_sequence","datetime","description","disable_garbage_collection","experiment_file","experiment_path","expyriment_opengl","font_bold","font_family","font_italic","font_size","font_underline","foreground","form_clicks","form_response","fullscreen","height","keyboard_backend","live_row","live_row_p_block_loop","live_row_practice_loop","logfile","mouse_backend","opensesame_codename","opensesame_version","osf_always_upload_data","osf_always_upload_experiment","osf_datanode_id","osf_id","practice","pygame_doublebuf","repeat_cycle","response","response_block_activation","response_block_exit","response_block_info_QA","response_instructions_1","response_instructions_2","response_keyboard_response","response_time","response_time_block_activation","response_time_block_exit","response_time_block_info_QA","response_time_instructions_1","response_time_instructions_2","response_time_keyboard_response","round_decimals","sampler_backend","sound_buf_size","sound_channels","sound_freq","sound_sample_size","start","stimulus","subject_age","subject_education","subject_gender","subject_german_native","subject_handedness","subject_language_other","subject_nr","subject_other_native_lang","subject_parity","time_block_activation","time_block_exit","time_block_info_QA","time_cont_e_block_message","time_e_block_loop","time_e_block_sequence","time_end_of_experiment","time_experiment","time_experimental_loop","time_form_consent","time_info_forms","time_instructions_1","time_instructions_2","time_keyboard_response","time_listen_message","time_logger","time_p_block_loop","time_p_block_sequence","time_p_feedback","time_pause_feedback","time_personal_details_form_1","time_personal_details_form_2","time_post_loop_blank","time_practice_loop","time_pre_e_block_message","time_pre_p_block_message","time_reset_feedback","time_stimulus_image","time_stimulus_sound","time_timeout_message","time_timeout_sound","time_trial_sequence","title","total_correct","total_response_time","total_responses","uniform_coordinates","width"
"100","yes","100","1303","1303","white","no","xpyriment","Ich habe die obigen Informationen gelesen und verstanden.","legacy","legacy","0","uniform","1","0","NA","undefined","undefined","1","f","0","0","NA","NA","NA","NA","NA","0","0","0","0","0","0","0","0","0","0","0","NA","NA","0","0","0","0","NA","0","0","0","0","0","0","0","Fri Nov  3 09:55:39 2017","Forced-choice identification task with a practice and an experimental phase","yes","NAP_GER_AA_4blocks_noglides.osexp","/Users/aviadalbert/Documents/Academisch/UoC/Dissertation/Experiment/OpenSesame/NAP-FC/NAP_GER_AA_4blocks_noglides","yes","no","sans","no","20","no","black","no","Weiter","yes","768","legacy","0","0","0","/Users/aviadalbert/Documents/Academisch/UoC/Dissertation/Experiment/OpenSesame/NAP-FC/NAP_GER_AA_4blocks_noglides/subject-36.csv","xpyriment","Jazzy James","3.1.9","yes","yes","59a800d99ad5a1025d81bb03","59a801616c613b0251691de0","yes","no","0","f","f","NA","NA","return","right shift","f","1303","4040","NA","NA","20931","25896","1303","2","legacy","1024","1","44100","-16","experiment","flal","4","2","0","0","1","english","36","","even","136275","NA","NA","NA","NA","NA","NA","1833","NA","1834","1833","89161","110097","142038","140534","143342","140316","136272","NA","NA","39844","77864","NA","136053","NA","136275","NA","142037","142038","NA","NA","140530","NAP perception","1","1303","1","yes","1024"
"50","yes","50","1086","1086","white","no","xpyriment","Ich habe die obigen Informationen gelesen und verstanden.","legacy","legacy","0","uniform","0","0","NA","undefined","undefined","0","j","0","0","NA","NA","NA","NA","NA","0","0","0","0","0","0","1","1","1","0","0","NA","NA","0","0","0","0","NA","0","0","1","1","1","1","1","Fri Nov  3 09:55:39 2017","Forced-choice identification task with a practice and an experimental phase","yes","NAP_GER_AA_4blocks_noglides.osexp","/Users/aviadalbert/Documents/Academisch/UoC/Dissertation/Experiment/OpenSesame/NAP-FC/NAP_GER_AA_4blocks_noglides","yes","no","sans","no","20","no","black","no","Weiter","yes","768","legacy","1","1","0","/Users/aviadalbert/Documents/Academisch/UoC/Dissertation/Experiment/OpenSesame/NAP-FC/NAP_GER_AA_4blocks_noglides/subject-36.csv","xpyriment","Jazzy James","3.1.9","yes","yes","59a800d99ad5a1025d81bb03","59a801616c613b0251691de0","yes","no","0","f","f","NA","NA","return","right shift","f","869","4040","NA","NA","20931","25896","869","2","legacy","1024","1","44100","-16","experiment","lepal","4","2","0","0","1","english","36","","even","136275","NA","NA","NA","NA","NA","NA","1833","NA","1834","1833","89161","110097","145121","143617","145991","140316","136272","NA","NA","39844","77864","NA","136053","NA","136275","NA","145121","145121","NA","NA","143613","NAP perception","1","2172","2","yes","1024"
"66.6666666667","yes","66.6666666667","1140.66666667","1140.66666667","white","no","xpyriment","Ich habe die obigen Informationen gelesen und verstanden.","legacy","legacy","0","uniform","1","0","NA","undefined","undefined","1","j","0","0","NA","NA","NA","NA","NA","0","0","0","0","0","0","2","2","2","0","0","NA","NA","0","0","0","0","NA","0","0","2","2","2","2","2","Fri Nov  3 09:55:39 2017","Forced-choice identification task with a practice and an experimental phase","yes","NAP_GER_AA_4blocks_noglides.osexp","/Users/aviadalbert/Documents/Academisch/UoC/Dissertation/Experiment/OpenSesame/NAP-FC/NAP_GER_AA_4blocks_noglides","yes","no","sans","no","20","no","black","no","Weiter","yes","768","legacy","2","2","0","/Users/aviadalbert/Documents/Academisch/UoC/Dissertation/Experiment/OpenSesame/NAP-FC/NAP_GER_AA_4blocks_noglides/subject-36.csv","xpyriment","Jazzy James","3.1.9","yes","yes","59a800d99ad5a1025d81bb03","59a801616c613b0251691de0","yes","no","0","j","f","NA","NA","return","right shift","j","1250","4040","NA","NA","20931","25896","1250","2","legacy","1024","1","44100","-16","experiment","emtal","4","2","0","0","1","english","36","","even","136275","NA","NA","NA","NA","NA","NA","1833","NA","1834","1833","89161","110097","147775","146267","149026","140316","136272","NA","NA","39844","77864","NA","136053","NA","136275","NA","147774","147775","NA","NA","146263","NAP perception","2","3422","3","yes","1024"
"75","yes","75","1071","1071","white","no","xpyriment","Ich habe die obigen Informationen gelesen und verstanden.","legacy","legacy","0","uniform","1","0","NA","undefined","undefined","1","f","0","0","NA","NA","NA","NA","NA","0","0","0","0","0","0","3","3","3","0","0","NA","NA","0","0","0","0","NA","0","0","3","3","3","3","3","Fri Nov  3 09:55:39 2017","Forced-choice identification task with a practice and an experimental phase","yes","NAP_GER_AA_4blocks_noglides.osexp","/Users/aviadalbert/Documents/Academisch/UoC/Dissertation/Experiment/OpenSesame/NAP-FC/NAP_GER_AA_4blocks_noglides","yes","no","sans","no","20","no","black","no","Weiter","yes","768","legacy","3","3","0","/Users/aviadalbert/Documents/Academisch/UoC/Dissertation/Experiment/OpenSesame/NAP-FC/NAP_GER_AA_4blocks_noglides/subject-36.csv","xpyriment","Jazzy James","3.1.9","yes","yes","59a800d99ad5a1025d81bb03","59a801616c613b0251691de0","yes","no","0","f","f","NA","NA","return","right shift","f","862","4040","NA","NA","20931","25896","862","2","legacy","1024","1","44100","-16","experiment","ʃpal","4","2","0","0","1","english","36","","even","136275","NA","NA","NA","NA","NA","NA","1833","NA","1834","1833","89161","110097","150794","149291","151657","140316","136272","NA","NA","39844","77864","NA","136053","NA","136275","NA","150794","150794","NA","NA","149287","NAP perception","3","4284","4","yes","1024"
"80","yes","80","1023.6","1023.6","white","no","xpyriment","Ich habe die obigen Informationen gelesen und verstanden.","legacy","legacy","0","uniform","1","0","NA","undefined","undefined","1","j","0","0","NA","NA","NA","NA","NA","0","0","0","0","0","0","4","4","4","0","0","NA","NA","0","0","0","0","NA","0","0","4","4","4","4","4","Fri Nov  3 09:55:39 2017","Forced-choice identification task with a practice and an experimental phase","yes","NAP_GER_AA_4blocks_noglides.osexp","/Users/aviadalbert/Documents/Academisch/UoC/Dissertation/Experiment/OpenSesame/NAP-FC/NAP_GER_AA_4blocks_noglides","yes","no","sans","no","20","no","black","no","Weiter","yes","768","legacy","4","4","0","/Users/aviadalbert/Documents/Academisch/UoC/Dissertation/Experiment/OpenSesame/NAP-FC/NAP_GER_AA_4blocks_noglides/subject-36.csv","xpyriment","Jazzy James","3.1.9","yes","yes","59a800d99ad5a1025d81bb03","59a801616c613b0251691de0","yes","no","0","j","f","NA","NA","return","right shift","j","834","4040","NA","NA","20931","25896","834","2","legacy","1024","1","44100","-16","experiment","nefal","4","2","0","0","1","english","36","","even","136275","NA","NA","NA","NA","NA","NA","1833","NA","1834","1833","89161","110097","153444","151941","154279","140316","136272","NA","NA","39844","77864","NA","136053","NA","136275","NA","153444","153444","NA","NA","151937","NAP perception","4","5118","5","yes","1024"
"83.3333333333","yes","83.3333333333","1080.5","1080.5","white","no","xpyriment","Ich habe die obigen Informationen gelesen und verstanden.","legacy","legacy","0","uniform","1","0","NA","undefined","undefined","1","f","0","0","NA","NA","NA","NA","NA","0","0","0","0","0","0","5","5","5","0","0","NA","NA","0","0","0","0","NA","0","0","5","5","5","5","5","Fri Nov  3 09:55:39 2017","Forced-choice identification task with a practice and an experimental phase","yes","NAP_GER_AA_4blocks_noglides.osexp","/Users/aviadalbert/Documents/Academisch/UoC/Dissertation/Experiment/OpenSesame/NAP-FC/NAP_GER_AA_4blocks_noglides","yes","no","sans","no","20","no","black","no","Weiter","yes","768","legacy","5","5","0","/Users/aviadalbert/Documents/Academisch/UoC/Dissertation/Experiment/OpenSesame/NAP-FC/NAP_GER_AA_4blocks_noglides/subject-36.csv","xpyriment","Jazzy James","3.1.9","yes","yes","59a800d99ad5a1025d81bb03","59a801616c613b0251691de0","yes","no","0","f","f","NA","NA","return","right shift","f","1365","4040","NA","NA","20931","25896","1365","2","legacy","1024","1","44100","-16","experiment","sfal","4","2","0","0","1","english","36","","even","136275","NA","NA","NA","NA","NA","NA","1833","NA","1834","1833","89161","110097","156058","154553","157424","140316","136272","NA","NA","39844","77864","NA","136053","NA","136275","NA","156057","156057","NA","NA","154549","NAP perception","5","6483","6","yes","1024"
"71.4285714286","yes","71.4285714286","1047.71428571","1047.71428571","white","no","xpyriment","Ich habe die obigen Informationen gelesen und verstanden.","legacy","legacy","0","uniform","0","0","NA","undefined","undefined","0","f","0","0","NA","NA","NA","NA","NA","0","0","0","0","0","0","6","6","6","0","0","NA","NA","0","0","0","0","NA","0","0","6","6","6","6","6","Fri Nov  3 09:55:39 2017","Forced-choice identification task with a practice and an experimental phase","yes","NAP_GER_AA_4blocks_noglides.osexp","/Users/aviadalbert/Documents/Academisch/UoC/Dissertation/Experiment/OpenSesame/NAP-FC/NAP_GER_AA_4blocks_noglides","yes","no","sans","no","20","no","black","no","Weiter","yes","768","legacy","6","6","0","/Users/aviadalbert/Documents/Academisch/UoC/Dissertation/Experiment/OpenSesame/NAP-FC/NAP_GER_AA_4blocks_noglides/subject-36.csv","xpyriment","Jazzy James","3.1.9","yes","yes","59a800d99ad5a1025d81bb03","59a801616c613b0251691de0","yes","no","0","j","f","NA","NA","return","right shift","j","851","4040","NA","NA","20931","25896","851","2","legacy","1024","1","44100","-16","experiment","zmal","4","2","0","0","1","english","36","","even","136275","NA","NA","NA","NA","NA","NA","1833","NA","1834","1833","89161","110097","159205","157701","160058","140316","136272","NA","NA","39844","77864","NA","136053","NA","136275","NA","159204","159205","NA","NA","157698","NAP perception","5","7334","7","yes","1024"
"75","yes","75","1028","1028","white","no","xpyriment","Ich habe die obigen Informationen gelesen und verstanden.","legacy","legacy","0","uniform","1","0","NA","undefined","undefined","1","j","0","0","NA","NA","NA","NA","NA","0","0","0","0","0","0","7","7","7","0","0","NA","NA","0","0","0","0","NA","0","0","7","7","7","7","7","Fri Nov  3 09:55:39 2017","Forced-choice identification task with a practice and an experimental phase","yes","NAP_GER_AA_4blocks_noglides.osexp","/Users/aviadalbert/Documents/Academisch/UoC/Dissertation/Experiment/OpenSesame/NAP-FC/NAP_GER_AA_4blocks_noglides","yes","no","sans","no","20","no","black","no","Weiter","yes","768","legacy","7","7","0","/Users/aviadalbert/Documents/Academisch/UoC/Dissertation/Experiment/OpenSesame/NAP-FC/NAP_GER_AA_4blocks_noglides/subject-36.csv","xpyriment","Jazzy James","3.1.9","yes","yes","59a800d99ad5a1025d81bb03","59a801616c613b0251691de0","yes","no","0","j","f","NA","NA","return","right shift","j","890","4040","NA","NA","20931","25896","890","2","legacy","1024","1","44100","-16","experiment","mesal","4","2","0","0","1","english","36","","even","136275","NA","NA","NA","NA","NA","NA","1833","NA","1834","1833","89161","110097","161846","160338","162737","140316","136272","NA","NA","39844","77864","NA","136053","NA","136275","NA","161846","161846","NA","NA","160334","NAP perception","6","8224","8","yes","1024"
"66.6666666667","yes","66.6666666667","1004.22222222","1004.22222222","white","no","xpyriment","Ich habe die obigen Informationen gelesen und verstanden.","legacy","legacy","0","uniform","0","0","NA","undefined","undefined","0","j","0","0","NA","NA","NA","NA","NA","0","0","0","0","0","0","8","8","8","0","0","NA","NA","0","0","0","0","NA","0","0","8","8","8","8","8","Fri Nov  3 09:55:39 2017","Forced-choice identification task with a practice and an experimental phase","yes","NAP_GER_AA_4blocks_noglides.osexp","/Users/aviadalbert/Documents/Academisch/UoC/Dissertation/Experiment/OpenSesame/NAP-FC/NAP_GER_AA_4blocks_noglides","yes","no","sans","no","20","no","black","no","Weiter","yes","768","legacy","8","8","0","/Users/aviadalbert/Documents/Academisch/UoC/Dissertation/Experiment/OpenSesame/NAP-FC/NAP_GER_AA_4blocks_noglides/subject-36.csv","xpyriment","Jazzy James","3.1.9","yes","yes","59a800d99ad5a1025d81bb03","59a801616c613b0251691de0","yes","no","0","f","f","NA","NA","return","right shift","f","814","4040","NA","NA","20931","25896","814","2","legacy","1024","1","44100","-16","experiment","enval","4","2","0","0","1","english","36","","even","136275","NA","NA","NA","NA","NA","NA","1833","NA","1834","1833","89161","110097","164527","163020","165342","140316","136272","NA","NA","39844","77864","NA","136053","NA","136275","NA","164526","164527","NA","NA","163016","NAP perception","6","9038","9","yes","1024"
"60","yes","60","1046.1","1046.1","white","no","xpyriment","Ich habe die obigen Informationen gelesen und verstanden.","legacy","legacy","0","uniform","0","0","NA","undefined","undefined","0","f","0","0","NA","NA","NA","NA","NA","0","0","0","0","0","0","9","9","9","0","0","NA","NA","0","0","0","0","NA","0","0","9","9","9","9","9","Fri Nov  3 09:55:39 2017","Forced-choice identification task with a practice and an experimental phase","yes","NAP_GER_AA_4blocks_noglides.osexp","/Users/aviadalbert/Documents/Academisch/UoC/Dissertation/Experiment/OpenSesame/NAP-FC/NAP_GER_AA_4blocks_noglides","yes","no","sans","no","20","no","black","no","Weiter","yes","768","legacy","9","9","0","/Users/aviadalbert/Documents/Academisch/UoC/Dissertation/Experiment/OpenSesame/NAP-FC/NAP_GER_AA_4blocks_noglides/subject-36.csv","xpyriment","Jazzy James","3.1.9","yes","yes","59a800d99ad5a1025d81bb03","59a801616c613b0251691de0","yes","no","0","j","f","NA","NA","return","right shift","j","1423","4040","NA","NA","20931","25896","1423","2","legacy","1024","1","44100","-16","experiment","vlal","4","2","0","0","1","english","36","","even","136275","NA","NA","NA","NA","NA","NA","1833","NA","1834","1833","89161","110097","167117","165613","168541","140316","136272","NA","NA","39844","77864","NA","136053","NA","136275","NA","167116","167116","NA","NA","165609","NAP perception","6","10461","10","yes","1024"
"0","yes","0","994","994","white","no","xpyriment","Ich habe die obigen Informationen gelesen und verstanden.","legacy","legacy","0","uniform","0","0","0","undefined","undefined","0","f","2","1","NA","0","1","0","0","0","0","0","0","0","0","10","10","10","0","0","0","NA","0","0","2","0","0","0","2","10","10","10","10","10","Fri Nov  3 09:55:39 2017","Forced-choice identification task with a practice and an experimental phase","yes","NAP_GER_AA_4blocks_noglides.osexp","/Users/aviadalbert/Documents/Academisch/UoC/Dissertation/Experiment/OpenSesame/NAP-FC/NAP_GER_AA_4blocks_noglides","yes","no","sans","no","20","no","black","no","Weiter","yes","768","legacy","0","9","0","/Users/aviadalbert/Documents/Academisch/UoC/Dissertation/Experiment/OpenSesame/NAP-FC/NAP_GER_AA_4blocks_noglides/subject-36.csv","xpyriment","Jazzy James","3.1.9","yes","yes","59a800d99ad5a1025d81bb03","59a801616c613b0251691de0","no","no","0","j","f","space","NA","return","right shift","j","994","3215","41409","NA","20931","25896","994","2","legacy","1024","1","44100","-16","experiment","vnal","4","2","0","0","1","english","36","","even","212240","170265","NA","NA","215456","212236","NA","1833","211731","1834","1833","89161","110097","217180","215676","218175","140316","136272","170265","NA","39844","77864","168601","136053","212240","136275","NA","217180","217180","NA","NA","215673","NAP perception","0","994","1","yes","1024"
"0","yes","0","1000","1000","white","no","xpyriment","Ich habe die obigen Informationen gelesen und verstanden.","legacy","legacy","0","uniform","0","0","0","undefined","undefined","0","f","2","1","NA","0","1","0","0","0","0","0","0","0","0","11","11","11","0","0","0","NA","0","0","2","0","0","0","2","11","11","11","11","11","Fri Nov  3 09:55:39 2017","Forced-choice identification task with a practice and an experimental phase","yes","NAP_GER_AA_4blocks_noglides.osexp","/Users/aviadalbert/Documents/Academisch/UoC/Dissertation/Experiment/OpenSesame/NAP-FC/NAP_GER_AA_4blocks_noglides","yes","no","sans","no","20","no","black","no","Weiter","yes","768","legacy","1","9","0","/Users/aviadalbert/Documents/Academisch/UoC/Dissertation/Experiment/OpenSesame/NAP-FC/NAP_GER_AA_4blocks_noglides/subject-36.csv","xpyriment","Jazzy James","3.1.9","yes","yes","59a800d99ad5a1025d81bb03","59a801616c613b0251691de0","no","no","0","j","f","space","NA","return","right shift","j","1006","3215","41409","NA","20931","25896","1006","2","legacy","1024","1","44100","-16","experiment","mzal","4","2","0","0","1","english","36","","even","212240","170265","NA","NA","215456","212236","NA","1833","211731","1834","1833","89161","110097","219959","218453","220966","140316","136272","170265","NA","39844","77864","168601","136053","212240","136275","NA","219959","219959","NA","NA","218449","NAP perception","0","2000","2","yes","1024"
"33.3333333333","yes","33.3333333333","940.666666667","940.666666667","white","no","xpyriment","Ich habe die obigen Informationen gelesen und verstanden.","legacy","legacy","0","uniform","1","0","0","undefined","undefined","1","j","2","1","NA","0","1","0","0","0","0","0","0","0","0","12","12","12","0","0","0","NA","0","0","2","0","0","0","2","12","12","12","12","12","Fri Nov  3 09:55:39 2017","Forced-choice identification task with a practice and an experimental phase","yes","NAP_GER_AA_4blocks_noglides.osexp","/Users/aviadalbert/Documents/Academisch/UoC/Dissertation/Experiment/OpenSesame/NAP-FC/NAP_GER_AA_4blocks_noglides","yes","no","sans","no","20","no","black","no","Weiter","yes","768","legacy","2","9","0","/Users/aviadalbert/Documents/Academisch/UoC/Dissertation/Experiment/OpenSesame/NAP-FC/NAP_GER_AA_4blocks_noglides/subject-36.csv","xpyriment","Jazzy James","3.1.9","yes","yes","59a800d99ad5a1025d81bb03","59a801616c613b0251691de0","no","no","0","j","f","space","NA","return","right shift","j","822","3215","41409","NA","20931","25896","822","2","legacy","1024","1","44100","-16","experiment","zeval","4","2","0","0","1","english","36","","even","212240","170265","NA","NA","215456","212236","NA","1833","211731","1834","1833","89161","110097","222741","221235","223564","140316","136272","170265","NA","39844","77864","168601","136053","212240","136275","NA","222740","222741","NA","NA","221231","NAP perception","1","2822","3","yes","1024"
"50","yes","50","903.5","903.5","white","no","xpyriment","Ich habe die obigen Informationen gelesen und verstanden.","legacy","legacy","0","uniform","1","0","0","undefined","undefined","1","j","2","1","NA","0","1","0","0","0","0","0","0","0","0","13","13","13","0","0","0","NA","0","0","2","0","0","0","2","13","13","13","13","13","Fri Nov  3 09:55:39 2017","Forced-choice identification task with a practice and an experimental phase","yes","NAP_GER_AA_4blocks_noglides.osexp","/Users/aviadalbert/Documents/Academisch/UoC/Dissertation/Experiment/OpenSesame/NAP-FC/NAP_GER_AA_4blocks_noglides","yes","no","sans","no","20","no","black","no","Weiter","yes","768","legacy","3","9","0","/Users/aviadalbert/Documents/Academisch/UoC/Dissertation/Experiment/OpenSesame/NAP-FC/NAP_GER_AA_4blocks_noglides/subject-36.csv","xpyriment","Jazzy James","3.1.9","yes","yes","59a800d99ad5a1025d81bb03","59a801616c613b0251691de0","no","no","0","j","f","space","NA","return","right shift","j","792","3215","41409","NA","20931","25896","792","2","legacy","1024","1","44100","-16","experiment","esmal","4","2","0","0","1","english","36","","even","212240","170265","NA","NA","215456","212236","NA","1833","211731","1834","1833","89161","110097","225364","223859","226157","140316","136272","170265","NA","39844","77864","168601","136053","212240","136275","NA","225364","225364","NA","NA","223855","NAP perception","2","3614","4","yes","1024"
"40","yes","40","900","900","white","no","xpyriment","Ich habe die obigen Informationen gelesen und verstanden.","legacy","legacy","0","uniform","0","0","0","undefined","undefined","0","f","2","1","NA","0","1","0","0","0","0","0","0","0","0","14","14","14","0","0","0","NA","0","0","2","0","0","0","2","14","14","14","14","14","Fri Nov  3 09:55:39 2017","Forced-choice identification task with a practice and an experimental phase","yes","NAP_GER_AA_4blocks_noglides.osexp","/Users/aviadalbert/Documents/Academisch/UoC/Dissertation/Experiment/OpenSesame/NAP-FC/NAP_GER_AA_4blocks_noglides","yes","no","sans","no","20","no","black","no","Weiter","yes","768","legacy","4","9","0","/Users/aviadalbert/Documents/Academisch/UoC/Dissertation/Experiment/OpenSesame/NAP-FC/NAP_GER_AA_4blocks_noglides/subject-36.csv","xpyriment","Jazzy James","3.1.9","yes","yes","59a800d99ad5a1025d81bb03","59a801616c613b0251691de0","no","no","0","j","f","space","NA","return","right shift","j","886","3215","41409","NA","20931","25896","886","2","legacy","1024","1","44100","-16","experiment","fnal","4","2","0","0","1","english","36","","even","212240","170265","NA","NA","215456","212236","NA","1833","211731","1834","1833","89161","110097","227936","226431","228823","140316","136272","170265","NA","39844","77864","168601","136053","212240","136275","NA","227936","227936","NA","NA","226427","NAP perception","2","4500","5","yes","1024"
"50","yes","50","889.5","889.5","white","no","xpyriment","Ich habe die obigen Informationen gelesen und verstanden.","legacy","legacy","0","uniform","1","0","0","undefined","undefined","1","j","2","1","NA","0","1","0","0","0","0","0","0","0","0","15","15","15","0","0","0","NA","0","0","2","0","0","0","2","15","15","15","15","15","Fri Nov  3 09:55:39 2017","Forced-choice identification task with a practice and an experimental phase","yes","NAP_GER_AA_4blocks_noglides.osexp","/Users/aviadalbert/Documents/Academisch/UoC/Dissertation/Experiment/OpenSesame/NAP-FC/NAP_GER_AA_4blocks_noglides","yes","no","sans","no","20","no","black","no","Weiter","yes","768","legacy","5","9","0","/Users/aviadalbert/Documents/Academisch/UoC/Dissertation/Experiment/OpenSesame/NAP-FC/NAP_GER_AA_4blocks_noglides/subject-36.csv","xpyriment","Jazzy James","3.1.9","yes","yes","59a800d99ad5a1025d81bb03","59a801616c613b0251691de0","no","no","0","j","f","space","NA","return","right shift","j","837","3215","41409","NA","20931","25896","837","2","legacy","1024","1","44100","-16","experiment","elkal","4","2","0","0","1","english","36","","even","212240","170265","NA","NA","215456","212236","NA","1833","211731","1834","1833","89161","110097","230610","229103","231448","140316","136272","170265","NA","39844","77864","168601","136053","212240","136275","NA","230610","230610","NA","NA","229099","NAP perception","3","5337","6","yes","1024"
"57.1428571429","yes","57.1428571429","959.428571429","959.428571429","white","no","xpyriment","Ich habe die obigen Informationen gelesen und verstanden.","legacy","legacy","0","uniform","1","0","0","undefined","undefined","1","f","2","1","NA","0","1","0","0","0","0","0","0","0","0","16","16","16","0","0","0","NA","0","0","2","0","0","0","2","16","16","16","16","16","Fri Nov  3 09:55:39 2017","Forced-choice identification task with a practice and an experimental phase","yes","NAP_GER_AA_4blocks_noglides.osexp","/Users/aviadalbert/Documents/Academisch/UoC/Dissertation/Experiment/OpenSesame/NAP-FC/NAP_GER_AA_4blocks_noglides","yes","no","sans","no","20","no","black","no","Weiter","yes","768","legacy","6","9","0","/Users/aviadalbert/Documents/Academisch/UoC/Dissertation/Experiment/OpenSesame/NAP-FC/NAP_GER_AA_4blocks_noglides/subject-36.csv","xpyriment","Jazzy James","3.1.9","yes","yes","59a800d99ad5a1025d81bb03","59a801616c613b0251691de0","no","no","0","f","f","space","NA","return","right shift","f","1379","3215","41409","NA","20931","25896","1379","2","legacy","1024","1","44100","-16","experiment","spal","4","2","0","0","1","english","36","","even","212240","170265","NA","NA","215456","212236","NA","1833","211731","1834","1833","89161","110097","233242","231739","234622","140316","136272","170265","NA","39844","77864","168601","136053","212240","136275","NA","233242","233242","NA","NA","231735","NAP perception","4","6716","7","yes","1024"
"62.5","yes","62.5","945.625","945.625","white","no","xpyriment","Ich habe die obigen Informationen gelesen und verstanden.","legacy","legacy","0","uniform","1","0","0","undefined","undefined","1","j","2","1","NA","0","1","0","0","0","0","0","0","0","0","17","17","17","0","0","0","NA","0","0","2","0","0","0","2","17","17","17","17","17","Fri Nov  3 09:55:39 2017","Forced-choice identification task with a practice and an experimental phase","yes","NAP_GER_AA_4blocks_noglides.osexp","/Users/aviadalbert/Documents/Academisch/UoC/Dissertation/Experiment/OpenSesame/NAP-FC/NAP_GER_AA_4blocks_noglides","yes","no","sans","no","20","no","black","no","Weiter","yes","768","legacy","7","9","0","/Users/aviadalbert/Documents/Academisch/UoC/Dissertation/Experiment/OpenSesame/NAP-FC/NAP_GER_AA_4blocks_noglides/subject-36.csv","xpyriment","Jazzy James","3.1.9","yes","yes","59a800d99ad5a1025d81bb03","59a801616c613b0251691de0","no","no","0","j","f","space","NA","return","right shift","j","849","3215","41409","NA","20931","25896","849","2","legacy","1024","1","44100","-16","experiment","nepal","4","2","0","0","1","english","36","","even","212240","170265","NA","NA","215456","212236","NA","1833","211731","1834","1833","89161","110097","236396","234893","237247","140316","136272","170265","NA","39844","77864","168601","136053","212240","136275","NA","236396","236396","NA","NA","234889","NAP perception","5","7565","8","yes","1024"
"66.6666666667","yes","66.6666666667","942.444444444","942.444444444","white","no","xpyriment","Ich habe die obigen Informationen gelesen und verstanden.","legacy","legacy","0","uniform","1","0","0","undefined","undefined","1","j","2","1","NA","0","1","0","0","0","0","0","0","0","0","18","18","18","0","0","0","NA","0","0","2","0","0","0","2","18","18","18","18","18","Fri Nov  3 09:55:39 2017","Forced-choice identification task with a practice and an experimental phase","yes","NAP_GER_AA_4blocks_noglides.osexp","/Users/aviadalbert/Documents/Academisch/UoC/Dissertation/Experiment/OpenSesame/NAP-FC/NAP_GER_AA_4blocks_noglides","yes","no","sans","no","20","no","black","no","Weiter","yes","768","legacy","8","9","0","/Users/aviadalbert/Documents/Academisch/UoC/Dissertation/Experiment/OpenSesame/NAP-FC/NAP_GER_AA_4blocks_noglides/subject-36.csv","xpyriment","Jazzy James","3.1.9","yes","yes","59a800d99ad5a1025d81bb03","59a801616c613b0251691de0","no","no","0","j","f","space","NA","return","right shift","j","917","3215","41409","NA","20931","25896","917","2","legacy","1024","1","44100","-16","experiment","emzal","4","2","0","0","1","english","36","","even","212240","170265","NA","NA","215456","212236","NA","1833","211731","1834","1833","89161","110097","239041","237536","239960","140316","136272","170265","NA","39844","77864","168601","136053","212240","136275","NA","239041","239041","NA","NA","237532","NAP perception","6","8482","9","yes","1024"
"70","yes","70","933.1","933.1","white","no","xpyriment","Ich habe die obigen Informationen gelesen und verstanden.","legacy","legacy","0","uniform","1","0","0","undefined","undefined","1","j","2","1","NA","0","1","0","0","0","0","0","0","0","0","19","19","19","0","0","0","NA","0","0","2","0","0","0","2","19","19","19","19","19","Fri Nov  3 09:55:39 2017","Forced-choice identification task with a practice and an experimental phase","yes","NAP_GER_AA_4blocks_noglides.osexp","/Users/aviadalbert/Documents/Academisch/UoC/Dissertation/Experiment/OpenSesame/NAP-FC/NAP_GER_AA_4blocks_noglides","yes","no","sans","no","20","no","black","no","Weiter","yes","768","legacy","9","9","0","/Users/aviadalbert/Documents/Academisch/UoC/Dissertation/Experiment/OpenSesame/NAP-FC/NAP_GER_AA_4blocks_noglides/subject-36.csv","xpyriment","Jazzy James","3.1.9","yes","yes","59a800d99ad5a1025d81bb03","59a801616c613b0251691de0","no","no","0","j","f","space","NA","return","right shift","j","849","3215","41409","NA","20931","25896","849","2","legacy","1024","1","44100","-16","experiment","enfal","4","2","0","0","1","english","36","","even","212240","170265","NA","NA","215456","212236","NA","1833","211731","1834","1833","89161","110097","241730","240223","242580","140316","136272","170265","NA","39844","77864","168601","136053","212240","136275","NA","241730","241730","NA","NA","240219","NAP perception","7","9331","10","yes","1024"
"63.6363636364","yes","63.6363636364","920.454545455","920.454545455","white","no","xpyriment","Ich habe die obigen Informationen gelesen und verstanden.","legacy","legacy","0","uniform","0","0","0","undefined","undefined","0","f","2","1","NA","0","1","0","0","0","0","0","0","0","0","20","20","20","0","0","0","NA","0","0","2","0","0","0","2","20","20","20","20","20","Fri Nov  3 09:55:39 2017","Forced-choice identification task with a practice and an experimental phase","yes","NAP_GER_AA_4blocks_noglides.osexp","/Users/aviadalbert/Documents/Academisch/UoC/Dissertation/Experiment/OpenSesame/NAP-FC/NAP_GER_AA_4blocks_noglides","yes","no","sans","no","20","no","black","no","Weiter","yes","768","legacy","10","9","0","/Users/aviadalbert/Documents/Academisch/UoC/Dissertation/Experiment/OpenSesame/NAP-FC/NAP_GER_AA_4blocks_noglides/subject-36.csv","xpyriment","Jazzy James","3.1.9","yes","yes","59a800d99ad5a1025d81bb03","59a801616c613b0251691de0","no","no","0","j","f","space","NA","return","right shift","j","794","3215","41409","NA","20931","25896","794","2","legacy","1024","1","44100","-16","experiment","zmal","4","2","0","0","1","english","36","","even","212240","170265","NA","NA","215456","212236","NA","1833","211731","1834","1833","89161","110097","244359","242856","245154","140316","136272","170265","NA","39844","77864","168601","136053","212240","136275","NA","244359","244359","NA","NA","242852","NAP perception","7","10125","11","yes","1024"
"66.6666666667","yes","66.6666666667","909.833333333","909.833333333","white","no","xpyriment","Ich habe die obigen Informationen gelesen und verstanden.","legacy","legacy","0","uniform","1","0","0","undefined","undefined","1","j","2","1","NA","0","1","0","0","0","0","0","0","0","0","21","21","21","0","0","0","NA","0","0","2","0","0","0","2","21","21","21","21","21","Fri Nov  3 09:55:39 2017","Forced-choice identification task with a practice and an experimental phase","yes","NAP_GER_AA_4blocks_noglides.osexp","/Users/aviadalbert/Documents/Academisch/UoC/Dissertation/Experiment/OpenSesame/NAP-FC/NAP_GER_AA_4blocks_noglides","yes","no","sans","no","20","no","black","no","Weiter","yes","768","legacy","11","9","0","/Users/aviadalbert/Documents/Academisch/UoC/Dissertation/Experiment/OpenSesame/NAP-FC/NAP_GER_AA_4blocks_noglides/subject-36.csv","xpyriment","Jazzy James","3.1.9","yes","yes","59a800d99ad5a1025d81bb03","59a801616c613b0251691de0","no","no","0","j","f","space","NA","return","right shift","j","793","3215","41409","NA","20931","25896","793","2","legacy","1024","1","44100","-16","experiment","vezal","4","2","0","0","1","english","36","","even","212240","170265","NA","NA","215456","212236","NA","1833","211731","1834","1833","89161","110097","246926","245420","247720","140316","136272","170265","NA","39844","77864","168601","136053","212240","136275","NA","246926","246926","NA","NA","245416","NAP perception","8","10918","12","yes","1024"
"69.2307692308","yes","69.2307692308","907.307692308","907.307692308","white","no","xpyriment","Ich habe die obigen Informationen gelesen und verstanden.","legacy","legacy","0","uniform","1","0","0","undefined","undefined","1","j","2","1","NA","0","1","0","0","0","0","0","0","0","0","22","22","22","0","0","0","NA","0","0","2","0","0","0","2","22","22","22","22","22","Fri Nov  3 09:55:39 2017","Forced-choice identification task with a practice and an experimental phase","yes","NAP_GER_AA_4blocks_noglides.osexp","/Users/aviadalbert/Documents/Academisch/UoC/Dissertation/Experiment/OpenSesame/NAP-FC/NAP_GER_AA_4blocks_noglides","yes","no","sans","no","20","no","black","no","Weiter","yes","768","legacy","12","9","0","/Users/aviadalbert/Documents/Academisch/UoC/Dissertation/Experiment/OpenSesame/NAP-FC/NAP_GER_AA_4blocks_noglides/subject-36.csv","xpyriment","Jazzy James","3.1.9","yes","yes","59a800d99ad5a1025d81bb03","59a801616c613b0251691de0","no","no","0","j","f","space","NA","return","right shift","j","877","3215","41409","NA","20931","25896","877","2","legacy","1024","1","44100","-16","experiment","evnal","4","2","0","0","1","english","36","","even","212240","170265","NA","NA","215456","212236","NA","1833","211731","1834","1833","89161","110097","249503","247998","250382","140316","136272","170265","NA","39844","77864","168601","136053","212240","136275","NA","249503","249503","NA","NA","247995","NAP perception","9","11795","13","yes","1024"
"71.4285714286","yes","71.4285714286","953.071428571","953.071428571","white","no","xpyriment","Ich habe die obigen Informationen gelesen und verstanden.","legacy","legacy","0","uniform","1","0","0","undefined","undefined","1","f","2","1","NA","0","1","0","0","0","0","0","0","0","0","23","23","23","0","0","0","NA","0","0","2","0","0","0","2","23","23","23","23","23","Fri Nov  3 09:55:39 2017","Forced-choice identification task with a practice and an experimental phase","yes","NAP_GER_AA_4blocks_noglides.osexp","/Users/aviadalbert/Documents/Academisch/UoC/Dissertation/Experiment/OpenSesame/NAP-FC/NAP_GER_AA_4blocks_noglides","yes","no","sans","no","20","no","black","no","Weiter","yes","768","legacy","13","9","0","/Users/aviadalbert/Documents/Academisch/UoC/Dissertation/Experiment/OpenSesame/NAP-FC/NAP_GER_AA_4blocks_noglides/subject-36.csv","xpyriment","Jazzy James","3.1.9","yes","yes","59a800d99ad5a1025d81bb03","59a801616c613b0251691de0","no","no","0","f","f","space","NA","return","right shift","f","1548","3215","41409","NA","20931","25896","1548","2","legacy","1024","1","44100","-16","experiment","vzal","4","2","0","0","1","english","36","","even","212240","170265","NA","NA","215456","212236","NA","1833","211731","1834","1833","89161","110097","252166","250662","253715","140316","136272","170265","NA","39844","77864","168601","136053","212240","136275","NA","252165","252166","NA","NA","250658","NAP perception","10","13343","14","yes","1024"
"73.3333333333","yes","73.3333333333","968.133333333","968.133333333","white","no","xpyriment","Ich habe die obigen Informationen gelesen und verstanden.","legacy","legacy","0","uniform","1","0","0","undefined","undefined","1","f","2","1","NA","0","1","0","0","0","0","0","0","0","0","24","24","24","0","0","0","NA","0","0","2","0","0","0","2","24","24","24","24","24","Fri Nov  3 09:55:39 2017","Forced-choice identification task with a practice and an experimental phase","yes","NAP_GER_AA_4blocks_noglides.osexp","/Users/aviadalbert/Documents/Academisch/UoC/Dissertation/Experiment/OpenSesame/NAP-FC/NAP_GER_AA_4blocks_noglides","yes","no","sans","no","20","no","black","no","Weiter","yes","768","legacy","14","9","0","/Users/aviadalbert/Documents/Academisch/UoC/Dissertation/Experiment/OpenSesame/NAP-FC/NAP_GER_AA_4blocks_noglides/subject-36.csv","xpyriment","Jazzy James","3.1.9","yes","yes","59a800d99ad5a1025d81bb03","59a801616c613b0251691de0","no","no","0","f","f","space","NA","return","right shift","f","1179","3215","41409","NA","20931","25896","1179","2","legacy","1024","1","44100","-16","experiment","ʃpal","4","2","0","0","1","english","36","","even","212240","170265","NA","NA","215456","212236","NA","1833","211731","1834","1833","89161","110097","255484","253980","256664","140316","136272","170265","NA","39844","77864","168601","136053","212240","136275","NA","255484","255484","NA","NA","253977","NAP perception","11","14522","15","yes","1024"
"68.75","yes","68.75","1012.0625","1012.0625","white","no","xpyriment","Ich habe die obigen Informationen gelesen und verstanden.","legacy","legacy","0","uniform","0","0","0","undefined","undefined","0","f","2","1","NA","0","1","0","0","0","0","0","0","0","0","25","25","25","0","0","0","NA","0","0","2","0","0","0","2","25","25","25","25","25","Fri Nov  3 09:55:39 2017","Forced-choice identification task with a practice and an experimental phase","yes","NAP_GER_AA_4blocks_noglides.osexp","/Users/aviadalbert/Documents/Academisch/UoC/Dissertation/Experiment/OpenSesame/NAP-FC/NAP_GER_AA_4blocks_noglides","yes","no","sans","no","20","no","black","no","Weiter","yes","768","legacy","15","9","0","/Users/aviadalbert/Documents/Academisch/UoC/Dissertation/Experiment/OpenSesame/NAP-FC/NAP_GER_AA_4blocks_noglides/subject-36.csv","xpyriment","Jazzy James","3.1.9","yes","yes","59a800d99ad5a1025d81bb03","59a801616c613b0251691de0","no","no","0","j","f","space","NA","return","right shift","j","1671","3215","41409","NA","20931","25896","1671","2","legacy","1024","1","44100","-16","experiment","nval","4","2","0","0","1","english","36","","even","212240","170265","NA","NA","215456","212236","NA","1833","211731","1834","1833","89161","110097","258442","256939","260115","140316","136272","170265","NA","39844","77864","168601","136053","212240","136275","NA","258442","258442","NA","NA","256935","NAP perception","11","16193","16","yes","1024"
"70.5882352941","yes","70.5882352941","997.176470588","997.176470588","white","no","xpyriment","Ich habe die obigen Informationen gelesen und verstanden.","legacy","legacy","0","uniform","1","0","0","undefined","undefined","1","j","2","1","NA","0","1","0","0","0","0","0","0","0","0","26","26","26","0","0","0","NA","0","0","2","0","0","0","2","26","26","26","26","26","Fri Nov  3 09:55:39 2017","Forced-choice identification task with a practice and an experimental phase","yes","NAP_GER_AA_4blocks_noglides.osexp","/Users/aviadalbert/Documents/Academisch/UoC/Dissertation/Experiment/OpenSesame/NAP-FC/NAP_GER_AA_4blocks_noglides","yes","no","sans","no","20","no","black","no","Weiter","yes","768","legacy","16","9","0","/Users/aviadalbert/Documents/Academisch/UoC/Dissertation/Experiment/OpenSesame/NAP-FC/NAP_GER_AA_4blocks_noglides/subject-36.csv","xpyriment","Jazzy James","3.1.9","yes","yes","59a800d99ad5a1025d81bb03","59a801616c613b0251691de0","no","no","0","j","f","space","NA","return","right shift","j","759","3215","41409","NA","20931","25896","759","2","legacy","1024","1","44100","-16","experiment","melal","4","2","0","0","1","english","36","","even","212240","170265","NA","NA","215456","212236","NA","1833","211731","1834","1833","89161","110097","261896","260391","262656","140316","136272","170265","NA","39844","77864","168601","136053","212240","136275","NA","261896","261896","NA","NA","260388","NAP perception","12","16952","17","yes","1024"
"66.6666666667","yes","66.6666666667","1033.05555556","1033.05555556","white","no","xpyriment","Ich habe die obigen Informationen gelesen und verstanden.","legacy","legacy","0","uniform","0","0","0","undefined","undefined","0","f","2","1","NA","0","1","0","0","0","0","0","0","0","0","27","27","27","0","0","0","NA","0","0","2","0","0","0","2","27","27","27","27","27","Fri Nov  3 09:55:39 2017","Forced-choice identification task with a practice and an experimental phase","yes","NAP_GER_AA_4blocks_noglides.osexp","/Users/aviadalbert/Documents/Academisch/UoC/Dissertation/Experiment/OpenSesame/NAP-FC/NAP_GER_AA_4blocks_noglides","yes","no","sans","no","20","no","black","no","Weiter","yes","768","legacy","17","9","0","/Users/aviadalbert/Documents/Academisch/UoC/Dissertation/Experiment/OpenSesame/NAP-FC/NAP_GER_AA_4blocks_noglides/subject-36.csv","xpyriment","Jazzy James","3.1.9","yes","yes","59a800d99ad5a1025d81bb03","59a801616c613b0251691de0","no","no","0","j","f","space","NA","return","right shift","j","1643","3215","41409","NA","20931","25896","1643","2","legacy","1024","1","44100","-16","experiment","nfal","4","2","0","0","1","english","36","","even","212240","170265","NA","NA","215456","212236","NA","1833","211731","1834","1833","89161","110097","264445","262939","266090","140316","136272","170265","NA","39844","77864","168601","136053","212240","136275","NA","264445","264445","NA","NA","262935","NAP perception","12","18595","18","yes","1024"
"68.4210526316","yes","68.4210526316","1028.15789474","1028.15789474","white","no","xpyriment","Ich habe die obigen Informationen gelesen und verstanden.","legacy","legacy","0","uniform","1","0","0","undefined","undefined","1","f","2","1","NA","0","1","0","0","0","0","0","0","0","0","28","28","28","0","0","0","NA","0","0","2","0","0","0","2","28","28","28","28","28","Fri Nov  3 09:55:39 2017","Forced-choice identification task with a practice and an experimental phase","yes","NAP_GER_AA_4blocks_noglides.osexp","/Users/aviadalbert/Documents/Academisch/UoC/Dissertation/Experiment/OpenSesame/NAP-FC/NAP_GER_AA_4blocks_noglides","yes","no","sans","no","20","no","black","no","Weiter","yes","768","legacy","18","9","0","/Users/aviadalbert/Documents/Academisch/UoC/Dissertation/Experiment/OpenSesame/NAP-FC/NAP_GER_AA_4blocks_noglides/subject-36.csv","xpyriment","Jazzy James","3.1.9","yes","yes","59a800d99ad5a1025d81bb03","59a801616c613b0251691de0","no","no","0","f","f","space","NA","return","right shift","f","940","3215","41409","NA","20931","25896","940","2","legacy","1024","1","44100","-16","experiment","zval","4","2","0","0","1","english","36","","even","212240","170265","NA","NA","215456","212236","NA","1833","211731","1834","1833","89161","110097","267885","266381","268827","140316","136272","170265","NA","39844","77864","168601","136053","212240","136275","NA","267884","267884","NA","NA","266377","NAP perception","13","19535","19","yes","1024"
"70","yes","70","1019.4","1019.4","white","no","xpyriment","Ich habe die obigen Informationen gelesen und verstanden.","legacy","legacy","0","uniform","1","0","0","undefined","undefined","1","j","2","1","NA","0","1","0","0","0","0","0","0","0","0","29","29","29","0","0","0","NA","0","0","2","0","0","0","2","29","29","29","29","29","Fri Nov  3 09:55:39 2017","Forced-choice identification task with a practice and an experimental phase","yes","NAP_GER_AA_4blocks_noglides.osexp","/Users/aviadalbert/Documents/Academisch/UoC/Dissertation/Experiment/OpenSesame/NAP-FC/NAP_GER_AA_4blocks_noglides","yes","no","sans","no","20","no","black","no","Weiter","yes","768","legacy","19","9","0","/Users/aviadalbert/Documents/Academisch/UoC/Dissertation/Experiment/OpenSesame/NAP-FC/NAP_GER_AA_4blocks_noglides/subject-36.csv","xpyriment","Jazzy James","3.1.9","yes","yes","59a800d99ad5a1025d81bb03","59a801616c613b0251691de0","no","no","0","j","f","space","NA","return","right shift","j","853","3215","41409","NA","20931","25896","853","2","legacy","1024","1","44100","-16","experiment","enpal","4","2","0","0","1","english","36","","even","212240","170265","NA","NA","215456","212236","NA","1833","211731","1834","1833","89161","110097","270602","269099","271456","140316","136272","170265","NA","39844","77864","168601","136053","212240","136275","NA","270602","270602","NA","NA","269095","NAP perception","14","20388","20","yes","1024"
"71.4285714286","yes","71.4285714286","1014.9047619","1014.9047619","white","no","xpyriment","Ich habe die obigen Informationen gelesen und verstanden.","legacy","legacy","0","uniform","1","0","0","undefined","undefined","1","j","2","1","NA","0","1","0","0","0","0","0","0","0","0","30","30","30","0","0","0","NA","0","0","2","0","0","0","2","30","30","30","30","30","Fri Nov  3 09:55:39 2017","Forced-choice identification task with a practice and an experimental phase","yes","NAP_GER_AA_4blocks_noglides.osexp","/Users/aviadalbert/Documents/Academisch/UoC/Dissertation/Experiment/OpenSesame/NAP-FC/NAP_GER_AA_4blocks_noglides","yes","no","sans","no","20","no","black","no","Weiter","yes","768","legacy","20","9","0","/Users/aviadalbert/Documents/Academisch/UoC/Dissertation/Experiment/OpenSesame/NAP-FC/NAP_GER_AA_4blocks_noglides/subject-36.csv","xpyriment","Jazzy James","3.1.9","yes","yes","59a800d99ad5a1025d81bb03","59a801616c613b0251691de0","no","no","0","j","f","space","NA","return","right shift","j","925","3215","41409","NA","20931","25896","925","2","legacy","1024","1","44100","-16","experiment","menal","4","2","0","0","1","english","36","","even","212240","170265","NA","NA","215456","212236","NA","1833","211731","1834","1833","89161","110097","273227","271724","274153","140316","136272","170265","NA","39844","77864","168601","136053","212240","136275","NA","273227","273227","NA","NA","271720","NAP perception","15","21313","21","yes","1024"
"68.1818181818","yes","68.1818181818","1014.27272727","1014.27272727","white","no","xpyriment","Ich habe die obigen Informationen gelesen und verstanden.","legacy","legacy","0","uniform","0","0","0","undefined","undefined","0","f","2","1","NA","0","1","0","0","0","0","0","0","0","0","31","31","31","0","0","0","NA","0","0","2","0","0","0","2","31","31","31","31","31","Fri Nov  3 09:55:39 2017","Forced-choice identification task with a practice and an experimental phase","yes","NAP_GER_AA_4blocks_noglides.osexp","/Users/aviadalbert/Documents/Academisch/UoC/Dissertation/Experiment/OpenSesame/NAP-FC/NAP_GER_AA_4blocks_noglides","yes","no","sans","no","20","no","black","no","Weiter","yes","768","legacy","21","9","0","/Users/aviadalbert/Documents/Academisch/UoC/Dissertation/Experiment/OpenSesame/NAP-FC/NAP_GER_AA_4blocks_noglides/subject-36.csv","xpyriment","Jazzy James","3.1.9","yes","yes","59a800d99ad5a1025d81bb03","59a801616c613b0251691de0","no","no","0","j","f","space","NA","return","right shift","j","1001","3215","41409","NA","20931","25896","1001","2","legacy","1024","1","44100","-16","experiment","mtal","4","2","0","0","1","english","36","","even","212240","170265","NA","NA","215456","212236","NA","1833","211731","1834","1833","89161","110097","275951","274445","276953","140316","136272","170265","NA","39844","77864","168601","136053","212240","136275","NA","275951","275951","NA","NA","274441","NAP perception","15","22314","22","yes","1024"
"69.5652173913","yes","69.5652173913","1024.56521739","1024.56521739","white","no","xpyriment","Ich habe die obigen Informationen gelesen und verstanden.","legacy","legacy","0","uniform","1","0","0","undefined","undefined","1","j","2","1","NA","0","1","0","0","0","0","0","0","0","0","32","32","32","0","0","0","NA","0","0","2","0","0","0","2","32","32","32","32","32","Fri Nov  3 09:55:39 2017","Forced-choice identification task with a practice and an experimental phase","yes","NAP_GER_AA_4blocks_noglides.osexp","/Users/aviadalbert/Documents/Academisch/UoC/Dissertation/Experiment/OpenSesame/NAP-FC/NAP_GER_AA_4blocks_noglides","yes","no","sans","no","20","no","black","no","Weiter","yes","768","legacy","22","9","0","/Users/aviadalbert/Documents/Academisch/UoC/Dissertation/Experiment/OpenSesame/NAP-FC/NAP_GER_AA_4blocks_noglides/subject-36.csv","xpyriment","Jazzy James","3.1.9","yes","yes","59a800d99ad5a1025d81bb03","59a801616c613b0251691de0","no","no","0","j","f","space","NA","return","right shift","j","1251","3215","41409","NA","20931","25896","1251","2","legacy","1024","1","44100","-16","experiment","eʃmal","4","2","0","0","1","english","36","","even","212240","170265","NA","NA","215456","212236","NA","1833","211731","1834","1833","89161","110097","278749","277243","280001","140316","136272","170265","NA","39844","77864","168601","136053","212240","136275","NA","278748","278748","NA","NA","277239","NAP perception","16","23565","23","yes","1024"
"66.6666666667","yes","66.6666666667","1020.58333333","1020.58333333","white","no","xpyriment","Ich habe die obigen Informationen gelesen und verstanden.","legacy","legacy","0","uniform","0","0","0","undefined","undefined","0","f","2","1","NA","0","1","0","0","0","0","0","0","0","0","33","33","33","0","0","0","NA","0","0","2","0","0","0","2","33","33","33","33","33","Fri Nov  3 09:55:39 2017","Forced-choice identification task with a practice and an experimental phase","yes","NAP_GER_AA_4blocks_noglides.osexp","/Users/aviadalbert/Documents/Academisch/UoC/Dissertation/Experiment/OpenSesame/NAP-FC/NAP_GER_AA_4blocks_noglides","yes","no","sans","no","20","no","black","no","Weiter","yes","768","legacy","23","9","0","/Users/aviadalbert/Documents/Academisch/UoC/Dissertation/Experiment/OpenSesame/NAP-FC/NAP_GER_AA_4blocks_noglides/subject-36.csv","xpyriment","Jazzy James","3.1.9","yes","yes","59a800d99ad5a1025d81bb03","59a801616c613b0251691de0","no","no","0","j","f","space","NA","return","right shift","j","929","3215","41409","NA","20931","25896","929","2","legacy","1024","1","44100","-16","experiment","mtal","4","2","0","0","1","english","36","","even","212240","170265","NA","NA","215456","212236","NA","1833","211731","1834","1833","89161","110097","281779","280273","282709","140316","136272","170265","NA","39844","77864","168601","136053","212240","136275","NA","281779","281779","NA","NA","280269","NAP perception","16","24494","24","yes","1024"
"64","yes","64","1019.2","1019.2","white","no","xpyriment","Ich habe die obigen Informationen gelesen und verstanden.","legacy","legacy","0","uniform","0","0","0","undefined","undefined","0","f","2","1","NA","0","1","0","0","0","0","0","0","0","0","34","34","34","0","0","0","NA","0","0","2","0","0","0","2","34","34","34","34","34","Fri Nov  3 09:55:39 2017","Forced-choice identification task with a practice and an experimental phase","yes","NAP_GER_AA_4blocks_noglides.osexp","/Users/aviadalbert/Documents/Academisch/UoC/Dissertation/Experiment/OpenSesame/NAP-FC/NAP_GER_AA_4blocks_noglides","yes","no","sans","no","20","no","black","no","Weiter","yes","768","legacy","24","9","0","/Users/aviadalbert/Documents/Academisch/UoC/Dissertation/Experiment/OpenSesame/NAP-FC/NAP_GER_AA_4blocks_noglides/subject-36.csv","xpyriment","Jazzy James","3.1.9","yes","yes","59a800d99ad5a1025d81bb03","59a801616c613b0251691de0","no","no","0","j","f","space","NA","return","right shift","j","986","3215","41409","NA","20931","25896","986","2","legacy","1024","1","44100","-16","experiment","npal","4","2","0","0","1","english","36","","even","212240","170265","NA","NA","215456","212236","NA","1833","211731","1834","1833","89161","110097","284478","282975","285465","140316","136272","170265","NA","39844","77864","168601","136053","212240","136275","NA","284478","284478","NA","NA","282971","NAP perception","16","25480","25","yes","1024"
"65.3846153846","yes","65.3846153846","1010.84615385","1010.84615385","white","no","xpyriment","Ich habe die obigen Informationen gelesen und verstanden.","legacy","legacy","0","uniform","1","0","0","undefined","undefined","1","j","2","1","NA","0","1","0","0","0","0","0","0","0","0","35","35","35","0","0","0","NA","0","0","2","0","0","0","2","35","35","35","35","35","Fri Nov  3 09:55:39 2017","Forced-choice identification task with a practice and an experimental phase","yes","NAP_GER_AA_4blocks_noglides.osexp","/Users/aviadalbert/Documents/Academisch/UoC/Dissertation/Experiment/OpenSesame/NAP-FC/NAP_GER_AA_4blocks_noglides","yes","no","sans","no","20","no","black","no","Weiter","yes","768","legacy","25","9","0","/Users/aviadalbert/Documents/Academisch/UoC/Dissertation/Experiment/OpenSesame/NAP-FC/NAP_GER_AA_4blocks_noglides/subject-36.csv","xpyriment","Jazzy James","3.1.9","yes","yes","59a800d99ad5a1025d81bb03","59a801616c613b0251691de0","no","no","0","j","f","space","NA","return","right shift","j","802","3215","41409","NA","20931","25896","802","2","legacy","1024","1","44100","-16","experiment","elpal","4","2","0","0","1","english","36","","even","212240","170265","NA","NA","215456","212236","NA","1833","211731","1834","1833","89161","110097","287247","285740","288051","140316","136272","170265","NA","39844","77864","168601","136053","212240","136275","NA","287247","287247","NA","NA","285736","NAP perception","17","26282","26","yes","1024"
"66.6666666667","yes","66.6666666667","1005.2962963","1005.2962963","white","no","xpyriment","Ich habe die obigen Informationen gelesen und verstanden.","legacy","legacy","0","uniform","1","0","0","undefined","undefined","1","f","2","1","NA","0","1","0","0","0","0","0","0","0","0","36","36","36","0","0","0","NA","0","0","2","0","0","0","2","36","36","36","36","36","Fri Nov  3 09:55:39 2017","Forced-choice identification task with a practice and an experimental phase","yes","NAP_GER_AA_4blocks_noglides.osexp","/Users/aviadalbert/Documents/Academisch/UoC/Dissertation/Experiment/OpenSesame/NAP-FC/NAP_GER_AA_4blocks_noglides","yes","no","sans","no","20","no","black","no","Weiter","yes","768","legacy","26","9","0","/Users/aviadalbert/Documents/Academisch/UoC/Dissertation/Experiment/OpenSesame/NAP-FC/NAP_GER_AA_4blocks_noglides/subject-36.csv","xpyriment","Jazzy James","3.1.9","yes","yes","59a800d99ad5a1025d81bb03","59a801616c613b0251691de0","no","no","0","f","f","space","NA","return","right shift","f","861","3215","41409","NA","20931","25896","861","2","legacy","1024","1","44100","-16","experiment","ʃpal","4","2","0","0","1","english","36","","even","212240","170265","NA","NA","215456","212236","NA","1833","211731","1834","1833","89161","110097","289842","288337","290704","140316","136272","170265","NA","39844","77864","168601","136053","212240","136275","NA","289841","289841","NA","NA","288333","NAP perception","18","27143","27","yes","1024"
"67.8571428571","yes","67.8571428571","1006.64285714","1006.64285714","white","no","xpyriment","Ich habe die obigen Informationen gelesen und verstanden.","legacy","legacy","0","uniform","1","0","0","undefined","undefined","1","f","2","1","NA","0","1","0","0","0","0","0","0","0","0","37","37","37","0","0","0","NA","0","0","2","0","0","0","2","37","37","37","37","37","Fri Nov  3 09:55:39 2017","Forced-choice identification task with a practice and an experimental phase","yes","NAP_GER_AA_4blocks_noglides.osexp","/Users/aviadalbert/Documents/Academisch/UoC/Dissertation/Experiment/OpenSesame/NAP-FC/NAP_GER_AA_4blocks_noglides","yes","no","sans","no","20","no","black","no","Weiter","yes","768","legacy","27","9","0","/Users/aviadalbert/Documents/Academisch/UoC/Dissertation/Experiment/OpenSesame/NAP-FC/NAP_GER_AA_4blocks_noglides/subject-36.csv","xpyriment","Jazzy James","3.1.9","yes","yes","59a800d99ad5a1025d81bb03","59a801616c613b0251691de0","no","no","0","f","f","space","NA","return","right shift","f","1043","3215","41409","NA","20931","25896","1043","2","legacy","1024","1","44100","-16","experiment","flal","4","2","0","0","1","english","36","","even","212240","170265","NA","NA","215456","212236","NA","1833","211731","1834","1833","89161","110097","292475","290972","293520","140316","136272","170265","NA","39844","77864","168601","136053","212240","136275","NA","292475","292475","NA","NA","290968","NAP perception","19","28186","28","yes","1024"
"65.5172413793","yes","65.5172413793","1013.20689655","1013.20689655","white","no","xpyriment","Ich habe die obigen Informationen gelesen und verstanden.","legacy","legacy","0","uniform","0","0","0","undefined","undefined","0","f","2","1","NA","0","1","0","0","0","0","0","0","0","0","38","38","38","0","0","0","NA","0","0","2","0","0","0","2","38","38","38","38","38","Fri Nov  3 09:55:39 2017","Forced-choice identification task with a practice and an experimental phase","yes","NAP_GER_AA_4blocks_noglides.osexp","/Users/aviadalbert/Documents/Academisch/UoC/Dissertation/Experiment/OpenSesame/NAP-FC/NAP_GER_AA_4blocks_noglides","yes","no","sans","no","20","no","black","no","Weiter","yes","768","legacy","28","9","0","/Users/aviadalbert/Documents/Academisch/UoC/Dissertation/Experiment/OpenSesame/NAP-FC/NAP_GER_AA_4blocks_noglides/subject-36.csv","xpyriment","Jazzy James","3.1.9","yes","yes","59a800d99ad5a1025d81bb03","59a801616c613b0251691de0","no","no","0","j","f","space","NA","return","right shift","j","1197","3215","41409","NA","20931","25896","1197","2","legacy","1024","1","44100","-16","experiment","zval","4","2","0","0","1","english","36","","even","212240","170265","NA","NA","215456","212236","NA","1833","211731","1834","1833","89161","110097","295304","293797","296503","140316","136272","170265","NA","39844","77864","168601","136053","212240","136275","NA","295304","295304","NA","NA","293794","NAP perception","19","29383","29","yes","1024"
"63.3333333333","yes","63.3333333333","1034.86666667","1034.86666667","white","no","xpyriment","Ich habe die obigen Informationen gelesen und verstanden.","legacy","legacy","0","uniform","0","0","0","undefined","undefined","0","f","2","1","NA","0","1","0","0","0","0","0","0","0","0","39","39","39","0","0","0","NA","0","0","2","0","0","0","2","39","39","39","39","39","Fri Nov  3 09:55:39 2017","Forced-choice identification task with a practice and an experimental phase","yes","NAP_GER_AA_4blocks_noglides.osexp","/Users/aviadalbert/Documents/Academisch/UoC/Dissertation/Experiment/OpenSesame/NAP-FC/NAP_GER_AA_4blocks_noglides","yes","no","sans","no","20","no","black","no","Weiter","yes","768","legacy","29","9","0","/Users/aviadalbert/Documents/Academisch/UoC/Dissertation/Experiment/OpenSesame/NAP-FC/NAP_GER_AA_4blocks_noglides/subject-36.csv","xpyriment","Jazzy James","3.1.9","yes","yes","59a800d99ad5a1025d81bb03","59a801616c613b0251691de0","no","no","0","j","f","space","NA","return","right shift","j","1663","3215","41409","NA","20931","25896","1663","2","legacy","1024","1","44100","-16","experiment","mlal","4","2","0","0","1","english","36","","even","212240","170265","NA","NA","215456","212236","NA","1833","211731","1834","1833","89161","110097","298285","296778","299950","140316","136272","170265","NA","39844","77864","168601","136053","212240","136275","NA","298285","298285","NA","NA","296774","NAP perception","19","31046","30","yes","1024"
"64.5161290323","yes","64.5161290323","1045.22580645","1045.22580645","white","no","xpyriment","Ich habe die obigen Informationen gelesen und verstanden.","legacy","legacy","0","uniform","1","0","0","undefined","undefined","1","j","2","1","NA","0","1","0","0","0","0","0","0","0","0","40","40","40","0","0","0","NA","0","0","2","0","0","0","2","40","40","40","40","40","Fri Nov  3 09:55:39 2017","Forced-choice identification task with a practice and an experimental phase","yes","NAP_GER_AA_4blocks_noglides.osexp","/Users/aviadalbert/Documents/Academisch/UoC/Dissertation/Experiment/OpenSesame/NAP-FC/NAP_GER_AA_4blocks_noglides","yes","no","sans","no","20","no","black","no","Weiter","yes","768","legacy","30","9","0","/Users/aviadalbert/Documents/Academisch/UoC/Dissertation/Experiment/OpenSesame/NAP-FC/NAP_GER_AA_4blocks_noglides/subject-36.csv","xpyriment","Jazzy James","3.1.9","yes","yes","59a800d99ad5a1025d81bb03","59a801616c613b0251691de0","no","no","0","j","f","space","NA","return","right shift","j","1356","3215","41409","NA","20931","25896","1356","2","legacy","1024","1","44100","-16","experiment","ezmal","4","2","0","0","1","english","36","","even","212240","170265","NA","NA","215456","212236","NA","1833","211731","1834","1833","89161","110097","301725","300220","303083","140316","136272","170265","NA","39844","77864","168601","136053","212240","136275","NA","301725","301725","NA","NA","300217","NAP perception","20","32402","31","yes","1024"
"65.625","yes","65.625","1045.15625","1045.15625","white","no","xpyriment","Ich habe die obigen Informationen gelesen und verstanden.","legacy","legacy","0","uniform","1","0","0","undefined","undefined","1","j","2","1","NA","0","1","0","0","0","0","0","0","0","0","41","41","41","0","0","0","NA","0","0","2","0","0","0","2","41","41","41","41","41","Fri Nov  3 09:55:39 2017","Forced-choice identification task with a practice and an experimental phase","yes","NAP_GER_AA_4blocks_noglides.osexp","/Users/aviadalbert/Documents/Academisch/UoC/Dissertation/Experiment/OpenSesame/NAP-FC/NAP_GER_AA_4blocks_noglides","yes","no","sans","no","20","no","black","no","Weiter","yes","768","legacy","31","9","0","/Users/aviadalbert/Documents/Academisch/UoC/Dissertation/Experiment/OpenSesame/NAP-FC/NAP_GER_AA_4blocks_noglides/subject-36.csv","xpyriment","Jazzy James","3.1.9","yes","yes","59a800d99ad5a1025d81bb03","59a801616c613b0251691de0","no","no","0","j","f","space","NA","return","right shift","j","1043","3215","41409","NA","20931","25896","1043","2","legacy","1024","1","44100","-16","experiment","velal","4","2","0","0","1","english","36","","even","212240","170265","NA","NA","215456","212236","NA","1833","211731","1834","1833","89161","110097","304853","303346","305897","140316","136272","170265","NA","39844","77864","168601","136053","212240","136275","NA","304853","304853","NA","NA","303342","NAP perception","21","33445","32","yes","1024"
"63.6363636364","yes","63.6363636364","1059.42424242","1059.42424242","white","no","xpyriment","Ich habe die obigen Informationen gelesen und verstanden.","legacy","legacy","0","uniform","0","0","0","undefined","undefined","0","f","2","1","NA","0","1","0","0","0","0","0","0","0","0","42","42","42","0","0","0","NA","0","0","2","0","0","0","2","42","42","42","42","42","Fri Nov  3 09:55:39 2017","Forced-choice identification task with a practice and an experimental phase","yes","NAP_GER_AA_4blocks_noglides.osexp","/Users/aviadalbert/Documents/Academisch/UoC/Dissertation/Experiment/OpenSesame/NAP-FC/NAP_GER_AA_4blocks_noglides","yes","no","sans","no","20","no","black","no","Weiter","yes","768","legacy","32","9","0","/Users/aviadalbert/Documents/Academisch/UoC/Dissertation/Experiment/OpenSesame/NAP-FC/NAP_GER_AA_4blocks_noglides/subject-36.csv","xpyriment","Jazzy James","3.1.9","yes","yes","59a800d99ad5a1025d81bb03","59a801616c613b0251691de0","no","no","0","j","f","space","NA","return","right shift","j","1516","3215","41409","NA","20931","25896","1516","2","legacy","1024","1","44100","-16","experiment","lmal","4","2","0","0","1","english","36","","even","212240","170265","NA","NA","215456","212236","NA","1833","211731","1834","1833","89161","110097","307681","306174","309199","140316","136272","170265","NA","39844","77864","168601","136053","212240","136275","NA","307680","307680","NA","NA","306170","NAP perception","21","34961","33","yes","1024"
"64.7058823529","yes","64.7058823529","1059.14705882","1059.14705882","white","no","xpyriment","Ich habe die obigen Informationen gelesen und verstanden.","legacy","legacy","0","uniform","1","0","0","undefined","undefined","1","j","2","1","NA","0","1","0","0","0","0","0","0","0","0","43","43","43","0","0","0","NA","0","0","2","0","0","0","2","43","43","43","43","43","Fri Nov  3 09:55:39 2017","Forced-choice identification task with a practice and an experimental phase","yes","NAP_GER_AA_4blocks_noglides.osexp","/Users/aviadalbert/Documents/Academisch/UoC/Dissertation/Experiment/OpenSesame/NAP-FC/NAP_GER_AA_4blocks_noglides","yes","no","sans","no","20","no","black","no","Weiter","yes","768","legacy","33","9","0","/Users/aviadalbert/Documents/Academisch/UoC/Dissertation/Experiment/OpenSesame/NAP-FC/NAP_GER_AA_4blocks_noglides/subject-36.csv","xpyriment","Jazzy James","3.1.9","yes","yes","59a800d99ad5a1025d81bb03","59a801616c613b0251691de0","no","no","0","j","f","space","NA","return","right shift","j","1050","3215","41409","NA","20931","25896","1050","2","legacy","1024","1","44100","-16","experiment","ʃefal","4","2","0","0","1","english","36","","even","212240","170265","NA","NA","215456","212236","NA","1833","211731","1834","1833","89161","110097","310968","309462","312019","140316","136272","170265","NA","39844","77864","168601","136053","212240","136275","NA","310968","310968","NA","NA","309458","NAP perception","22","36011","34","yes","1024"
"65.7142857143","yes","65.7142857143","1053.65714286","1053.65714286","white","no","xpyriment","Ich habe die obigen Informationen gelesen und verstanden.","legacy","legacy","0","uniform","1","0","0","undefined","undefined","1","j","2","1","NA","0","1","0","0","0","0","0","0","0","0","44","44","44","0","0","0","NA","0","0","2","0","0","0","2","44","44","44","44","44","Fri Nov  3 09:55:39 2017","Forced-choice identification task with a practice and an experimental phase","yes","NAP_GER_AA_4blocks_noglides.osexp","/Users/aviadalbert/Documents/Academisch/UoC/Dissertation/Experiment/OpenSesame/NAP-FC/NAP_GER_AA_4blocks_noglides","yes","no","sans","no","20","no","black","no","Weiter","yes","768","legacy","34","9","0","/Users/aviadalbert/Documents/Academisch/UoC/Dissertation/Experiment/OpenSesame/NAP-FC/NAP_GER_AA_4blocks_noglides/subject-36.csv","xpyriment","Jazzy James","3.1.9","yes","yes","59a800d99ad5a1025d81bb03","59a801616c613b0251691de0","no","no","0","j","f","space","NA","return","right shift","j","867","3215","41409","NA","20931","25896","867","2","legacy","1024","1","44100","-16","experiment","lekal","4","2","0","0","1","english","36","","even","212240","170265","NA","NA","215456","212236","NA","1833","211731","1834","1833","89161","110097","313812","312305","314680","140316","136272","170265","NA","39844","77864","168601","136053","212240","136275","NA","313812","313812","NA","NA","312301","NAP perception","23","36878","35","yes","1024"
"66.6666666667","yes","66.6666666667","1046.41666667","1046.41666667","white","no","xpyriment","Ich habe die obigen Informationen gelesen und verstanden.","legacy","legacy","0","uniform","1","0","0","undefined","undefined","1","f","2","1","NA","0","1","0","0","0","0","0","0","0","0","45","45","45","0","0","0","NA","0","0","2","0","0","0","2","45","45","45","45","45","Fri Nov  3 09:55:39 2017","Forced-choice identification task with a practice and an experimental phase","yes","NAP_GER_AA_4blocks_noglides.osexp","/Users/aviadalbert/Documents/Academisch/UoC/Dissertation/Experiment/OpenSesame/NAP-FC/NAP_GER_AA_4blocks_noglides","yes","no","sans","no","20","no","black","no","Weiter","yes","768","legacy","35","9","0","/Users/aviadalbert/Documents/Academisch/UoC/Dissertation/Experiment/OpenSesame/NAP-FC/NAP_GER_AA_4blocks_noglides/subject-36.csv","xpyriment","Jazzy James","3.1.9","yes","yes","59a800d99ad5a1025d81bb03","59a801616c613b0251691de0","no","no","0","f","f","space","NA","return","right shift","f","793","3215","41409","NA","20931","25896","793","2","legacy","1024","1","44100","-16","experiment","smal","4","2","0","0","1","english","36","","even","212240","170265","NA","NA","215456","212236","NA","1833","211731","1834","1833","89161","110097","316477","314972","317271","140316","136272","170265","NA","39844","77864","168601","136053","212240","136275","NA","316477","316477","NA","NA","314968","NAP perception","24","37671","36","yes","1024"
"67.5675675676","yes","67.5675675676","1046.40540541","1046.40540541","white","no","xpyriment","Ich habe die obigen Informationen gelesen und verstanden.","legacy","legacy","0","uniform","1","0","0","undefined","undefined","1","f","2","1","NA","0","1","0","0","0","0","0","0","0","0","46","46","46","0","0","0","NA","0","0","2","0","0","0","2","46","46","46","46","46","Fri Nov  3 09:55:39 2017","Forced-choice identification task with a practice and an experimental phase","yes","NAP_GER_AA_4blocks_noglides.osexp","/Users/aviadalbert/Documents/Academisch/UoC/Dissertation/Experiment/OpenSesame/NAP-FC/NAP_GER_AA_4blocks_noglides","yes","no","sans","no","20","no","black","no","Weiter","yes","768","legacy","36","9","0","/Users/aviadalbert/Documents/Academisch/UoC/Dissertation/Experiment/OpenSesame/NAP-FC/NAP_GER_AA_4blocks_noglides/subject-36.csv","xpyriment","Jazzy James","3.1.9","yes","yes","59a800d99ad5a1025d81bb03","59a801616c613b0251691de0","no","no","0","f","f","space","NA","return","right shift","f","1046","3215","41409","NA","20931","25896","1046","2","legacy","1024","1","44100","-16","experiment","spal","4","2","0","0","1","english","36","","even","212240","170265","NA","NA","215456","212236","NA","1833","211731","1834","1833","89161","110097","319054","317550","320102","140316","136272","170265","NA","39844","77864","168601","136053","212240","136275","NA","319053","319054","NA","NA","317547","NAP perception","25","38717","37","yes","1024"
"68.4210526316","yes","68.4210526316","1041.18421053","1041.18421053","white","no","xpyriment","Ich habe die obigen Informationen gelesen und verstanden.","legacy","legacy","0","uniform","1","0","0","undefined","undefined","1","f","2","1","NA","0","1","0","0","0","0","0","0","0","0","47","47","47","0","0","0","NA","0","0","2","0","0","0","2","47","47","47","47","47","Fri Nov  3 09:55:39 2017","Forced-choice identification task with a practice and an experimental phase","yes","NAP_GER_AA_4blocks_noglides.osexp","/Users/aviadalbert/Documents/Academisch/UoC/Dissertation/Experiment/OpenSesame/NAP-FC/NAP_GER_AA_4blocks_noglides","yes","no","sans","no","20","no","black","no","Weiter","yes","768","legacy","37","9","0","/Users/aviadalbert/Documents/Academisch/UoC/Dissertation/Experiment/OpenSesame/NAP-FC/NAP_GER_AA_4blocks_noglides/subject-36.csv","xpyriment","Jazzy James","3.1.9","yes","yes","59a800d99ad5a1025d81bb03","59a801616c613b0251691de0","no","no","0","f","f","space","NA","return","right shift","f","848","3215","41409","NA","20931","25896","848","2","legacy","1024","1","44100","-16","experiment","sfal","4","2","0","0","1","english","36","","even","212240","170265","NA","NA","215456","212236","NA","1833","211731","1834","1833","89161","110097","321885","320377","322735","140316","136272","170265","NA","39844","77864","168601","136053","212240","136275","NA","321884","321884","NA","NA","320373","NAP perception","26","39565","38","yes","1024"
"66.6666666667","yes","66.6666666667","1049.46153846","1049.46153846","white","no","xpyriment","Ich habe die obigen Informationen gelesen und verstanden.","legacy","legacy","0","uniform","0","0","0","undefined","undefined","0","j","2","1","NA","0","1","0","0","0","0","0","0","0","0","48","48","48","0","0","0","NA","0","0","2","0","0","0","2","48","48","48","48","48","Fri Nov  3 09:55:39 2017","Forced-choice identification task with a practice and an experimental phase","yes","NAP_GER_AA_4blocks_noglides.osexp","/Users/aviadalbert/Documents/Academisch/UoC/Dissertation/Experiment/OpenSesame/NAP-FC/NAP_GER_AA_4blocks_noglides","yes","no","sans","no","20","no","black","no","Weiter","yes","768","legacy","38","9","0","/Users/aviadalbert/Documents/Academisch/UoC/Dissertation/Experiment/OpenSesame/NAP-FC/NAP_GER_AA_4blocks_noglides/subject-36.csv","xpyriment","Jazzy James","3.1.9","yes","yes","59a800d99ad5a1025d81bb03","59a801616c613b0251691de0","no","no","0","f","f","space","NA","return","right shift","f","1364","3215","41409","NA","20931","25896","1364","2","legacy","1024","1","44100","-16","experiment","evzal","4","2","0","0","1","english","36","","even","212240","170265","NA","NA","215456","212236","NA","1833","211731","1834","1833","89161","110097","324505","323002","325871","140316","136272","170265","NA","39844","77864","168601","136053","212240","136275","NA","324505","324505","NA","NA","322999","NAP perception","26","40929","39","yes","1024"
"67.5","yes","67.5","1047.925","1047.925","white","no","xpyriment","Ich habe die obigen Informationen gelesen und verstanden.","legacy","legacy","0","uniform","1","0","0","undefined","undefined","1","f","2","1","NA","0","1","0","0","0","0","0","0","0","0","49","49","49","0","0","0","NA","0","0","2","0","0","0","2","49","49","49","49","49","Fri Nov  3 09:55:39 2017","Forced-choice identification task with a practice and an experimental phase","yes","NAP_GER_AA_4blocks_noglides.osexp","/Users/aviadalbert/Documents/Academisch/UoC/Dissertation/Experiment/OpenSesame/NAP-FC/NAP_GER_AA_4blocks_noglides","yes","no","sans","no","20","no","black","no","Weiter","yes","768","legacy","39","9","0","/Users/aviadalbert/Documents/Academisch/UoC/Dissertation/Experiment/OpenSesame/NAP-FC/NAP_GER_AA_4blocks_noglides/subject-36.csv","xpyriment","Jazzy James","3.1.9","yes","yes","59a800d99ad5a1025d81bb03","59a801616c613b0251691de0","no","no","0","f","f","space","NA","return","right shift","f","988","3215","41409","NA","20931","25896","988","2","legacy","1024","1","44100","-16","experiment","fsal","4","2","0","0","1","english","36","","even","212240","170265","NA","NA","215456","212236","NA","1833","211731","1834","1833","89161","110097","327632","326129","328621","140316","136272","170265","NA","39844","77864","168601","136053","212240","136275","NA","327632","327632","NA","NA","326125","NAP perception","27","41917","40","yes","1024"
"68.2926829268","yes","68.2926829268","1047.75609756","1047.75609756","white","no","xpyriment","Ich habe die obigen Informationen gelesen und verstanden.","legacy","legacy","0","uniform","1","0","0","undefined","undefined","1","j","2","1","NA","0","1","0","0","0","0","0","0","0","0","50","50","50","0","0","0","NA","0","0","2","0","0","0","2","50","50","50","50","50","Fri Nov  3 09:55:39 2017","Forced-choice identification task with a practice and an experimental phase","yes","NAP_GER_AA_4blocks_noglides.osexp","/Users/aviadalbert/Documents/Academisch/UoC/Dissertation/Experiment/OpenSesame/NAP-FC/NAP_GER_AA_4blocks_noglides","yes","no","sans","no","20","no","black","no","Weiter","yes","768","legacy","40","9","0","/Users/aviadalbert/Documents/Academisch/UoC/Dissertation/Experiment/OpenSesame/NAP-FC/NAP_GER_AA_4blocks_noglides/subject-36.csv","xpyriment","Jazzy James","3.1.9","yes","yes","59a800d99ad5a1025d81bb03","59a801616c613b0251691de0","no","no","0","j","f","space","NA","return","right shift","j","1041","3215","41409","NA","20931","25896","1041","2","legacy","1024","1","44100","-16","experiment","neval","4","2","0","0","1","english","36","","even","212240","170265","NA","NA","215456","212236","NA","1833","211731","1834","1833","89161","110097","330408","328904","331451","140316","136272","170265","NA","39844","77864","168601","136053","212240","136275","NA","330407","330408","NA","NA","328900","NAP perception","28","42958","41","yes","1024"
"69.0476190476","yes","69.0476190476","1041.66666667","1041.66666667","white","no","xpyriment","Ich habe die obigen Informationen gelesen und verstanden.","legacy","legacy","0","uniform","1","0","0","undefined","undefined","1","j","2","1","NA","0","1","0","0","0","0","0","0","0","0","51","51","51","0","0","0","NA","0","0","2","0","0","0","2","51","51","51","51","51","Fri Nov  3 09:55:39 2017","Forced-choice identification task with a practice and an experimental phase","yes","NAP_GER_AA_4blocks_noglides.osexp","/Users/aviadalbert/Documents/Academisch/UoC/Dissertation/Experiment/OpenSesame/NAP-FC/NAP_GER_AA_4blocks_noglides","yes","no","sans","no","20","no","black","no","Weiter","yes","768","legacy","41","9","0","/Users/aviadalbert/Documents/Academisch/UoC/Dissertation/Experiment/OpenSesame/NAP-FC/NAP_GER_AA_4blocks_noglides/subject-36.csv","xpyriment","Jazzy James","3.1.9","yes","yes","59a800d99ad5a1025d81bb03","59a801616c613b0251691de0","no","no","0","j","f","space","NA","return","right shift","j","792","3215","41409","NA","20931","25896","792","2","legacy","1024","1","44100","-16","experiment","emtal","4","2","0","0","1","english","36","","even","212240","170265","NA","NA","215456","212236","NA","1833","211731","1834","1833","89161","110097","333247","331744","334041","140316","136272","170265","NA","39844","77864","168601","136053","212240","136275","NA","333247","333247","NA","NA","331740","NAP perception","29","43750","42","yes","1024"
"69.7674418605","yes","69.7674418605","1037.3255814","1037.3255814","white","no","xpyriment","Ich habe die obigen Informationen gelesen und verstanden.","legacy","legacy","0","uniform","1","0","0","undefined","undefined","1","j","2","1","NA","0","1","0","0","0","0","0","0","0","0","52","52","52","0","0","0","NA","0","0","2","0","0","0","2","52","52","52","52","52","Fri Nov  3 09:55:39 2017","Forced-choice identification task with a practice and an experimental phase","yes","NAP_GER_AA_4blocks_noglides.osexp","/Users/aviadalbert/Documents/Academisch/UoC/Dissertation/Experiment/OpenSesame/NAP-FC/NAP_GER_AA_4blocks_noglides","yes","no","sans","no","20","no","black","no","Weiter","yes","768","legacy","42","9","0","/Users/aviadalbert/Documents/Academisch/UoC/Dissertation/Experiment/OpenSesame/NAP-FC/NAP_GER_AA_4blocks_noglides/subject-36.csv","xpyriment","Jazzy James","3.1.9","yes","yes","59a800d99ad5a1025d81bb03","59a801616c613b0251691de0","no","no","0","j","f","space","NA","return","right shift","j","855","3215","41409","NA","20931","25896","855","2","legacy","1024","1","44100","-16","experiment","ʃepal","4","2","0","0","1","english","36","","even","212240","170265","NA","NA","215456","212236","NA","1833","211731","1834","1833","89161","110097","335824","334317","336680","140316","136272","170265","NA","39844","77864","168601","136053","212240","136275","NA","335824","335824","NA","NA","334313","NAP perception","30","44605","43","yes","1024"
"68.1818181818","yes","68.1818181818","1038.18181818","1038.18181818","white","no","xpyriment","Ich habe die obigen Informationen gelesen und verstanden.","legacy","legacy","0","uniform","0","0","0","undefined","undefined","0","f","2","1","NA","0","1","0","0","0","0","0","0","0","0","53","53","53","0","0","0","NA","0","0","2","0","0","0","2","53","53","53","53","53","Fri Nov  3 09:55:39 2017","Forced-choice identification task with a practice and an experimental phase","yes","NAP_GER_AA_4blocks_noglides.osexp","/Users/aviadalbert/Documents/Academisch/UoC/Dissertation/Experiment/OpenSesame/NAP-FC/NAP_GER_AA_4blocks_noglides","yes","no","sans","no","20","no","black","no","Weiter","yes","768","legacy","43","9","0","/Users/aviadalbert/Documents/Academisch/UoC/Dissertation/Experiment/OpenSesame/NAP-FC/NAP_GER_AA_4blocks_noglides/subject-36.csv","xpyriment","Jazzy James","3.1.9","yes","yes","59a800d99ad5a1025d81bb03","59a801616c613b0251691de0","no","no","0","j","f","space","NA","return","right shift","j","1075","3215","41409","NA","20931","25896","1075","2","legacy","1024","1","44100","-16","experiment","lkal","4","2","0","0","1","english","36","","even","212240","170265","NA","NA","215456","212236","NA","1833","211731","1834","1833","89161","110097","338462","336959","339538","140316","136272","170265","NA","39844","77864","168601","136053","212240","136275","NA","338462","338462","NA","NA","336955","NAP perception","30","45680","44","yes","1024"
"68.8888888889","yes","68.8888888889","1031.31111111","1031.31111111","white","no","xpyriment","Ich habe die obigen Informationen gelesen und verstanden.","legacy","legacy","0","uniform","1","0","0","undefined","undefined","1","f","2","1","NA","0","1","0","0","0","0","0","0","0","0","54","54","54","0","0","0","NA","0","0","2","0","0","0","2","54","54","54","54","54","Fri Nov  3 09:55:39 2017","Forced-choice identification task with a practice and an experimental phase","yes","NAP_GER_AA_4blocks_noglides.osexp","/Users/aviadalbert/Documents/Academisch/UoC/Dissertation/Experiment/OpenSesame/NAP-FC/NAP_GER_AA_4blocks_noglides","yes","no","sans","no","20","no","black","no","Weiter","yes","768","legacy","44","9","0","/Users/aviadalbert/Documents/Academisch/UoC/Dissertation/Experiment/OpenSesame/NAP-FC/NAP_GER_AA_4blocks_noglides/subject-36.csv","xpyriment","Jazzy James","3.1.9","yes","yes","59a800d99ad5a1025d81bb03","59a801616c613b0251691de0","no","no","0","f","f","space","NA","return","right shift","f","729","3215","41409","NA","20931","25896","729","2","legacy","1024","1","44100","-16","experiment","ʃfal","4","2","0","0","1","english","36","","even","212240","170265","NA","NA","215456","212236","NA","1833","211731","1834","1833","89161","110097","341319","339815","342050","140316","136272","170265","NA","39844","77864","168601","136053","212240","136275","NA","341318","341319","NA","NA","339811","NAP perception","31","46409","45","yes","1024"
"69.5652173913","yes","69.5652173913","1030.45652174","1030.45652174","white","no","xpyriment","Ich habe die obigen Informationen gelesen und verstanden.","legacy","legacy","0","uniform","1","0","0","undefined","undefined","1","f","2","1","NA","0","1","0","0","0","0","0","0","0","0","55","55","55","0","0","0","NA","0","0","2","0","0","0","2","55","55","55","55","55","Fri Nov  3 09:55:39 2017","Forced-choice identification task with a practice and an experimental phase","yes","NAP_GER_AA_4blocks_noglides.osexp","/Users/aviadalbert/Documents/Academisch/UoC/Dissertation/Experiment/OpenSesame/NAP-FC/NAP_GER_AA_4blocks_noglides","yes","no","sans","no","20","no","black","no","Weiter","yes","768","legacy","45","9","0","/Users/aviadalbert/Documents/Academisch/UoC/Dissertation/Experiment/OpenSesame/NAP-FC/NAP_GER_AA_4blocks_noglides/subject-36.csv","xpyriment","Jazzy James","3.1.9","yes","yes","59a800d99ad5a1025d81bb03","59a801616c613b0251691de0","no","no","0","f","f","space","NA","return","right shift","f","992","3215","41409","NA","20931","25896","992","2","legacy","1024","1","44100","-16","experiment","ftal","4","2","0","0","1","english","36","","even","212240","170265","NA","NA","215456","212236","NA","1833","211731","1834","1833","89161","110097","343836","342330","344829","140316","136272","170265","NA","39844","77864","168601","136053","212240","136275","NA","343836","343836","NA","NA","342326","NAP perception","32","47401","46","yes","1024"
"70.2127659574","yes","70.2127659574","1029.06382979","1029.06382979","white","no","xpyriment","Ich habe die obigen Informationen gelesen und verstanden.","legacy","legacy","0","uniform","1","0","0","undefined","undefined","1","f","2","1","NA","0","1","0","0","0","0","0","0","0","0","56","56","56","0","0","0","NA","0","0","2","0","0","0","2","56","56","56","56","56","Fri Nov  3 09:55:39 2017","Forced-choice identification task with a practice and an experimental phase","yes","NAP_GER_AA_4blocks_noglides.osexp","/Users/aviadalbert/Documents/Academisch/UoC/Dissertation/Experiment/OpenSesame/NAP-FC/NAP_GER_AA_4blocks_noglides","yes","no","sans","no","20","no","black","no","Weiter","yes","768","legacy","46","9","0","/Users/aviadalbert/Documents/Academisch/UoC/Dissertation/Experiment/OpenSesame/NAP-FC/NAP_GER_AA_4blocks_noglides/subject-36.csv","xpyriment","Jazzy James","3.1.9","yes","yes","59a800d99ad5a1025d81bb03","59a801616c613b0251691de0","no","no","0","f","f","space","NA","return","right shift","f","965","3215","41409","NA","20931","25896","965","2","legacy","1024","1","44100","-16","experiment","mzal","4","2","0","0","1","english","36","","even","212240","170265","NA","NA","215456","212236","NA","1833","211731","1834","1833","89161","110097","346627","345123","347593","140316","136272","170265","NA","39844","77864","168601","136053","212240","136275","NA","346627","346627","NA","NA","345119","NAP perception","33","48366","47","yes","1024"
"70.8333333333","yes","70.8333333333","1029.77083333","1029.77083333","white","no","xpyriment","Ich habe die obigen Informationen gelesen und verstanden.","legacy","legacy","0","uniform","1","0","0","undefined","undefined","1","j","2","1","NA","0","1","0","0","0","0","0","0","0","0","57","57","57","0","0","0","NA","0","0","2","0","0","0","2","57","57","57","57","57","Fri Nov  3 09:55:39 2017","Forced-choice identification task with a practice and an experimental phase","yes","NAP_GER_AA_4blocks_noglides.osexp","/Users/aviadalbert/Documents/Academisch/UoC/Dissertation/Experiment/OpenSesame/NAP-FC/NAP_GER_AA_4blocks_noglides","yes","no","sans","no","20","no","black","no","Weiter","yes","768","legacy","47","9","0","/Users/aviadalbert/Documents/Academisch/UoC/Dissertation/Experiment/OpenSesame/NAP-FC/NAP_GER_AA_4blocks_noglides/subject-36.csv","xpyriment","Jazzy James","3.1.9","yes","yes","59a800d99ad5a1025d81bb03","59a801616c613b0251691de0","no","no","0","j","f","space","NA","return","right shift","j","1063","3215","41409","NA","20931","25896","1063","2","legacy","1024","1","44100","-16","experiment","lemal","4","2","0","0","1","english","36","","even","212240","170265","NA","NA","215456","212236","NA","1833","211731","1834","1833","89161","110097","349384","347879","350449","140316","136272","170265","NA","39844","77864","168601","136053","212240","136275","NA","349384","349384","NA","NA","347875","NAP perception","34","49429","48","yes","1024"
"71.4285714286","yes","71.4285714286","1033.3877551","1033.3877551","white","no","xpyriment","Ich habe die obigen Informationen gelesen und verstanden.","legacy","legacy","0","uniform","1","0","0","undefined","undefined","1","f","2","1","NA","0","1","0","0","0","0","0","0","0","0","58","58","58","0","0","0","NA","0","0","2","0","0","0","2","58","58","58","58","58","Fri Nov  3 09:55:39 2017","Forced-choice identification task with a practice and an experimental phase","yes","NAP_GER_AA_4blocks_noglides.osexp","/Users/aviadalbert/Documents/Academisch/UoC/Dissertation/Experiment/OpenSesame/NAP-FC/NAP_GER_AA_4blocks_noglides","yes","no","sans","no","20","no","black","no","Weiter","yes","768","legacy","48","9","0","/Users/aviadalbert/Documents/Academisch/UoC/Dissertation/Experiment/OpenSesame/NAP-FC/NAP_GER_AA_4blocks_noglides/subject-36.csv","xpyriment","Jazzy James","3.1.9","yes","yes","59a800d99ad5a1025d81bb03","59a801616c613b0251691de0","no","no","0","f","f","space","NA","return","right shift","f","1207","3215","41409","NA","20931","25896","1207","2","legacy","1024","1","44100","-16","experiment","mnal","4","2","0","0","1","english","36","","even","212240","170265","NA","NA","215456","212236","NA","1833","211731","1834","1833","89161","110097","352222","350718","353431","140316","136272","170265","NA","39844","77864","168601","136053","212240","136275","NA","352221","352222","NA","NA","350714","NAP perception","35","50636","49","yes","1024"
"72","yes","72","1029.76","1029.76","white","no","xpyriment","Ich habe die obigen Informationen gelesen und verstanden.","legacy","legacy","0","uniform","1","0","0","undefined","undefined","1","j","2","1","NA","0","1","0","0","0","0","0","0","0","0","59","59","59","0","0","0","NA","0","0","2","0","0","0","2","59","59","59","59","59","Fri Nov  3 09:55:39 2017","Forced-choice identification task with a practice and an experimental phase","yes","NAP_GER_AA_4blocks_noglides.osexp","/Users/aviadalbert/Documents/Academisch/UoC/Dissertation/Experiment/OpenSesame/NAP-FC/NAP_GER_AA_4blocks_noglides","yes","no","sans","no","20","no","black","no","Weiter","yes","768","legacy","49","9","0","/Users/aviadalbert/Documents/Academisch/UoC/Dissertation/Experiment/OpenSesame/NAP-FC/NAP_GER_AA_4blocks_noglides/subject-36.csv","xpyriment","Jazzy James","3.1.9","yes","yes","59a800d99ad5a1025d81bb03","59a801616c613b0251691de0","no","no","0","j","f","space","NA","return","right shift","j","852","3215","41409","NA","20931","25896","852","2","legacy","1024","1","44100","-16","experiment","fetal","4","2","0","0","1","english","36","","even","212240","170265","NA","NA","215456","212236","NA","1833","211731","1834","1833","89161","110097","355213","353706","356067","140316","136272","170265","NA","39844","77864","168601","136053","212240","136275","NA","355213","355213","NA","NA","353702","NAP perception","36","51488","50","yes","1024"
"72.5490196078","yes","72.5490196078","1030.05882353","1030.05882353","white","no","xpyriment","Ich habe die obigen Informationen gelesen und verstanden.","legacy","legacy","0","uniform","1","0","0","undefined","undefined","1","f","2","1","NA","0","1","0","0","0","0","0","0","0","0","60","60","60","0","0","0","NA","0","0","2","0","0","0","2","60","60","60","60","60","Fri Nov  3 09:55:39 2017","Forced-choice identification task with a practice and an experimental phase","yes","NAP_GER_AA_4blocks_noglides.osexp","/Users/aviadalbert/Documents/Academisch/UoC/Dissertation/Experiment/OpenSesame/NAP-FC/NAP_GER_AA_4blocks_noglides","yes","no","sans","no","20","no","black","no","Weiter","yes","768","legacy","50","9","0","/Users/aviadalbert/Documents/Academisch/UoC/Dissertation/Experiment/OpenSesame/NAP-FC/NAP_GER_AA_4blocks_noglides/subject-36.csv","xpyriment","Jazzy James","3.1.9","yes","yes","59a800d99ad5a1025d81bb03","59a801616c613b0251691de0","no","no","0","f","f","space","NA","return","right shift","f","1045","3215","41409","NA","20931","25896","1045","2","legacy","1024","1","44100","-16","experiment","vlal","4","2","0","0","1","english","36","","even","212240","170265","NA","NA","215456","212236","NA","1833","211731","1834","1833","89161","110097","357873","356365","358920","140316","136272","170265","NA","39844","77864","168601","136053","212240","136275","NA","357872","357873","NA","NA","356361","NAP perception","37","52533","51","yes","1024"
"73.0769230769","yes","73.0769230769","1031.80769231","1031.80769231","white","no","xpyriment","Ich habe die obigen Informationen gelesen und verstanden.","legacy","legacy","0","uniform","1","0","0","undefined","undefined","1","j","2","1","NA","0","1","0","0","0","0","0","0","0","0","61","61","61","0","0","0","NA","0","0","2","0","0","0","2","61","61","61","61","61","Fri Nov  3 09:55:39 2017","Forced-choice identification task with a practice and an experimental phase","yes","NAP_GER_AA_4blocks_noglides.osexp","/Users/aviadalbert/Documents/Academisch/UoC/Dissertation/Experiment/OpenSesame/NAP-FC/NAP_GER_AA_4blocks_noglides","yes","no","sans","no","20","no","black","no","Weiter","yes","768","legacy","51","9","0","/Users/aviadalbert/Documents/Academisch/UoC/Dissertation/Experiment/OpenSesame/NAP-FC/NAP_GER_AA_4blocks_noglides/subject-36.csv","xpyriment","Jazzy James","3.1.9","yes","yes","59a800d99ad5a1025d81bb03","59a801616c613b0251691de0","no","no","0","j","f","space","NA","return","right shift","j","1121","3215","41409","NA","20931","25896","1121","2","legacy","1024","1","44100","-16","experiment","leval","4","2","0","0","1","english","36","","even","212240","170265","NA","NA","215456","212236","NA","1833","211731","1834","1833","89161","110097","360716","359213","361839","140316","136272","170265","NA","39844","77864","168601","136053","212240","136275","NA","360716","360716","NA","NA","359209","NAP perception","38","53654","52","yes","1024"
"73.5849056604","yes","73.5849056604","1044.16981132","1044.16981132","white","no","xpyriment","Ich habe die obigen Informationen gelesen und verstanden.","legacy","legacy","0","uniform","1","0","0","undefined","undefined","1","j","2","1","NA","0","1","0","0","0","0","0","0","0","0","62","62","62","0","0","0","NA","0","0","2","0","0","0","2","62","62","62","62","62","Fri Nov  3 09:55:39 2017","Forced-choice identification task with a practice and an experimental phase","yes","NAP_GER_AA_4blocks_noglides.osexp","/Users/aviadalbert/Documents/Academisch/UoC/Dissertation/Experiment/OpenSesame/NAP-FC/NAP_GER_AA_4blocks_noglides","yes","no","sans","no","20","no","black","no","Weiter","yes","768","legacy","52","9","0","/Users/aviadalbert/Documents/Academisch/UoC/Dissertation/Experiment/OpenSesame/NAP-FC/NAP_GER_AA_4blocks_noglides/subject-36.csv","xpyriment","Jazzy James","3.1.9","yes","yes","59a800d99ad5a1025d81bb03","59a801616c613b0251691de0","no","no","0","j","f","space","NA","return","right shift","j","1687","3215","41409","NA","20931","25896","1687","2","legacy","1024","1","44100","-16","experiment","ezval","4","2","0","0","1","english","36","","even","212240","170265","NA","NA","215456","212236","NA","1833","211731","1834","1833","89161","110097","363609","362104","365297","140316","136272","170265","NA","39844","77864","168601","136053","212240","136275","NA","363609","363609","NA","NA","362100","NAP perception","39","55341","53","yes","1024"
"74.0740740741","yes","74.0740740741","1049.33333333","1049.33333333","white","no","xpyriment","Ich habe die obigen Informationen gelesen und verstanden.","legacy","legacy","0","uniform","1","0","0","undefined","undefined","1","j","2","1","NA","0","1","0","0","0","0","0","0","0","0","63","63","63","0","0","0","NA","0","0","2","0","0","0","2","63","63","63","63","63","Fri Nov  3 09:55:39 2017","Forced-choice identification task with a practice and an experimental phase","yes","NAP_GER_AA_4blocks_noglides.osexp","/Users/aviadalbert/Documents/Academisch/UoC/Dissertation/Experiment/OpenSesame/NAP-FC/NAP_GER_AA_4blocks_noglides","yes","no","sans","no","20","no","black","no","Weiter","yes","768","legacy","53","9","0","/Users/aviadalbert/Documents/Academisch/UoC/Dissertation/Experiment/OpenSesame/NAP-FC/NAP_GER_AA_4blocks_noglides/subject-36.csv","xpyriment","Jazzy James","3.1.9","yes","yes","59a800d99ad5a1025d81bb03","59a801616c613b0251691de0","no","no","0","j","f","space","NA","return","right shift","j","1323","3215","41409","NA","20931","25896","1323","2","legacy","1024","1","44100","-16","experiment","enval","4","2","0","0","1","english","36","","even","212240","170265","NA","NA","215456","212236","NA","1833","211731","1834","1833","89161","110097","367093","365590","368418","140316","136272","170265","NA","39844","77864","168601","136053","212240","136275","NA","367093","367093","NA","NA","365586","NAP perception","40","56664","54","yes","1024"
"74.5454545455","yes","74.5454545455","1051.52727273","1051.52727273","white","no","xpyriment","Ich habe die obigen Informationen gelesen und verstanden.","legacy","legacy","0","uniform","1","0","0","undefined","undefined","1","j","2","1","NA","0","1","0","0","0","0","0","0","0","0","64","64","64","0","0","0","NA","0","0","2","0","0","0","2","64","64","64","64","64","Fri Nov  3 09:55:39 2017","Forced-choice identification task with a practice and an experimental phase","yes","NAP_GER_AA_4blocks_noglides.osexp","/Users/aviadalbert/Documents/Academisch/UoC/Dissertation/Experiment/OpenSesame/NAP-FC/NAP_GER_AA_4blocks_noglides","yes","no","sans","no","20","no","black","no","Weiter","yes","768","legacy","54","9","0","/Users/aviadalbert/Documents/Academisch/UoC/Dissertation/Experiment/OpenSesame/NAP-FC/NAP_GER_AA_4blocks_noglides/subject-36.csv","xpyriment","Jazzy James","3.1.9","yes","yes","59a800d99ad5a1025d81bb03","59a801616c613b0251691de0","no","no","0","j","f","space","NA","return","right shift","j","1170","3215","41409","NA","20931","25896","1170","2","legacy","1024","1","44100","-16","experiment","venal","4","2","0","0","1","english","36","","even","212240","170265","NA","NA","215456","212236","NA","1833","211731","1834","1833","89161","110097","370202","368698","371373","140316","136272","170265","NA","39844","77864","168601","136053","212240","136275","NA","370202","370202","NA","NA","368694","NAP perception","41","57834","55","yes","1024"
"75","yes","75","1058.48214286","1058.48214286","white","no","xpyriment","Ich habe die obigen Informationen gelesen und verstanden.","legacy","legacy","0","uniform","1","0","0","undefined","undefined","1","f","2","1","NA","0","1","0","0","0","0","0","0","0","0","65","65","65","0","0","0","NA","0","0","2","0","0","0","2","65","65","65","65","65","Fri Nov  3 09:55:39 2017","Forced-choice identification task with a practice and an experimental phase","yes","NAP_GER_AA_4blocks_noglides.osexp","/Users/aviadalbert/Documents/Academisch/UoC/Dissertation/Experiment/OpenSesame/NAP-FC/NAP_GER_AA_4blocks_noglides","yes","no","sans","no","20","no","black","no","Weiter","yes","768","legacy","55","9","0","/Users/aviadalbert/Documents/Academisch/UoC/Dissertation/Experiment/OpenSesame/NAP-FC/NAP_GER_AA_4blocks_noglides/subject-36.csv","xpyriment","Jazzy James","3.1.9","yes","yes","59a800d99ad5a1025d81bb03","59a801616c613b0251691de0","no","no","0","f","f","space","NA","return","right shift","f","1441","3215","41409","NA","20931","25896","1441","2","legacy","1024","1","44100","-16","experiment","lmal","4","2","0","0","1","english","36","","even","212240","170265","NA","NA","215456","212236","NA","1833","211731","1834","1833","89161","110097","373150","371644","374592","140316","136272","170265","NA","39844","77864","168601","136053","212240","136275","NA","373150","373150","NA","NA","371640","NAP perception","42","59275","56","yes","1024"
