"acc","accept_status","accuracy","average_response_time","avg_rt","background","bidi","canvas_backend","checkbox_status","clock_backend","color_backend","compensation","coordinates","correct","correct_block_activation","correct_block_exit","correct_instructions_1","correct_instructions_2","correct_keyboard_response","correct_response","count_block_activation","count_block_exit","count_block_info_QA","count_cont_e_block_message","count_e_block_loop","count_e_block_sequence","count_end_of_experiment","count_experiment","count_experimental_loop","count_form_consent","count_info_forms","count_instructions_1","count_instructions_2","count_keyboard_response","count_listen_message","count_logger","count_p_block_loop","count_p_block_sequence","count_p_feedback","count_pause_feedback","count_personal_details_form_1","count_personal_details_form_2","count_post_loop_blank","count_practice_loop","count_pre_e_block_message","count_pre_p_block_message","count_reset_feedback","count_stimulus_image","count_stimulus_sound","count_timeout_message","count_timeout_sound","count_trial_sequence","datetime","description","disable_garbage_collection","experiment_file","experiment_path","expyriment_opengl","font_bold","font_family","font_italic","font_size","font_underline","foreground","form_clicks","form_response","fullscreen","height","keyboard_backend","live_row","live_row_p_block_loop","live_row_practice_loop","logfile","mouse_backend","opensesame_codename","opensesame_version","osf_always_upload_data","osf_always_upload_experiment","osf_datanode_id","osf_id","practice","pygame_doublebuf","repeat_cycle","response","response_block_activation","response_block_exit","response_block_info_QA","response_instructions_1","response_instructions_2","response_keyboard_response","response_time","response_time_block_activation","response_time_block_exit","response_time_block_info_QA","response_time_instructions_1","response_time_instructions_2","response_time_keyboard_response","round_decimals","sampler_backend","sound_buf_size","sound_channels","sound_freq","sound_sample_size","start","stimulus","subject_age","subject_education","subject_gender","subject_german_native","subject_handedness","subject_language_other","subject_nr","subject_other_native_lang","subject_parity","time_block_activation","time_block_exit","time_block_info_QA","time_cont_e_block_message","time_e_block_loop","time_e_block_sequence","time_end_of_experiment","time_experiment","time_experimental_loop","time_form_consent","time_info_forms","time_instructions_1","time_instructions_2","time_keyboard_response","time_listen_message","time_logger","time_p_block_loop","time_p_block_sequence","time_p_feedback","time_pause_feedback","time_personal_details_form_1","time_personal_details_form_2","time_post_loop_blank","time_practice_loop","time_pre_e_block_message","time_pre_p_block_message","time_reset_feedback","time_stimulus_image","time_stimulus_sound","time_timeout_message","time_timeout_sound","time_trial_sequence","title","total_correct","total_response_time","total_responses","uniform_coordinates","width"
"100","yes","100","2554","2554","white","no","xpyriment","Ich habe die obigen Informationen gelesen und verstanden.","legacy","legacy","0","uniform","1","0","NA","undefined","undefined","1","f","0","0","NA","NA","NA","NA","NA","0","0","0","0","0","0","0","0","0","0","0","NA","NA","0","0","0","0","NA","0","0","0","0","0","0","0","Wed Oct  4 15:44:13 2017","Forced-choice identification task with a practice and an experimental phase","yes","NAP_GER_AA_4blocks_noglides.osexp","/Users/aviadalbert/Documents/Academisch/UoC/Dissertation/Experiment/OpenSesame/NAP-FC/NAP_GER_AA_4blocks_noglides","yes","no","sans","no","20","no","black","no","Weiter","yes","768","legacy","0","0","0","/Users/aviadalbert/Documents/Academisch/UoC/Dissertation/Experiment/OpenSesame/NAP-FC/NAP_GER_AA_4blocks_noglides/subject-3.csv","xpyriment","Jazzy James","3.1.9","yes","yes","59a800d99ad5a1025d81bb03","59a801616c613b0251691de0","yes","no","0","f","f","NA","NA","space","space","f","2554","4268","NA","NA","36976","5598","2554","2","legacy","1024","1","44100","-16","experiment","flal","1","0","0","0","1","english","3","","odd","7635621","NA","NA","NA","NA","NA","NA","7521899","NA","7544470","7521900","7592767","7629748","7641596","7640087","7644151","7639890","7635617","NA","NA","7548246","7581237","NA","7635408","NA","7635621","NA","7641595","7641595","NA","NA","7640083","NAP perception","1","2554","1","yes","1024"
"100","yes","100","1904.5","1904.5","white","no","xpyriment","Ich habe die obigen Informationen gelesen und verstanden.","legacy","legacy","0","uniform","1","0","NA","undefined","undefined","1","j","0","0","NA","NA","NA","NA","NA","0","0","0","0","0","0","1","1","1","0","0","NA","NA","0","0","0","0","NA","0","0","1","1","1","1","1","Wed Oct  4 15:44:13 2017","Forced-choice identification task with a practice and an experimental phase","yes","NAP_GER_AA_4blocks_noglides.osexp","/Users/aviadalbert/Documents/Academisch/UoC/Dissertation/Experiment/OpenSesame/NAP-FC/NAP_GER_AA_4blocks_noglides","yes","no","sans","no","20","no","black","no","Weiter","yes","768","legacy","1","1","0","/Users/aviadalbert/Documents/Academisch/UoC/Dissertation/Experiment/OpenSesame/NAP-FC/NAP_GER_AA_4blocks_noglides/subject-3.csv","xpyriment","Jazzy James","3.1.9","yes","yes","59a800d99ad5a1025d81bb03","59a801616c613b0251691de0","yes","no","0","j","f","NA","NA","space","space","j","1255","4268","NA","NA","36976","5598","1255","2","legacy","1024","1","44100","-16","experiment","lepal","1","0","0","0","1","english","3","","odd","7635621","NA","NA","NA","NA","NA","NA","7521899","NA","7544470","7521900","7592767","7629748","7645951","7644447","7647207","7639890","7635617","NA","NA","7548246","7581237","NA","7635408","NA","7635621","NA","7645950","7645951","NA","NA","7644443","NAP perception","2","3809","2","yes","1024"
"100","yes","100","1819.33333333","1819.33333333","white","no","xpyriment","Ich habe die obigen Informationen gelesen und verstanden.","legacy","legacy","0","uniform","1","0","NA","undefined","undefined","1","j","0","0","NA","NA","NA","NA","NA","0","0","0","0","0","0","2","2","2","0","0","NA","NA","0","0","0","0","NA","0","0","2","2","2","2","2","Wed Oct  4 15:44:13 2017","Forced-choice identification task with a practice and an experimental phase","yes","NAP_GER_AA_4blocks_noglides.osexp","/Users/aviadalbert/Documents/Academisch/UoC/Dissertation/Experiment/OpenSesame/NAP-FC/NAP_GER_AA_4blocks_noglides","yes","no","sans","no","20","no","black","no","Weiter","yes","768","legacy","2","2","0","/Users/aviadalbert/Documents/Academisch/UoC/Dissertation/Experiment/OpenSesame/NAP-FC/NAP_GER_AA_4blocks_noglides/subject-3.csv","xpyriment","Jazzy James","3.1.9","yes","yes","59a800d99ad5a1025d81bb03","59a801616c613b0251691de0","yes","no","0","j","f","NA","NA","space","space","j","1649","4268","NA","NA","36976","5598","1649","2","legacy","1024","1","44100","-16","experiment","emtal","1","0","0","0","1","english","3","","odd","7635621","NA","NA","NA","NA","NA","NA","7521899","NA","7544470","7521900","7592767","7629748","7648991","7647487","7650641","7639890","7635617","NA","NA","7548246","7581237","NA","7635408","NA","7635621","NA","7648990","7648990","NA","NA","7647482","NAP perception","3","5458","3","yes","1024"
"75","yes","75","2083.25","2083.25","white","no","xpyriment","Ich habe die obigen Informationen gelesen und verstanden.","legacy","legacy","0","uniform","0","0","NA","undefined","undefined","0","f","0","0","NA","NA","NA","NA","NA","0","0","0","0","0","0","3","3","3","0","0","NA","NA","0","0","0","0","NA","0","0","3","3","3","3","3","Wed Oct  4 15:44:13 2017","Forced-choice identification task with a practice and an experimental phase","yes","NAP_GER_AA_4blocks_noglides.osexp","/Users/aviadalbert/Documents/Academisch/UoC/Dissertation/Experiment/OpenSesame/NAP-FC/NAP_GER_AA_4blocks_noglides","yes","no","sans","no","20","no","black","no","Weiter","yes","768","legacy","3","3","0","/Users/aviadalbert/Documents/Academisch/UoC/Dissertation/Experiment/OpenSesame/NAP-FC/NAP_GER_AA_4blocks_noglides/subject-3.csv","xpyriment","Jazzy James","3.1.9","yes","yes","59a800d99ad5a1025d81bb03","59a801616c613b0251691de0","yes","no","0","j","f","NA","NA","space","space","j","2875","4268","NA","NA","36976","5598","2875","2","legacy","1024","1","44100","-16","experiment","ʃpal","1","0","0","0","1","english","3","","odd","7635621","NA","NA","NA","NA","NA","NA","7521899","NA","7544470","7521900","7592767","7629748","7652428","7650922","7655304","7639890","7635617","NA","NA","7548246","7581237","NA","7635408","NA","7635621","NA","7652428","7652428","NA","NA","7650918","NAP perception","3","8333","4","yes","1024"
"80","yes","80","2063","2063","white","no","xpyriment","Ich habe die obigen Informationen gelesen und verstanden.","legacy","legacy","0","uniform","1","0","NA","undefined","undefined","1","j","0","0","NA","NA","NA","NA","NA","0","0","0","0","0","0","4","4","4","0","0","NA","NA","0","0","0","0","NA","0","0","4","4","4","4","4","Wed Oct  4 15:44:13 2017","Forced-choice identification task with a practice and an experimental phase","yes","NAP_GER_AA_4blocks_noglides.osexp","/Users/aviadalbert/Documents/Academisch/UoC/Dissertation/Experiment/OpenSesame/NAP-FC/NAP_GER_AA_4blocks_noglides","yes","no","sans","no","20","no","black","no","Weiter","yes","768","legacy","4","4","0","/Users/aviadalbert/Documents/Academisch/UoC/Dissertation/Experiment/OpenSesame/NAP-FC/NAP_GER_AA_4blocks_noglides/subject-3.csv","xpyriment","Jazzy James","3.1.9","yes","yes","59a800d99ad5a1025d81bb03","59a801616c613b0251691de0","yes","no","0","j","f","NA","NA","space","space","j","1982","4268","NA","NA","36976","5598","1982","2","legacy","1024","1","44100","-16","experiment","nefal","1","0","0","0","1","english","3","","odd","7635621","NA","NA","NA","NA","NA","NA","7521899","NA","7544470","7521900","7592767","7629748","7657085","7655581","7659068","7639890","7635617","NA","NA","7548246","7581237","NA","7635408","NA","7635621","NA","7657084","7657084","NA","NA","7655577","NAP perception","4","10315","5","yes","1024"
"83.3333333333","yes","83.3333333333","1939.83333333","1939.83333333","white","no","xpyriment","Ich habe die obigen Informationen gelesen und verstanden.","legacy","legacy","0","uniform","1","0","NA","undefined","undefined","1","f","0","0","NA","NA","NA","NA","NA","0","0","0","0","0","0","5","5","5","0","0","NA","NA","0","0","0","0","NA","0","0","5","5","5","5","5","Wed Oct  4 15:44:13 2017","Forced-choice identification task with a practice and an experimental phase","yes","NAP_GER_AA_4blocks_noglides.osexp","/Users/aviadalbert/Documents/Academisch/UoC/Dissertation/Experiment/OpenSesame/NAP-FC/NAP_GER_AA_4blocks_noglides","yes","no","sans","no","20","no","black","no","Weiter","yes","768","legacy","5","5","0","/Users/aviadalbert/Documents/Academisch/UoC/Dissertation/Experiment/OpenSesame/NAP-FC/NAP_GER_AA_4blocks_noglides/subject-3.csv","xpyriment","Jazzy James","3.1.9","yes","yes","59a800d99ad5a1025d81bb03","59a801616c613b0251691de0","yes","no","0","f","f","NA","NA","space","space","f","1324","4268","NA","NA","36976","5598","1324","2","legacy","1024","1","44100","-16","experiment","sfal","1","0","0","0","1","english","3","","odd","7635621","NA","NA","NA","NA","NA","NA","7521899","NA","7544470","7521900","7592767","7629748","7660856","7659350","7662181","7639890","7635617","NA","NA","7548246","7581237","NA","7635408","NA","7635621","NA","7660855","7660855","NA","NA","7659346","NAP perception","5","11639","6","yes","1024"
"85.7142857143","yes","85.7142857143","1930.57142857","1930.57142857","white","no","xpyriment","Ich habe die obigen Informationen gelesen und verstanden.","legacy","legacy","0","uniform","1","0","NA","undefined","undefined","1","f","0","0","NA","NA","NA","NA","NA","0","0","0","0","0","0","6","6","6","0","0","NA","NA","0","0","0","0","NA","0","0","6","6","6","6","6","Wed Oct  4 15:44:13 2017","Forced-choice identification task with a practice and an experimental phase","yes","NAP_GER_AA_4blocks_noglides.osexp","/Users/aviadalbert/Documents/Academisch/UoC/Dissertation/Experiment/OpenSesame/NAP-FC/NAP_GER_AA_4blocks_noglides","yes","no","sans","no","20","no","black","no","Weiter","yes","768","legacy","6","6","0","/Users/aviadalbert/Documents/Academisch/UoC/Dissertation/Experiment/OpenSesame/NAP-FC/NAP_GER_AA_4blocks_noglides/subject-3.csv","xpyriment","Jazzy James","3.1.9","yes","yes","59a800d99ad5a1025d81bb03","59a801616c613b0251691de0","yes","no","0","f","f","NA","NA","space","space","f","1875","4268","NA","NA","36976","5598","1875","2","legacy","1024","1","44100","-16","experiment","zmal","1","0","0","0","1","english","3","","odd","7635621","NA","NA","NA","NA","NA","NA","7521899","NA","7544470","7521900","7592767","7629748","7663968","7662464","7665844","7639890","7635617","NA","NA","7548246","7581237","NA","7635408","NA","7635621","NA","7663967","7663967","NA","NA","7662460","NAP perception","6","13514","7","yes","1024"
"75","yes","75","2064.25","2064.25","white","no","xpyriment","Ich habe die obigen Informationen gelesen und verstanden.","legacy","legacy","0","uniform","0","0","NA","undefined","undefined","0","j","0","0","NA","NA","NA","NA","NA","0","0","0","0","0","0","7","7","7","0","0","NA","NA","0","0","0","0","NA","0","0","7","7","7","7","7","Wed Oct  4 15:44:13 2017","Forced-choice identification task with a practice and an experimental phase","yes","NAP_GER_AA_4blocks_noglides.osexp","/Users/aviadalbert/Documents/Academisch/UoC/Dissertation/Experiment/OpenSesame/NAP-FC/NAP_GER_AA_4blocks_noglides","yes","no","sans","no","20","no","black","no","Weiter","yes","768","legacy","7","7","0","/Users/aviadalbert/Documents/Academisch/UoC/Dissertation/Experiment/OpenSesame/NAP-FC/NAP_GER_AA_4blocks_noglides/subject-3.csv","xpyriment","Jazzy James","3.1.9","yes","yes","59a800d99ad5a1025d81bb03","59a801616c613b0251691de0","yes","no","0","None","f","NA","NA","space","space","None","3000","4268","NA","NA","36976","5598","3000","2","legacy","1024","1","44100","-16","experiment","mesal","1","0","0","0","1","english","3","","odd","7635621","NA","NA","NA","NA","NA","NA","7521899","NA","7544470","7521900","7592767","7629748","7667616","7666112","7671620","7639890","7635617","NA","NA","7548246","7581237","NA","7635408","NA","7635621","NA","7667616","7667616","7670620","7670616","7666108","NAP perception","6","16514","8","yes","1024"
"77.7777777778","yes","77.7777777778","1974.66666667","1974.66666667","white","no","xpyriment","Ich habe die obigen Informationen gelesen und verstanden.","legacy","legacy","0","uniform","1","0","NA","undefined","undefined","1","j","0","0","NA","NA","NA","NA","NA","0","0","0","0","0","0","8","8","8","0","0","NA","NA","0","0","0","0","NA","0","0","8","8","8","8","8","Wed Oct  4 15:44:13 2017","Forced-choice identification task with a practice and an experimental phase","yes","NAP_GER_AA_4blocks_noglides.osexp","/Users/aviadalbert/Documents/Academisch/UoC/Dissertation/Experiment/OpenSesame/NAP-FC/NAP_GER_AA_4blocks_noglides","yes","no","sans","no","20","no","black","no","Weiter","yes","768","legacy","8","8","0","/Users/aviadalbert/Documents/Academisch/UoC/Dissertation/Experiment/OpenSesame/NAP-FC/NAP_GER_AA_4blocks_noglides/subject-3.csv","xpyriment","Jazzy James","3.1.9","yes","yes","59a800d99ad5a1025d81bb03","59a801616c613b0251691de0","yes","no","0","j","f","NA","NA","space","space","j","1258","4268","NA","NA","36976","5598","1258","2","legacy","1024","1","44100","-16","experiment","enval","1","0","0","0","1","english","3","","odd","7635621","NA","NA","NA","NA","NA","NA","7521899","NA","7544470","7521900","7592767","7629748","7673406","7671899","7674665","7639890","7635617","NA","NA","7548246","7581237","NA","7635408","NA","7635621","NA","7673406","7673406","7670620","7670616","7671894","NAP perception","7","17772","9","yes","1024"
"70","yes","70","1884.8","1884.8","white","no","xpyriment","Ich habe die obigen Informationen gelesen und verstanden.","legacy","legacy","0","uniform","0","0","NA","undefined","undefined","0","f","0","0","NA","NA","NA","NA","NA","0","0","0","0","0","0","9","9","9","0","0","NA","NA","0","0","0","0","NA","0","0","9","9","9","9","9","Wed Oct  4 15:44:13 2017","Forced-choice identification task with a practice and an experimental phase","yes","NAP_GER_AA_4blocks_noglides.osexp","/Users/aviadalbert/Documents/Academisch/UoC/Dissertation/Experiment/OpenSesame/NAP-FC/NAP_GER_AA_4blocks_noglides","yes","no","sans","no","20","no","black","no","Weiter","yes","768","legacy","9","9","0","/Users/aviadalbert/Documents/Academisch/UoC/Dissertation/Experiment/OpenSesame/NAP-FC/NAP_GER_AA_4blocks_noglides/subject-3.csv","xpyriment","Jazzy James","3.1.9","yes","yes","59a800d99ad5a1025d81bb03","59a801616c613b0251691de0","yes","no","0","j","f","NA","NA","space","space","j","1076","4268","NA","NA","36976","5598","1076","2","legacy","1024","1","44100","-16","experiment","vlal","1","0","0","0","1","english","3","","odd","7635621","NA","NA","NA","NA","NA","NA","7521899","NA","7544470","7521900","7592767","7629748","7676454","7674950","7677531","7639890","7635617","NA","NA","7548246","7581237","NA","7635408","NA","7635621","NA","7676453","7676453","7670620","7670616","7674946","NAP perception","7","18848","10","yes","1024"
"0","yes","0","1880","1880","white","no","xpyriment","Ich habe die obigen Informationen gelesen und verstanden.","legacy","legacy","0","uniform","0","0","0","undefined","undefined","0","j","2","1","NA","0","1","0","0","0","0","0","0","0","0","10","10","10","0","0","0","NA","0","0","2","0","0","0","2","10","10","10","10","10","Wed Oct  4 15:44:13 2017","Forced-choice identification task with a practice and an experimental phase","yes","NAP_GER_AA_4blocks_noglides.osexp","/Users/aviadalbert/Documents/Academisch/UoC/Dissertation/Experiment/OpenSesame/NAP-FC/NAP_GER_AA_4blocks_noglides","yes","no","sans","no","20","no","black","no","Weiter","yes","768","legacy","0","9","0","/Users/aviadalbert/Documents/Academisch/UoC/Dissertation/Experiment/OpenSesame/NAP-FC/NAP_GER_AA_4blocks_noglides/subject-3.csv","xpyriment","Jazzy James","3.1.9","yes","yes","59a800d99ad5a1025d81bb03","59a801616c613b0251691de0","no","no","0","f","f","space","NA","space","space","f","1880","1618","20230","NA","36976","5598","1880","2","legacy","1024","1","44100","-16","experiment","elmal","1","0","0","0","1","english","3","","odd","7700002","7679251","NA","NA","7701621","7699999","NA","7521899","7699540","7544470","7521900","7592767","7629748","7703342","7701838","7705223","7639890","7635617","7679251","NA","7548246","7581237","7677594","7635408","7700001","7635621","NA","7703341","7703342","7670620","7670616","7701834","NAP perception","0","1880","1","yes","1024"
"0","yes","0","1955","1955","white","no","xpyriment","Ich habe die obigen Informationen gelesen und verstanden.","legacy","legacy","0","uniform","0","0","0","undefined","undefined","0","f","2","1","NA","0","1","0","0","0","0","0","0","0","0","11","11","11","0","0","0","NA","0","0","2","0","0","0","2","11","11","11","11","11","Wed Oct  4 15:44:13 2017","Forced-choice identification task with a practice and an experimental phase","yes","NAP_GER_AA_4blocks_noglides.osexp","/Users/aviadalbert/Documents/Academisch/UoC/Dissertation/Experiment/OpenSesame/NAP-FC/NAP_GER_AA_4blocks_noglides","yes","no","sans","no","20","no","black","no","Weiter","yes","768","legacy","1","9","0","/Users/aviadalbert/Documents/Academisch/UoC/Dissertation/Experiment/OpenSesame/NAP-FC/NAP_GER_AA_4blocks_noglides/subject-3.csv","xpyriment","Jazzy James","3.1.9","yes","yes","59a800d99ad5a1025d81bb03","59a801616c613b0251691de0","no","no","0","j","f","space","NA","space","space","j","2030","1618","20230","NA","36976","5598","2030","2","legacy","1024","1","44100","-16","experiment","nmal","1","0","0","0","1","english","3","","odd","7700002","7679251","NA","NA","7701621","7699999","NA","7521899","7699540","7544470","7521900","7592767","7629748","7707008","7705504","7709039","7639890","7635617","7679251","NA","7548246","7581237","7677594","7635408","7700001","7635621","NA","7707007","7707007","7670620","7670616","7705499","NAP perception","0","3910","2","yes","1024"
"0","yes","0","2033","2033","white","no","xpyriment","Ich habe die obigen Informationen gelesen und verstanden.","legacy","legacy","0","uniform","0","0","0","undefined","undefined","0","j","2","1","NA","0","1","0","0","0","0","0","0","0","0","12","12","12","0","0","0","NA","0","0","2","0","0","0","2","12","12","12","12","12","Wed Oct  4 15:44:13 2017","Forced-choice identification task with a practice and an experimental phase","yes","NAP_GER_AA_4blocks_noglides.osexp","/Users/aviadalbert/Documents/Academisch/UoC/Dissertation/Experiment/OpenSesame/NAP-FC/NAP_GER_AA_4blocks_noglides","yes","no","sans","no","20","no","black","no","Weiter","yes","768","legacy","2","9","0","/Users/aviadalbert/Documents/Academisch/UoC/Dissertation/Experiment/OpenSesame/NAP-FC/NAP_GER_AA_4blocks_noglides/subject-3.csv","xpyriment","Jazzy James","3.1.9","yes","yes","59a800d99ad5a1025d81bb03","59a801616c613b0251691de0","no","no","0","f","f","space","NA","space","space","f","2189","1618","20230","NA","36976","5598","2189","2","legacy","1024","1","44100","-16","experiment","zemal","1","0","0","0","1","english","3","","odd","7700002","7679251","NA","NA","7701621","7699999","NA","7521899","7699540","7544470","7521900","7592767","7629748","7710815","7709308","7713005","7639890","7635617","7679251","NA","7548246","7581237","7677594","7635408","7700001","7635621","NA","7710815","7710815","7670620","7670616","7709303","NAP perception","0","6099","3","yes","1024"
"25","yes","25","1974.25","1974.25","white","no","xpyriment","Ich habe die obigen Informationen gelesen und verstanden.","legacy","legacy","0","uniform","1","0","0","undefined","undefined","1","j","2","1","NA","0","1","0","0","0","0","0","0","0","0","13","13","13","0","0","0","NA","0","0","2","0","0","0","2","13","13","13","13","13","Wed Oct  4 15:44:13 2017","Forced-choice identification task with a practice and an experimental phase","yes","NAP_GER_AA_4blocks_noglides.osexp","/Users/aviadalbert/Documents/Academisch/UoC/Dissertation/Experiment/OpenSesame/NAP-FC/NAP_GER_AA_4blocks_noglides","yes","no","sans","no","20","no","black","no","Weiter","yes","768","legacy","3","9","0","/Users/aviadalbert/Documents/Academisch/UoC/Dissertation/Experiment/OpenSesame/NAP-FC/NAP_GER_AA_4blocks_noglides/subject-3.csv","xpyriment","Jazzy James","3.1.9","yes","yes","59a800d99ad5a1025d81bb03","59a801616c613b0251691de0","no","no","0","j","f","space","NA","space","space","j","1798","1618","20230","NA","36976","5598","1798","2","legacy","1024","1","44100","-16","experiment","menal","1","0","0","0","1","english","3","","odd","7700002","7679251","NA","NA","7701621","7699999","NA","7521899","7699540","7544470","7521900","7592767","7629748","7714789","7713284","7716589","7639890","7635617","7679251","NA","7548246","7581237","7677594","7635408","7700001","7635621","NA","7714788","7714789","7670620","7670616","7713280","NAP perception","1","7897","4","yes","1024"
"40","yes","40","1932.6","1932.6","white","no","xpyriment","Ich habe die obigen Informationen gelesen und verstanden.","legacy","legacy","0","uniform","1","0","0","undefined","undefined","1","j","2","1","NA","0","1","0","0","0","0","0","0","0","0","14","14","14","0","0","0","NA","0","0","2","0","0","0","2","14","14","14","14","14","Wed Oct  4 15:44:13 2017","Forced-choice identification task with a practice and an experimental phase","yes","NAP_GER_AA_4blocks_noglides.osexp","/Users/aviadalbert/Documents/Academisch/UoC/Dissertation/Experiment/OpenSesame/NAP-FC/NAP_GER_AA_4blocks_noglides","yes","no","sans","no","20","no","black","no","Weiter","yes","768","legacy","4","9","0","/Users/aviadalbert/Documents/Academisch/UoC/Dissertation/Experiment/OpenSesame/NAP-FC/NAP_GER_AA_4blocks_noglides/subject-3.csv","xpyriment","Jazzy James","3.1.9","yes","yes","59a800d99ad5a1025d81bb03","59a801616c613b0251691de0","no","no","0","j","f","space","NA","space","space","j","1766","1618","20230","NA","36976","5598","1766","2","legacy","1024","1","44100","-16","experiment","enpal","1","0","0","0","1","english","3","","odd","7700002","7679251","NA","NA","7701621","7699999","NA","7521899","7699540","7544470","7521900","7592767","7629748","7718386","7716882","7720154","7639890","7635617","7679251","NA","7548246","7581237","7677594","7635408","7700001","7635621","NA","7718385","7718385","7670620","7670616","7716877","NAP perception","2","9663","5","yes","1024"
"33.3333333333","yes","33.3333333333","1831","1831","white","no","xpyriment","Ich habe die obigen Informationen gelesen und verstanden.","legacy","legacy","0","uniform","0","0","0","undefined","undefined","0","j","2","1","NA","0","1","0","0","0","0","0","0","0","0","15","15","15","0","0","0","NA","0","0","2","0","0","0","2","15","15","15","15","15","Wed Oct  4 15:44:13 2017","Forced-choice identification task with a practice and an experimental phase","yes","NAP_GER_AA_4blocks_noglides.osexp","/Users/aviadalbert/Documents/Academisch/UoC/Dissertation/Experiment/OpenSesame/NAP-FC/NAP_GER_AA_4blocks_noglides","yes","no","sans","no","20","no","black","no","Weiter","yes","768","legacy","5","9","0","/Users/aviadalbert/Documents/Academisch/UoC/Dissertation/Experiment/OpenSesame/NAP-FC/NAP_GER_AA_4blocks_noglides/subject-3.csv","xpyriment","Jazzy James","3.1.9","yes","yes","59a800d99ad5a1025d81bb03","59a801616c613b0251691de0","no","no","0","f","f","space","NA","space","space","f","1323","1618","20230","NA","36976","5598","1323","2","legacy","1024","1","44100","-16","experiment","nemal","1","0","0","0","1","english","3","","odd","7700002","7679251","NA","NA","7701621","7699999","NA","7521899","7699540","7544470","7521900","7592767","7629748","7721930","7720425","7723255","7639890","7635617","7679251","NA","7548246","7581237","7677594","7635408","7700001","7635621","NA","7721929","7721929","7670620","7670616","7720421","NAP perception","2","10986","6","yes","1024"
"42.8571428571","yes","42.8571428571","1864.28571429","1864.28571429","white","no","xpyriment","Ich habe die obigen Informationen gelesen und verstanden.","legacy","legacy","0","uniform","1","0","0","undefined","undefined","1","j","2","1","NA","0","1","0","0","0","0","0","0","0","0","16","16","16","0","0","0","NA","0","0","2","0","0","0","2","16","16","16","16","16","Wed Oct  4 15:44:13 2017","Forced-choice identification task with a practice and an experimental phase","yes","NAP_GER_AA_4blocks_noglides.osexp","/Users/aviadalbert/Documents/Academisch/UoC/Dissertation/Experiment/OpenSesame/NAP-FC/NAP_GER_AA_4blocks_noglides","yes","no","sans","no","20","no","black","no","Weiter","yes","768","legacy","6","9","0","/Users/aviadalbert/Documents/Academisch/UoC/Dissertation/Experiment/OpenSesame/NAP-FC/NAP_GER_AA_4blocks_noglides/subject-3.csv","xpyriment","Jazzy James","3.1.9","yes","yes","59a800d99ad5a1025d81bb03","59a801616c613b0251691de0","no","no","0","j","f","space","NA","space","space","j","2064","1618","20230","NA","36976","5598","2064","2","legacy","1024","1","44100","-16","experiment","ezval","1","0","0","0","1","english","3","","odd","7700002","7679251","NA","NA","7701621","7699999","NA","7521899","7699540","7544470","7521900","7592767","7629748","7725028","7723524","7727093","7639890","7635617","7679251","NA","7548246","7581237","7677594","7635408","7700001","7635621","NA","7725027","7725027","7670620","7670616","7723519","NAP perception","3","13050","7","yes","1024"
"37.5","yes","37.5","1859.625","1859.625","white","no","xpyriment","Ich habe die obigen Informationen gelesen und verstanden.","legacy","legacy","0","uniform","0","0","0","undefined","undefined","0","j","2","1","NA","0","1","0","0","0","0","0","0","0","0","17","17","17","0","0","0","NA","0","0","2","0","0","0","2","17","17","17","17","17","Wed Oct  4 15:44:13 2017","Forced-choice identification task with a practice and an experimental phase","yes","NAP_GER_AA_4blocks_noglides.osexp","/Users/aviadalbert/Documents/Academisch/UoC/Dissertation/Experiment/OpenSesame/NAP-FC/NAP_GER_AA_4blocks_noglides","yes","no","sans","no","20","no","black","no","Weiter","yes","768","legacy","7","9","0","/Users/aviadalbert/Documents/Academisch/UoC/Dissertation/Experiment/OpenSesame/NAP-FC/NAP_GER_AA_4blocks_noglides/subject-3.csv","xpyriment","Jazzy James","3.1.9","yes","yes","59a800d99ad5a1025d81bb03","59a801616c613b0251691de0","no","no","0","f","f","space","NA","space","space","f","1827","1618","20230","NA","36976","5598","1827","2","legacy","1024","1","44100","-16","experiment","sepal","1","0","0","0","1","english","3","","odd","7700002","7679251","NA","NA","7701621","7699999","NA","7521899","7699540","7544470","7521900","7592767","7629748","7728874","7727370","7730703","7639890","7635617","7679251","NA","7548246","7581237","7677594","7635408","7700001","7635621","NA","7728873","7728873","7670620","7670616","7727365","NAP perception","3","14877","8","yes","1024"
"44.4444444444","yes","44.4444444444","1834.66666667","1834.66666667","white","no","xpyriment","Ich habe die obigen Informationen gelesen und verstanden.","legacy","legacy","0","uniform","1","0","0","undefined","undefined","1","f","2","1","NA","0","1","0","0","0","0","0","0","0","0","18","18","18","0","0","0","NA","0","0","2","0","0","0","2","18","18","18","18","18","Wed Oct  4 15:44:13 2017","Forced-choice identification task with a practice and an experimental phase","yes","NAP_GER_AA_4blocks_noglides.osexp","/Users/aviadalbert/Documents/Academisch/UoC/Dissertation/Experiment/OpenSesame/NAP-FC/NAP_GER_AA_4blocks_noglides","yes","no","sans","no","20","no","black","no","Weiter","yes","768","legacy","8","9","0","/Users/aviadalbert/Documents/Academisch/UoC/Dissertation/Experiment/OpenSesame/NAP-FC/NAP_GER_AA_4blocks_noglides/subject-3.csv","xpyriment","Jazzy James","3.1.9","yes","yes","59a800d99ad5a1025d81bb03","59a801616c613b0251691de0","no","no","0","f","f","space","NA","space","space","f","1635","1618","20230","NA","36976","5598","1635","2","legacy","1024","1","44100","-16","experiment","vnal","1","0","0","0","1","english","3","","odd","7700002","7679251","NA","NA","7701621","7699999","NA","7521899","7699540","7544470","7521900","7592767","7629748","7732493","7730987","7734130","7639890","7635617","7679251","NA","7548246","7581237","7677594","7635408","7700001","7635621","NA","7732492","7732492","7670620","7670616","7730982","NAP perception","4","16512","9","yes","1024"
"50","yes","50","1822.2","1822.2","white","no","xpyriment","Ich habe die obigen Informationen gelesen und verstanden.","legacy","legacy","0","uniform","1","0","0","undefined","undefined","1","j","2","1","NA","0","1","0","0","0","0","0","0","0","0","19","19","19","0","0","0","NA","0","0","2","0","0","0","2","19","19","19","19","19","Wed Oct  4 15:44:13 2017","Forced-choice identification task with a practice and an experimental phase","yes","NAP_GER_AA_4blocks_noglides.osexp","/Users/aviadalbert/Documents/Academisch/UoC/Dissertation/Experiment/OpenSesame/NAP-FC/NAP_GER_AA_4blocks_noglides","yes","no","sans","no","20","no","black","no","Weiter","yes","768","legacy","9","9","0","/Users/aviadalbert/Documents/Academisch/UoC/Dissertation/Experiment/OpenSesame/NAP-FC/NAP_GER_AA_4blocks_noglides/subject-3.csv","xpyriment","Jazzy James","3.1.9","yes","yes","59a800d99ad5a1025d81bb03","59a801616c613b0251691de0","no","no","0","j","f","space","NA","space","space","j","1710","1618","20230","NA","36976","5598","1710","2","legacy","1024","1","44100","-16","experiment","eflal","1","0","0","0","1","english","3","","odd","7700002","7679251","NA","NA","7701621","7699999","NA","7521899","7699540","7544470","7521900","7592767","7629748","7735917","7734412","7737628","7639890","7635617","7679251","NA","7548246","7581237","7677594","7635408","7700001","7635621","NA","7735916","7735916","7670620","7670616","7734408","NAP perception","5","18222","10","yes","1024"
"45.4545454545","yes","45.4545454545","1842.63636364","1842.63636364","white","no","xpyriment","Ich habe die obigen Informationen gelesen und verstanden.","legacy","legacy","0","uniform","0","0","0","undefined","undefined","0","f","2","1","NA","0","1","0","0","0","0","0","0","0","0","20","20","20","0","0","0","NA","0","0","2","0","0","0","2","20","20","20","20","20","Wed Oct  4 15:44:13 2017","Forced-choice identification task with a practice and an experimental phase","yes","NAP_GER_AA_4blocks_noglides.osexp","/Users/aviadalbert/Documents/Academisch/UoC/Dissertation/Experiment/OpenSesame/NAP-FC/NAP_GER_AA_4blocks_noglides","yes","no","sans","no","20","no","black","no","Weiter","yes","768","legacy","10","9","0","/Users/aviadalbert/Documents/Academisch/UoC/Dissertation/Experiment/OpenSesame/NAP-FC/NAP_GER_AA_4blocks_noglides/subject-3.csv","xpyriment","Jazzy James","3.1.9","yes","yes","59a800d99ad5a1025d81bb03","59a801616c613b0251691de0","no","no","0","j","f","space","NA","space","space","j","2047","1618","20230","NA","36976","5598","2047","2","legacy","1024","1","44100","-16","experiment","lfal","1","0","0","0","1","english","3","","odd","7700002","7679251","NA","NA","7701621","7699999","NA","7521899","7699540","7544470","7521900","7592767","7629748","7739412","7737908","7741460","7639890","7635617","7679251","NA","7548246","7581237","7677594","7635408","7700001","7635621","NA","7739412","7739412","7670620","7670616","7737903","NAP perception","5","20269","11","yes","1024"
"50","yes","50","1784.33333333","1784.33333333","white","no","xpyriment","Ich habe die obigen Informationen gelesen und verstanden.","legacy","legacy","0","uniform","1","0","0","undefined","undefined","1","f","2","1","NA","0","1","0","0","0","0","0","0","0","0","21","21","21","0","0","0","NA","0","0","2","0","0","0","2","21","21","21","21","21","Wed Oct  4 15:44:13 2017","Forced-choice identification task with a practice and an experimental phase","yes","NAP_GER_AA_4blocks_noglides.osexp","/Users/aviadalbert/Documents/Academisch/UoC/Dissertation/Experiment/OpenSesame/NAP-FC/NAP_GER_AA_4blocks_noglides","yes","no","sans","no","20","no","black","no","Weiter","yes","768","legacy","11","9","0","/Users/aviadalbert/Documents/Academisch/UoC/Dissertation/Experiment/OpenSesame/NAP-FC/NAP_GER_AA_4blocks_noglides/subject-3.csv","xpyriment","Jazzy James","3.1.9","yes","yes","59a800d99ad5a1025d81bb03","59a801616c613b0251691de0","no","no","0","f","f","space","NA","space","space","f","1143","1618","20230","NA","36976","5598","1143","2","legacy","1024","1","44100","-16","experiment","fsal","1","0","0","0","1","english","3","","odd","7700002","7679251","NA","NA","7701621","7699999","NA","7521899","7699540","7544470","7521900","7592767","7629748","7743254","7741750","7744398","7639890","7635617","7679251","NA","7548246","7581237","7677594","7635408","7700001","7635621","NA","7743253","7743253","7670620","7670616","7741745","NAP perception","6","21412","12","yes","1024"
"46.1538461538","yes","46.1538461538","1784.15384615","1784.15384615","white","no","xpyriment","Ich habe die obigen Informationen gelesen und verstanden.","legacy","legacy","0","uniform","0","0","0","undefined","undefined","0","f","2","1","NA","0","1","0","0","0","0","0","0","0","0","22","22","22","0","0","0","NA","0","0","2","0","0","0","2","22","22","22","22","22","Wed Oct  4 15:44:13 2017","Forced-choice identification task with a practice and an experimental phase","yes","NAP_GER_AA_4blocks_noglides.osexp","/Users/aviadalbert/Documents/Academisch/UoC/Dissertation/Experiment/OpenSesame/NAP-FC/NAP_GER_AA_4blocks_noglides","yes","no","sans","no","20","no","black","no","Weiter","yes","768","legacy","12","9","0","/Users/aviadalbert/Documents/Academisch/UoC/Dissertation/Experiment/OpenSesame/NAP-FC/NAP_GER_AA_4blocks_noglides/subject-3.csv","xpyriment","Jazzy James","3.1.9","yes","yes","59a800d99ad5a1025d81bb03","59a801616c613b0251691de0","no","no","0","j","f","space","NA","space","space","j","1782","1618","20230","NA","36976","5598","1782","2","legacy","1024","1","44100","-16","experiment","lval","1","0","0","0","1","english","3","","odd","7700002","7679251","NA","NA","7701621","7699999","NA","7521899","7699540","7544470","7521900","7592767","7629748","7746184","7744680","7747967","7639890","7635617","7679251","NA","7548246","7581237","7677594","7635408","7700001","7635621","NA","7746183","7746183","7670620","7670616","7744676","NAP perception","6","23194","13","yes","1024"
"42.8571428571","yes","42.8571428571","1806.42857143","1806.42857143","white","no","xpyriment","Ich habe die obigen Informationen gelesen und verstanden.","legacy","legacy","0","uniform","0","0","0","undefined","undefined","0","j","2","1","NA","0","1","0","0","0","0","0","0","0","0","23","23","23","0","0","0","NA","0","0","2","0","0","0","2","23","23","23","23","23","Wed Oct  4 15:44:13 2017","Forced-choice identification task with a practice and an experimental phase","yes","NAP_GER_AA_4blocks_noglides.osexp","/Users/aviadalbert/Documents/Academisch/UoC/Dissertation/Experiment/OpenSesame/NAP-FC/NAP_GER_AA_4blocks_noglides","yes","no","sans","no","20","no","black","no","Weiter","yes","768","legacy","13","9","0","/Users/aviadalbert/Documents/Academisch/UoC/Dissertation/Experiment/OpenSesame/NAP-FC/NAP_GER_AA_4blocks_noglides/subject-3.csv","xpyriment","Jazzy James","3.1.9","yes","yes","59a800d99ad5a1025d81bb03","59a801616c613b0251691de0","no","no","0","f","f","space","NA","space","space","f","2096","1618","20230","NA","36976","5598","2096","2","legacy","1024","1","44100","-16","experiment","melal","1","0","0","0","1","english","3","","odd","7700002","7679251","NA","NA","7701621","7699999","NA","7521899","7699540","7544470","7521900","7592767","7629748","7749758","7748253","7751856","7639890","7635617","7679251","NA","7548246","7581237","7677594","7635408","7700001","7635621","NA","7749757","7749757","7670620","7670616","7748249","NAP perception","6","25290","14","yes","1024"
"46.6666666667","yes","46.6666666667","1827.73333333","1827.73333333","white","no","xpyriment","Ich habe die obigen Informationen gelesen und verstanden.","legacy","legacy","0","uniform","1","0","0","undefined","undefined","1","f","2","1","NA","0","1","0","0","0","0","0","0","0","0","24","24","24","0","0","0","NA","0","0","2","0","0","0","2","24","24","24","24","24","Wed Oct  4 15:44:13 2017","Forced-choice identification task with a practice and an experimental phase","yes","NAP_GER_AA_4blocks_noglides.osexp","/Users/aviadalbert/Documents/Academisch/UoC/Dissertation/Experiment/OpenSesame/NAP-FC/NAP_GER_AA_4blocks_noglides","yes","no","sans","no","20","no","black","no","Weiter","yes","768","legacy","14","9","0","/Users/aviadalbert/Documents/Academisch/UoC/Dissertation/Experiment/OpenSesame/NAP-FC/NAP_GER_AA_4blocks_noglides/subject-3.csv","xpyriment","Jazzy James","3.1.9","yes","yes","59a800d99ad5a1025d81bb03","59a801616c613b0251691de0","no","no","0","f","f","space","NA","space","space","f","2126","1618","20230","NA","36976","5598","2126","2","legacy","1024","1","44100","-16","experiment","mlal","1","0","0","0","1","english","3","","odd","7700002","7679251","NA","NA","7701621","7699999","NA","7521899","7699540","7544470","7521900","7592767","7629748","7753623","7752119","7755751","7639890","7635617","7679251","NA","7548246","7581237","7677594","7635408","7700001","7635621","NA","7753622","7753623","7670620","7670616","7752114","NAP perception","7","27416","15","yes","1024"
"43.75","yes","43.75","1822.0625","1822.0625","white","no","xpyriment","Ich habe die obigen Informationen gelesen und verstanden.","legacy","legacy","0","uniform","0","0","0","undefined","undefined","0","j","2","1","NA","0","1","0","0","0","0","0","0","0","0","25","25","25","0","0","0","NA","0","0","2","0","0","0","2","25","25","25","25","25","Wed Oct  4 15:44:13 2017","Forced-choice identification task with a practice and an experimental phase","yes","NAP_GER_AA_4blocks_noglides.osexp","/Users/aviadalbert/Documents/Academisch/UoC/Dissertation/Experiment/OpenSesame/NAP-FC/NAP_GER_AA_4blocks_noglides","yes","no","sans","no","20","no","black","no","Weiter","yes","768","legacy","15","9","0","/Users/aviadalbert/Documents/Academisch/UoC/Dissertation/Experiment/OpenSesame/NAP-FC/NAP_GER_AA_4blocks_noglides/subject-3.csv","xpyriment","Jazzy James","3.1.9","yes","yes","59a800d99ad5a1025d81bb03","59a801616c613b0251691de0","no","no","0","f","f","space","NA","space","space","f","1737","1618","20230","NA","36976","5598","1737","2","legacy","1024","1","44100","-16","experiment","elkal","1","0","0","0","1","english","3","","odd","7700002","7679251","NA","NA","7701621","7699999","NA","7521899","7699540","7544470","7521900","7592767","7629748","7757524","7756016","7759262","7639890","7635617","7679251","NA","7548246","7581237","7677594","7635408","7700001","7635621","NA","7757524","7757524","7670620","7670616","7756012","NAP perception","7","29153","16","yes","1024"
"47.0588235294","yes","47.0588235294","1836.23529412","1836.23529412","white","no","xpyriment","Ich habe die obigen Informationen gelesen und verstanden.","legacy","legacy","0","uniform","1","0","0","undefined","undefined","1","j","2","1","NA","0","1","0","0","0","0","0","0","0","0","26","26","26","0","0","0","NA","0","0","2","0","0","0","2","26","26","26","26","26","Wed Oct  4 15:44:13 2017","Forced-choice identification task with a practice and an experimental phase","yes","NAP_GER_AA_4blocks_noglides.osexp","/Users/aviadalbert/Documents/Academisch/UoC/Dissertation/Experiment/OpenSesame/NAP-FC/NAP_GER_AA_4blocks_noglides","yes","no","sans","no","20","no","black","no","Weiter","yes","768","legacy","16","9","0","/Users/aviadalbert/Documents/Academisch/UoC/Dissertation/Experiment/OpenSesame/NAP-FC/NAP_GER_AA_4blocks_noglides/subject-3.csv","xpyriment","Jazzy James","3.1.9","yes","yes","59a800d99ad5a1025d81bb03","59a801616c613b0251691de0","no","no","0","j","f","space","NA","space","space","j","2063","1618","20230","NA","36976","5598","2063","2","legacy","1024","1","44100","-16","experiment","ezmal","1","0","0","0","1","english","3","","odd","7700002","7679251","NA","NA","7701621","7699999","NA","7521899","7699540","7544470","7521900","7592767","7629748","7761043","7759539","7763108","7639890","7635617","7679251","NA","7548246","7581237","7677594","7635408","7700001","7635621","NA","7761042","7761042","7670620","7670616","7759535","NAP perception","8","31216","17","yes","1024"
"44.4444444444","yes","44.4444444444","1870.33333333","1870.33333333","white","no","xpyriment","Ich habe die obigen Informationen gelesen und verstanden.","legacy","legacy","0","uniform","0","0","0","undefined","undefined","0","f","2","1","NA","0","1","0","0","0","0","0","0","0","0","27","27","27","0","0","0","NA","0","0","2","0","0","0","2","27","27","27","27","27","Wed Oct  4 15:44:13 2017","Forced-choice identification task with a practice and an experimental phase","yes","NAP_GER_AA_4blocks_noglides.osexp","/Users/aviadalbert/Documents/Academisch/UoC/Dissertation/Experiment/OpenSesame/NAP-FC/NAP_GER_AA_4blocks_noglides","yes","no","sans","no","20","no","black","no","Weiter","yes","768","legacy","17","9","0","/Users/aviadalbert/Documents/Academisch/UoC/Dissertation/Experiment/OpenSesame/NAP-FC/NAP_GER_AA_4blocks_noglides/subject-3.csv","xpyriment","Jazzy James","3.1.9","yes","yes","59a800d99ad5a1025d81bb03","59a801616c613b0251691de0","no","no","0","j","f","space","NA","space","space","j","2450","1618","20230","NA","36976","5598","2450","2","legacy","1024","1","44100","-16","experiment","ʃfal","1","0","0","0","1","english","3","","odd","7700002","7679251","NA","NA","7701621","7699999","NA","7521899","7699540","7544470","7521900","7592767","7629748","7764891","7763387","7767343","7639890","7635617","7679251","NA","7548246","7581237","7677594","7635408","7700001","7635621","NA","7764890","7764890","7670620","7670616","7763383","NAP perception","8","33666","18","yes","1024"
"47.3684210526","yes","47.3684210526","1855.68421053","1855.68421053","white","no","xpyriment","Ich habe die obigen Informationen gelesen und verstanden.","legacy","legacy","0","uniform","1","0","0","undefined","undefined","1","j","2","1","NA","0","1","0","0","0","0","0","0","0","0","28","28","28","0","0","0","NA","0","0","2","0","0","0","2","28","28","28","28","28","Wed Oct  4 15:44:13 2017","Forced-choice identification task with a practice and an experimental phase","yes","NAP_GER_AA_4blocks_noglides.osexp","/Users/aviadalbert/Documents/Academisch/UoC/Dissertation/Experiment/OpenSesame/NAP-FC/NAP_GER_AA_4blocks_noglides","yes","no","sans","no","20","no","black","no","Weiter","yes","768","legacy","18","9","0","/Users/aviadalbert/Documents/Academisch/UoC/Dissertation/Experiment/OpenSesame/NAP-FC/NAP_GER_AA_4blocks_noglides/subject-3.csv","xpyriment","Jazzy James","3.1.9","yes","yes","59a800d99ad5a1025d81bb03","59a801616c613b0251691de0","no","no","0","j","f","space","NA","space","space","j","1592","1618","20230","NA","36976","5598","1592","2","legacy","1024","1","44100","-16","experiment","emzal","1","0","0","0","1","english","3","","odd","7700002","7679251","NA","NA","7701621","7699999","NA","7521899","7699540","7544470","7521900","7592767","7629748","7769133","7767628","7770727","7639890","7635617","7679251","NA","7548246","7581237","7677594","7635408","7700001","7635621","NA","7769132","7769133","7670620","7670616","7767623","NAP perception","9","35258","19","yes","1024"
"45","yes","45","1912.9","1912.9","white","no","xpyriment","Ich habe die obigen Informationen gelesen und verstanden.","legacy","legacy","0","uniform","0","0","0","undefined","undefined","0","f","2","1","NA","0","1","0","0","0","0","0","0","0","0","29","29","29","0","0","0","NA","0","0","2","0","0","0","2","29","29","29","29","29","Wed Oct  4 15:44:13 2017","Forced-choice identification task with a practice and an experimental phase","yes","NAP_GER_AA_4blocks_noglides.osexp","/Users/aviadalbert/Documents/Academisch/UoC/Dissertation/Experiment/OpenSesame/NAP-FC/NAP_GER_AA_4blocks_noglides","yes","no","sans","no","20","no","black","no","Weiter","yes","768","legacy","19","9","0","/Users/aviadalbert/Documents/Academisch/UoC/Dissertation/Experiment/OpenSesame/NAP-FC/NAP_GER_AA_4blocks_noglides/subject-3.csv","xpyriment","Jazzy James","3.1.9","yes","yes","59a800d99ad5a1025d81bb03","59a801616c613b0251691de0","no","no","0","None","f","space","NA","space","space","None","3000","1618","20230","NA","36976","5598","3000","2","legacy","1024","1","44100","-16","experiment","vnal","1","0","0","0","1","english","3","","odd","7700002","7679251","NA","NA","7701621","7699999","NA","7521899","7699540","7544470","7521900","7592767","7629748","7772501","7770994","7776505","7639890","7635617","7679251","NA","7548246","7581237","7677594","7635408","7700001","7635621","NA","7772501","7772501","7775505","7775501","7770990","NAP perception","9","38258","20","yes","1024"
"47.619047619","yes","47.619047619","1923.52380952","1923.52380952","white","no","xpyriment","Ich habe die obigen Informationen gelesen und verstanden.","legacy","legacy","0","uniform","1","0","0","undefined","undefined","1","j","2","1","NA","0","1","0","0","0","0","0","0","0","0","30","30","30","0","0","0","NA","0","0","2","0","0","0","2","30","30","30","30","30","Wed Oct  4 15:44:13 2017","Forced-choice identification task with a practice and an experimental phase","yes","NAP_GER_AA_4blocks_noglides.osexp","/Users/aviadalbert/Documents/Academisch/UoC/Dissertation/Experiment/OpenSesame/NAP-FC/NAP_GER_AA_4blocks_noglides","yes","no","sans","no","20","no","black","no","Weiter","yes","768","legacy","20","9","0","/Users/aviadalbert/Documents/Academisch/UoC/Dissertation/Experiment/OpenSesame/NAP-FC/NAP_GER_AA_4blocks_noglides/subject-3.csv","xpyriment","Jazzy James","3.1.9","yes","yes","59a800d99ad5a1025d81bb03","59a801616c613b0251691de0","no","no","0","j","f","space","NA","space","space","j","2136","1618","20230","NA","36976","5598","2136","2","legacy","1024","1","44100","-16","experiment","ʃepal","1","0","0","0","1","english","3","","odd","7700002","7679251","NA","NA","7701621","7699999","NA","7521899","7699540","7544470","7521900","7592767","7629748","7778283","7776777","7780421","7639890","7635617","7679251","NA","7548246","7581237","7677594","7635408","7700001","7635621","NA","7778283","7778283","7775505","7775501","7776772","NAP perception","10","40394","21","yes","1024"
"50","yes","50","1916.27272727","1916.27272727","white","no","xpyriment","Ich habe die obigen Informationen gelesen und verstanden.","legacy","legacy","0","uniform","1","0","0","undefined","undefined","1","f","2","1","NA","0","1","0","0","0","0","0","0","0","0","31","31","31","0","0","0","NA","0","0","2","0","0","0","2","31","31","31","31","31","Wed Oct  4 15:44:13 2017","Forced-choice identification task with a practice and an experimental phase","yes","NAP_GER_AA_4blocks_noglides.osexp","/Users/aviadalbert/Documents/Academisch/UoC/Dissertation/Experiment/OpenSesame/NAP-FC/NAP_GER_AA_4blocks_noglides","yes","no","sans","no","20","no","black","no","Weiter","yes","768","legacy","21","9","0","/Users/aviadalbert/Documents/Academisch/UoC/Dissertation/Experiment/OpenSesame/NAP-FC/NAP_GER_AA_4blocks_noglides/subject-3.csv","xpyriment","Jazzy James","3.1.9","yes","yes","59a800d99ad5a1025d81bb03","59a801616c613b0251691de0","no","no","0","f","f","space","NA","space","space","f","1764","1618","20230","NA","36976","5598","1764","2","legacy","1024","1","44100","-16","experiment","ʃmal","1","0","0","0","1","english","3","","odd","7700002","7679251","NA","NA","7701621","7699999","NA","7521899","7699540","7544470","7521900","7592767","7629748","7782192","7780688","7783957","7639890","7635617","7679251","NA","7548246","7581237","7677594","7635408","7700001","7635621","NA","7782191","7782191","7775505","7775501","7780684","NAP perception","11","42158","22","yes","1024"
"47.8260869565","yes","47.8260869565","1924.34782609","1924.34782609","white","no","xpyriment","Ich habe die obigen Informationen gelesen und verstanden.","legacy","legacy","0","uniform","0","0","0","undefined","undefined","0","j","2","1","NA","0","1","0","0","0","0","0","0","0","0","32","32","32","0","0","0","NA","0","0","2","0","0","0","2","32","32","32","32","32","Wed Oct  4 15:44:13 2017","Forced-choice identification task with a practice and an experimental phase","yes","NAP_GER_AA_4blocks_noglides.osexp","/Users/aviadalbert/Documents/Academisch/UoC/Dissertation/Experiment/OpenSesame/NAP-FC/NAP_GER_AA_4blocks_noglides","yes","no","sans","no","20","no","black","no","Weiter","yes","768","legacy","22","9","0","/Users/aviadalbert/Documents/Academisch/UoC/Dissertation/Experiment/OpenSesame/NAP-FC/NAP_GER_AA_4blocks_noglides/subject-3.csv","xpyriment","Jazzy James","3.1.9","yes","yes","59a800d99ad5a1025d81bb03","59a801616c613b0251691de0","no","no","0","f","f","space","NA","space","space","f","2102","1618","20230","NA","36976","5598","2102","2","legacy","1024","1","44100","-16","experiment","lekal","1","0","0","0","1","english","3","","odd","7700002","7679251","NA","NA","7701621","7699999","NA","7521899","7699540","7544470","7521900","7592767","7629748","7785733","7784227","7787836","7639890","7635617","7679251","NA","7548246","7581237","7677594","7635408","7700001","7635621","NA","7785733","7785733","7775505","7775501","7784222","NAP perception","11","44260","23","yes","1024"
"50","yes","50","1916.125","1916.125","white","no","xpyriment","Ich habe die obigen Informationen gelesen und verstanden.","legacy","legacy","0","uniform","1","0","0","undefined","undefined","1","j","2","1","NA","0","1","0","0","0","0","0","0","0","0","33","33","33","0","0","0","NA","0","0","2","0","0","0","2","33","33","33","33","33","Wed Oct  4 15:44:13 2017","Forced-choice identification task with a practice and an experimental phase","yes","NAP_GER_AA_4blocks_noglides.osexp","/Users/aviadalbert/Documents/Academisch/UoC/Dissertation/Experiment/OpenSesame/NAP-FC/NAP_GER_AA_4blocks_noglides","yes","no","sans","no","20","no","black","no","Weiter","yes","768","legacy","23","9","0","/Users/aviadalbert/Documents/Academisch/UoC/Dissertation/Experiment/OpenSesame/NAP-FC/NAP_GER_AA_4blocks_noglides/subject-3.csv","xpyriment","Jazzy James","3.1.9","yes","yes","59a800d99ad5a1025d81bb03","59a801616c613b0251691de0","no","no","0","j","f","space","NA","space","space","j","1727","1618","20230","NA","36976","5598","1727","2","legacy","1024","1","44100","-16","experiment","evlal","1","0","0","0","1","english","3","","odd","7700002","7679251","NA","NA","7701621","7699999","NA","7521899","7699540","7544470","7521900","7592767","7629748","7789611","7788105","7791339","7639890","7635617","7679251","NA","7548246","7581237","7677594","7635408","7700001","7635621","NA","7789610","7789611","7775505","7775501","7788101","NAP perception","12","45987","24","yes","1024"
"52","yes","52","1893.04","1893.04","white","no","xpyriment","Ich habe die obigen Informationen gelesen und verstanden.","legacy","legacy","0","uniform","1","0","0","undefined","undefined","1","f","2","1","NA","0","1","0","0","0","0","0","0","0","0","34","34","34","0","0","0","NA","0","0","2","0","0","0","2","34","34","34","34","34","Wed Oct  4 15:44:13 2017","Forced-choice identification task with a practice and an experimental phase","yes","NAP_GER_AA_4blocks_noglides.osexp","/Users/aviadalbert/Documents/Academisch/UoC/Dissertation/Experiment/OpenSesame/NAP-FC/NAP_GER_AA_4blocks_noglides","yes","no","sans","no","20","no","black","no","Weiter","yes","768","legacy","24","9","0","/Users/aviadalbert/Documents/Academisch/UoC/Dissertation/Experiment/OpenSesame/NAP-FC/NAP_GER_AA_4blocks_noglides/subject-3.csv","xpyriment","Jazzy James","3.1.9","yes","yes","59a800d99ad5a1025d81bb03","59a801616c613b0251691de0","no","no","0","f","f","space","NA","space","space","f","1339","1618","20230","NA","36976","5598","1339","2","legacy","1024","1","44100","-16","experiment","lkal","1","0","0","0","1","english","3","","odd","7700002","7679251","NA","NA","7701621","7699999","NA","7521899","7699540","7544470","7521900","7592767","7629748","7793132","7791628","7794472","7639890","7635617","7679251","NA","7548246","7581237","7677594","7635408","7700001","7635621","NA","7793132","7793132","7775505","7775501","7791624","NAP perception","13","47326","25","yes","1024"
"50","yes","50","1884.69230769","1884.69230769","white","no","xpyriment","Ich habe die obigen Informationen gelesen und verstanden.","legacy","legacy","0","uniform","0","0","0","undefined","undefined","0","f","2","1","NA","0","1","0","0","0","0","0","0","0","0","35","35","35","0","0","0","NA","0","0","2","0","0","0","2","35","35","35","35","35","Wed Oct  4 15:44:13 2017","Forced-choice identification task with a practice and an experimental phase","yes","NAP_GER_AA_4blocks_noglides.osexp","/Users/aviadalbert/Documents/Academisch/UoC/Dissertation/Experiment/OpenSesame/NAP-FC/NAP_GER_AA_4blocks_noglides","yes","no","sans","no","20","no","black","no","Weiter","yes","768","legacy","25","9","0","/Users/aviadalbert/Documents/Academisch/UoC/Dissertation/Experiment/OpenSesame/NAP-FC/NAP_GER_AA_4blocks_noglides/subject-3.csv","xpyriment","Jazzy James","3.1.9","yes","yes","59a800d99ad5a1025d81bb03","59a801616c613b0251691de0","no","no","0","j","f","space","NA","space","space","j","1676","1618","20230","NA","36976","5598","1676","2","legacy","1024","1","44100","-16","experiment","lfal","1","0","0","0","1","english","3","","odd","7700002","7679251","NA","NA","7701621","7699999","NA","7521899","7699540","7544470","7521900","7592767","7629748","7796249","7794745","7797926","7639890","7635617","7679251","NA","7548246","7581237","7677594","7635408","7700001","7635621","NA","7796248","7796248","7775505","7775501","7794740","NAP perception","13","49002","26","yes","1024"
"51.8518518519","yes","51.8518518519","1906.11111111","1906.11111111","white","no","xpyriment","Ich habe die obigen Informationen gelesen und verstanden.","legacy","legacy","0","uniform","1","0","0","undefined","undefined","1","j","2","1","NA","0","1","0","0","0","0","0","0","0","0","36","36","36","0","0","0","NA","0","0","2","0","0","0","2","36","36","36","36","36","Wed Oct  4 15:44:13 2017","Forced-choice identification task with a practice and an experimental phase","yes","NAP_GER_AA_4blocks_noglides.osexp","/Users/aviadalbert/Documents/Academisch/UoC/Dissertation/Experiment/OpenSesame/NAP-FC/NAP_GER_AA_4blocks_noglides","yes","no","sans","no","20","no","black","no","Weiter","yes","768","legacy","26","9","0","/Users/aviadalbert/Documents/Academisch/UoC/Dissertation/Experiment/OpenSesame/NAP-FC/NAP_GER_AA_4blocks_noglides/subject-3.csv","xpyriment","Jazzy James","3.1.9","yes","yes","59a800d99ad5a1025d81bb03","59a801616c613b0251691de0","no","no","0","j","f","space","NA","space","space","j","2463","1618","20230","NA","36976","5598","2463","2","legacy","1024","1","44100","-16","experiment","fesal","1","0","0","0","1","english","3","","odd","7700002","7679251","NA","NA","7701621","7699999","NA","7521899","7699540","7544470","7521900","7592767","7629748","7799687","7798183","7802152","7639890","7635617","7679251","NA","7548246","7581237","7677594","7635408","7700001","7635621","NA","7799686","7799686","7775505","7775501","7798179","NAP perception","14","51465","27","yes","1024"
"50","yes","50","1904.57142857","1904.57142857","white","no","xpyriment","Ich habe die obigen Informationen gelesen und verstanden.","legacy","legacy","0","uniform","0","0","0","undefined","undefined","0","j","2","1","NA","0","1","0","0","0","0","0","0","0","0","37","37","37","0","0","0","NA","0","0","2","0","0","0","2","37","37","37","37","37","Wed Oct  4 15:44:13 2017","Forced-choice identification task with a practice and an experimental phase","yes","NAP_GER_AA_4blocks_noglides.osexp","/Users/aviadalbert/Documents/Academisch/UoC/Dissertation/Experiment/OpenSesame/NAP-FC/NAP_GER_AA_4blocks_noglides","yes","no","sans","no","20","no","black","no","Weiter","yes","768","legacy","27","9","0","/Users/aviadalbert/Documents/Academisch/UoC/Dissertation/Experiment/OpenSesame/NAP-FC/NAP_GER_AA_4blocks_noglides/subject-3.csv","xpyriment","Jazzy James","3.1.9","yes","yes","59a800d99ad5a1025d81bb03","59a801616c613b0251691de0","no","no","0","f","f","space","NA","space","space","f","1863","1618","20230","NA","36976","5598","1863","2","legacy","1024","1","44100","-16","experiment","elpal","1","0","0","0","1","english","3","","odd","7700002","7679251","NA","NA","7701621","7699999","NA","7521899","7699540","7544470","7521900","7592767","7629748","7803931","7802424","7805796","7639890","7635617","7679251","NA","7548246","7581237","7677594","7635408","7700001","7635621","NA","7803931","7803931","7775505","7775501","7802420","NAP perception","14","53328","28","yes","1024"
"51.724137931","yes","51.724137931","1903.31034483","1903.31034483","white","no","xpyriment","Ich habe die obigen Informationen gelesen und verstanden.","legacy","legacy","0","uniform","1","0","0","undefined","undefined","1","j","2","1","NA","0","1","0","0","0","0","0","0","0","0","38","38","38","0","0","0","NA","0","0","2","0","0","0","2","38","38","38","38","38","Wed Oct  4 15:44:13 2017","Forced-choice identification task with a practice and an experimental phase","yes","NAP_GER_AA_4blocks_noglides.osexp","/Users/aviadalbert/Documents/Academisch/UoC/Dissertation/Experiment/OpenSesame/NAP-FC/NAP_GER_AA_4blocks_noglides","yes","no","sans","no","20","no","black","no","Weiter","yes","768","legacy","28","9","0","/Users/aviadalbert/Documents/Academisch/UoC/Dissertation/Experiment/OpenSesame/NAP-FC/NAP_GER_AA_4blocks_noglides/subject-3.csv","xpyriment","Jazzy James","3.1.9","yes","yes","59a800d99ad5a1025d81bb03","59a801616c613b0251691de0","no","no","0","j","f","space","NA","space","space","j","1868","1618","20230","NA","36976","5598","1868","2","legacy","1024","1","44100","-16","experiment","mezal","1","0","0","0","1","english","3","","odd","7700002","7679251","NA","NA","7701621","7699999","NA","7521899","7699540","7544470","7521900","7592767","7629748","7807583","7806079","7809452","7639890","7635617","7679251","NA","7548246","7581237","7677594","7635408","7700001","7635621","NA","7807583","7807583","7775505","7775501","7806075","NAP perception","15","55196","29","yes","1024"
"53.3333333333","yes","53.3333333333","1912.16666667","1912.16666667","white","no","xpyriment","Ich habe die obigen Informationen gelesen und verstanden.","legacy","legacy","0","uniform","1","0","0","undefined","undefined","1","j","2","1","NA","0","1","0","0","0","0","0","0","0","0","39","39","39","0","0","0","NA","0","0","2","0","0","0","2","39","39","39","39","39","Wed Oct  4 15:44:13 2017","Forced-choice identification task with a practice and an experimental phase","yes","NAP_GER_AA_4blocks_noglides.osexp","/Users/aviadalbert/Documents/Academisch/UoC/Dissertation/Experiment/OpenSesame/NAP-FC/NAP_GER_AA_4blocks_noglides","yes","no","sans","no","20","no","black","no","Weiter","yes","768","legacy","29","9","0","/Users/aviadalbert/Documents/Academisch/UoC/Dissertation/Experiment/OpenSesame/NAP-FC/NAP_GER_AA_4blocks_noglides/subject-3.csv","xpyriment","Jazzy James","3.1.9","yes","yes","59a800d99ad5a1025d81bb03","59a801616c613b0251691de0","no","no","0","j","f","space","NA","space","space","j","2169","1618","20230","NA","36976","5598","2169","2","legacy","1024","1","44100","-16","experiment","evzal","1","0","0","0","1","english","3","","odd","7700002","7679251","NA","NA","7701621","7699999","NA","7521899","7699540","7544470","7521900","7592767","7629748","7811241","7809737","7813411","7639890","7635617","7679251","NA","7548246","7581237","7677594","7635408","7700001","7635621","NA","7811240","7811241","7775505","7775501","7809733","NAP perception","16","57365","30","yes","1024"
"54.8387096774","yes","54.8387096774","1914.41935484","1914.41935484","white","no","xpyriment","Ich habe die obigen Informationen gelesen und verstanden.","legacy","legacy","0","uniform","1","0","0","undefined","undefined","1","j","2","1","NA","0","1","0","0","0","0","0","0","0","0","40","40","40","0","0","0","NA","0","0","2","0","0","0","2","40","40","40","40","40","Wed Oct  4 15:44:13 2017","Forced-choice identification task with a practice and an experimental phase","yes","NAP_GER_AA_4blocks_noglides.osexp","/Users/aviadalbert/Documents/Academisch/UoC/Dissertation/Experiment/OpenSesame/NAP-FC/NAP_GER_AA_4blocks_noglides","yes","no","sans","no","20","no","black","no","Weiter","yes","768","legacy","30","9","0","/Users/aviadalbert/Documents/Academisch/UoC/Dissertation/Experiment/OpenSesame/NAP-FC/NAP_GER_AA_4blocks_noglides/subject-3.csv","xpyriment","Jazzy James","3.1.9","yes","yes","59a800d99ad5a1025d81bb03","59a801616c613b0251691de0","no","no","0","j","f","space","NA","space","space","j","1982","1618","20230","NA","36976","5598","1982","2","legacy","1024","1","44100","-16","experiment","ʃemal","1","0","0","0","1","english","3","","odd","7700002","7679251","NA","NA","7701621","7699999","NA","7521899","7699540","7544470","7521900","7592767","7629748","7815209","7813704","7817192","7639890","7635617","7679251","NA","7548246","7581237","7677594","7635408","7700001","7635621","NA","7815208","7815208","7775505","7775501","7813700","NAP perception","17","59347","31","yes","1024"
"56.25","yes","56.25","1916.53125","1916.53125","white","no","xpyriment","Ich habe die obigen Informationen gelesen und verstanden.","legacy","legacy","0","uniform","1","0","0","undefined","undefined","1","f","2","1","NA","0","1","0","0","0","0","0","0","0","0","41","41","41","0","0","0","NA","0","0","2","0","0","0","2","41","41","41","41","41","Wed Oct  4 15:44:13 2017","Forced-choice identification task with a practice and an experimental phase","yes","NAP_GER_AA_4blocks_noglides.osexp","/Users/aviadalbert/Documents/Academisch/UoC/Dissertation/Experiment/OpenSesame/NAP-FC/NAP_GER_AA_4blocks_noglides","yes","no","sans","no","20","no","black","no","Weiter","yes","768","legacy","31","9","0","/Users/aviadalbert/Documents/Academisch/UoC/Dissertation/Experiment/OpenSesame/NAP-FC/NAP_GER_AA_4blocks_noglides/subject-3.csv","xpyriment","Jazzy James","3.1.9","yes","yes","59a800d99ad5a1025d81bb03","59a801616c613b0251691de0","no","no","0","f","f","space","NA","space","space","f","1982","1618","20230","NA","36976","5598","1982","2","legacy","1024","1","44100","-16","experiment","nfal","1","0","0","0","1","english","3","","odd","7700002","7679251","NA","NA","7701621","7699999","NA","7521899","7699540","7544470","7521900","7592767","7629748","7818967","7817461","7820950","7639890","7635617","7679251","NA","7548246","7581237","7677594","7635408","7700001","7635621","NA","7818966","7818967","7775505","7775501","7817456","NAP perception","18","61329","32","yes","1024"
"57.5757575758","yes","57.5757575758","1931.90909091","1931.90909091","white","no","xpyriment","Ich habe die obigen Informationen gelesen und verstanden.","legacy","legacy","0","uniform","1","0","0","undefined","undefined","1","j","2","1","NA","0","1","0","0","0","0","0","0","0","0","42","42","42","0","0","0","NA","0","0","2","0","0","0","2","42","42","42","42","42","Wed Oct  4 15:44:13 2017","Forced-choice identification task with a practice and an experimental phase","yes","NAP_GER_AA_4blocks_noglides.osexp","/Users/aviadalbert/Documents/Academisch/UoC/Dissertation/Experiment/OpenSesame/NAP-FC/NAP_GER_AA_4blocks_noglides","yes","no","sans","no","20","no","black","no","Weiter","yes","768","legacy","32","9","0","/Users/aviadalbert/Documents/Academisch/UoC/Dissertation/Experiment/OpenSesame/NAP-FC/NAP_GER_AA_4blocks_noglides/subject-3.csv","xpyriment","Jazzy James","3.1.9","yes","yes","59a800d99ad5a1025d81bb03","59a801616c613b0251691de0","no","no","0","j","f","space","NA","space","space","j","2424","1618","20230","NA","36976","5598","2424","2","legacy","1024","1","44100","-16","experiment","fenal","1","0","0","0","1","english","3","","odd","7700002","7679251","NA","NA","7701621","7699999","NA","7521899","7699540","7544470","7521900","7592767","7629748","7822730","7821221","7825155","7639890","7635617","7679251","NA","7548246","7581237","7677594","7635408","7700001","7635621","NA","7822729","7822729","7775505","7775501","7821217","NAP perception","19","63753","33","yes","1024"
"58.8235294118","yes","58.8235294118","1939.38235294","1939.38235294","white","no","xpyriment","Ich habe die obigen Informationen gelesen und verstanden.","legacy","legacy","0","uniform","1","0","0","undefined","undefined","1","f","2","1","NA","0","1","0","0","0","0","0","0","0","0","43","43","43","0","0","0","NA","0","0","2","0","0","0","2","43","43","43","43","43","Wed Oct  4 15:44:13 2017","Forced-choice identification task with a practice and an experimental phase","yes","NAP_GER_AA_4blocks_noglides.osexp","/Users/aviadalbert/Documents/Academisch/UoC/Dissertation/Experiment/OpenSesame/NAP-FC/NAP_GER_AA_4blocks_noglides","yes","no","sans","no","20","no","black","no","Weiter","yes","768","legacy","33","9","0","/Users/aviadalbert/Documents/Academisch/UoC/Dissertation/Experiment/OpenSesame/NAP-FC/NAP_GER_AA_4blocks_noglides/subject-3.csv","xpyriment","Jazzy James","3.1.9","yes","yes","59a800d99ad5a1025d81bb03","59a801616c613b0251691de0","no","no","0","f","f","space","NA","space","space","f","2186","1618","20230","NA","36976","5598","2186","2","legacy","1024","1","44100","-16","experiment","ʃpal","1","0","0","0","1","english","3","","odd","7700002","7679251","NA","NA","7701621","7699999","NA","7521899","7699540","7544470","7521900","7592767","7629748","7826946","7825442","7829134","7639890","7635617","7679251","NA","7548246","7581237","7677594","7635408","7700001","7635621","NA","7826945","7826945","7775505","7775501","7825438","NAP perception","20","65939","34","yes","1024"
"57.1428571429","yes","57.1428571429","1954.02857143","1954.02857143","white","no","xpyriment","Ich habe die obigen Informationen gelesen und verstanden.","legacy","legacy","0","uniform","0","0","0","undefined","undefined","0","j","2","1","NA","0","1","0","0","0","0","0","0","0","0","44","44","44","0","0","0","NA","0","0","2","0","0","0","2","44","44","44","44","44","Wed Oct  4 15:44:13 2017","Forced-choice identification task with a practice and an experimental phase","yes","NAP_GER_AA_4blocks_noglides.osexp","/Users/aviadalbert/Documents/Academisch/UoC/Dissertation/Experiment/OpenSesame/NAP-FC/NAP_GER_AA_4blocks_noglides","yes","no","sans","no","20","no","black","no","Weiter","yes","768","legacy","34","9","0","/Users/aviadalbert/Documents/Academisch/UoC/Dissertation/Experiment/OpenSesame/NAP-FC/NAP_GER_AA_4blocks_noglides/subject-3.csv","xpyriment","Jazzy James","3.1.9","yes","yes","59a800d99ad5a1025d81bb03","59a801616c613b0251691de0","no","no","0","f","f","space","NA","space","space","f","2452","1618","20230","NA","36976","5598","2452","2","legacy","1024","1","44100","-16","experiment","ʃefal","1","0","0","0","1","english","3","","odd","7700002","7679251","NA","NA","7701621","7699999","NA","7521899","7699540","7544470","7521900","7592767","7629748","7830925","7829420","7833379","7639890","7635617","7679251","NA","7548246","7581237","7677594","7635408","7700001","7635621","NA","7830925","7830925","7775505","7775501","7829415","NAP perception","20","68391","35","yes","1024"
"58.3333333333","yes","58.3333333333","1966.25","1966.25","white","no","xpyriment","Ich habe die obigen Informationen gelesen und verstanden.","legacy","legacy","0","uniform","1","0","0","undefined","undefined","1","f","2","1","NA","0","1","0","0","0","0","0","0","0","0","45","45","45","0","0","0","NA","0","0","2","0","0","0","2","45","45","45","45","45","Wed Oct  4 15:44:13 2017","Forced-choice identification task with a practice and an experimental phase","yes","NAP_GER_AA_4blocks_noglides.osexp","/Users/aviadalbert/Documents/Academisch/UoC/Dissertation/Experiment/OpenSesame/NAP-FC/NAP_GER_AA_4blocks_noglides","yes","no","sans","no","20","no","black","no","Weiter","yes","768","legacy","35","9","0","/Users/aviadalbert/Documents/Academisch/UoC/Dissertation/Experiment/OpenSesame/NAP-FC/NAP_GER_AA_4blocks_noglides/subject-3.csv","xpyriment","Jazzy James","3.1.9","yes","yes","59a800d99ad5a1025d81bb03","59a801616c613b0251691de0","no","no","0","f","f","space","NA","space","space","f","2394","1618","20230","NA","36976","5598","2394","2","legacy","1024","1","44100","-16","experiment","mnal","1","0","0","0","1","english","3","","odd","7700002","7679251","NA","NA","7701621","7699999","NA","7521899","7699540","7544470","7521900","7592767","7629748","7835161","7833657","7837557","7639890","7635617","7679251","NA","7548246","7581237","7677594","7635408","7700001","7635621","NA","7835161","7835161","7775505","7775501","7833652","NAP perception","21","70785","36","yes","1024"
"59.4594594595","yes","59.4594594595","1971.78378378","1971.78378378","white","no","xpyriment","Ich habe die obigen Informationen gelesen und verstanden.","legacy","legacy","0","uniform","1","0","0","undefined","undefined","1","f","2","1","NA","0","1","0","0","0","0","0","0","0","0","46","46","46","0","0","0","NA","0","0","2","0","0","0","2","46","46","46","46","46","Wed Oct  4 15:44:13 2017","Forced-choice identification task with a practice and an experimental phase","yes","NAP_GER_AA_4blocks_noglides.osexp","/Users/aviadalbert/Documents/Academisch/UoC/Dissertation/Experiment/OpenSesame/NAP-FC/NAP_GER_AA_4blocks_noglides","yes","no","sans","no","20","no","black","no","Weiter","yes","768","legacy","36","9","0","/Users/aviadalbert/Documents/Academisch/UoC/Dissertation/Experiment/OpenSesame/NAP-FC/NAP_GER_AA_4blocks_noglides/subject-3.csv","xpyriment","Jazzy James","3.1.9","yes","yes","59a800d99ad5a1025d81bb03","59a801616c613b0251691de0","no","no","0","f","f","space","NA","space","space","f","2171","1618","20230","NA","36976","5598","2171","2","legacy","1024","1","44100","-16","experiment","zmal","1","0","0","0","1","english","3","","odd","7700002","7679251","NA","NA","7701621","7699999","NA","7521899","7699540","7544470","7521900","7592767","7629748","7839342","7837835","7841515","7639890","7635617","7679251","NA","7548246","7581237","7677594","7635408","7700001","7635621","NA","7839342","7839342","7775505","7775501","7837831","NAP perception","22","72956","37","yes","1024"
"60.5263157895","yes","60.5263157895","1997.47368421","1997.47368421","white","no","xpyriment","Ich habe die obigen Informationen gelesen und verstanden.","legacy","legacy","0","uniform","1","0","0","undefined","undefined","1","j","2","1","NA","0","1","0","0","0","0","0","0","0","0","47","47","47","0","0","0","NA","0","0","2","0","0","0","2","47","47","47","47","47","Wed Oct  4 15:44:13 2017","Forced-choice identification task with a practice and an experimental phase","yes","NAP_GER_AA_4blocks_noglides.osexp","/Users/aviadalbert/Documents/Academisch/UoC/Dissertation/Experiment/OpenSesame/NAP-FC/NAP_GER_AA_4blocks_noglides","yes","no","sans","no","20","no","black","no","Weiter","yes","768","legacy","37","9","0","/Users/aviadalbert/Documents/Academisch/UoC/Dissertation/Experiment/OpenSesame/NAP-FC/NAP_GER_AA_4blocks_noglides/subject-3.csv","xpyriment","Jazzy James","3.1.9","yes","yes","59a800d99ad5a1025d81bb03","59a801616c613b0251691de0","no","no","0","j","f","space","NA","space","space","j","2948","1618","20230","NA","36976","5598","2948","2","legacy","1024","1","44100","-16","experiment","fetal","1","0","0","0","1","english","3","","odd","7700002","7679251","NA","NA","7701621","7699999","NA","7521899","7699540","7544470","7521900","7592767","7629748","7843292","7841787","7846241","7639890","7635617","7679251","NA","7548246","7581237","7677594","7635408","7700001","7635621","NA","7843292","7843292","7775505","7775501","7841783","NAP perception","23","75904","38","yes","1024"
"61.5384615385","yes","61.5384615385","2005.25641026","2005.25641026","white","no","xpyriment","Ich habe die obigen Informationen gelesen und verstanden.","legacy","legacy","0","uniform","1","0","0","undefined","undefined","1","f","2","1","NA","0","1","0","0","0","0","0","0","0","0","48","48","48","0","0","0","NA","0","0","2","0","0","0","2","48","48","48","48","48","Wed Oct  4 15:44:13 2017","Forced-choice identification task with a practice and an experimental phase","yes","NAP_GER_AA_4blocks_noglides.osexp","/Users/aviadalbert/Documents/Academisch/UoC/Dissertation/Experiment/OpenSesame/NAP-FC/NAP_GER_AA_4blocks_noglides","yes","no","sans","no","20","no","black","no","Weiter","yes","768","legacy","38","9","0","/Users/aviadalbert/Documents/Academisch/UoC/Dissertation/Experiment/OpenSesame/NAP-FC/NAP_GER_AA_4blocks_noglides/subject-3.csv","xpyriment","Jazzy James","3.1.9","yes","yes","59a800d99ad5a1025d81bb03","59a801616c613b0251691de0","no","no","0","f","f","space","NA","space","space","f","2301","1618","20230","NA","36976","5598","2301","2","legacy","1024","1","44100","-16","experiment","vzal","1","0","0","0","1","english","3","","odd","7700002","7679251","NA","NA","7701621","7699999","NA","7521899","7699540","7544470","7521900","7592767","7629748","7848028","7846524","7850331","7639890","7635617","7679251","NA","7548246","7581237","7677594","7635408","7700001","7635621","NA","7848027","7848027","7775505","7775501","7846520","NAP perception","24","78205","39","yes","1024"
"62.5","yes","62.5","1996.525","1996.525","white","no","xpyriment","Ich habe die obigen Informationen gelesen und verstanden.","legacy","legacy","0","uniform","1","0","0","undefined","undefined","1","j","2","1","NA","0","1","0","0","0","0","0","0","0","0","49","49","49","0","0","0","NA","0","0","2","0","0","0","2","49","49","49","49","49","Wed Oct  4 15:44:13 2017","Forced-choice identification task with a practice and an experimental phase","yes","NAP_GER_AA_4blocks_noglides.osexp","/Users/aviadalbert/Documents/Academisch/UoC/Dissertation/Experiment/OpenSesame/NAP-FC/NAP_GER_AA_4blocks_noglides","yes","no","sans","no","20","no","black","no","Weiter","yes","768","legacy","39","9","0","/Users/aviadalbert/Documents/Academisch/UoC/Dissertation/Experiment/OpenSesame/NAP-FC/NAP_GER_AA_4blocks_noglides/subject-3.csv","xpyriment","Jazzy James","3.1.9","yes","yes","59a800d99ad5a1025d81bb03","59a801616c613b0251691de0","no","no","0","j","f","space","NA","space","space","j","1656","1618","20230","NA","36976","5598","1656","2","legacy","1024","1","44100","-16","experiment","espal","1","0","0","0","1","english","3","","odd","7700002","7679251","NA","NA","7701621","7699999","NA","7521899","7699540","7544470","7521900","7592767","7629748","7852103","7850599","7853760","7639890","7635617","7679251","NA","7548246","7581237","7677594","7635408","7700001","7635621","NA","7852102","7852102","7775505","7775501","7850595","NAP perception","25","79861","40","yes","1024"
"63.4146341463","yes","63.4146341463","1990.29268293","1990.29268293","white","no","xpyriment","Ich habe die obigen Informationen gelesen und verstanden.","legacy","legacy","0","uniform","1","0","0","undefined","undefined","1","j","2","1","NA","0","1","0","0","0","0","0","0","0","0","50","50","50","0","0","0","NA","0","0","2","0","0","0","2","50","50","50","50","50","Wed Oct  4 15:44:13 2017","Forced-choice identification task with a practice and an experimental phase","yes","NAP_GER_AA_4blocks_noglides.osexp","/Users/aviadalbert/Documents/Academisch/UoC/Dissertation/Experiment/OpenSesame/NAP-FC/NAP_GER_AA_4blocks_noglides","yes","no","sans","no","20","no","black","no","Weiter","yes","768","legacy","40","9","0","/Users/aviadalbert/Documents/Academisch/UoC/Dissertation/Experiment/OpenSesame/NAP-FC/NAP_GER_AA_4blocks_noglides/subject-3.csv","xpyriment","Jazzy James","3.1.9","yes","yes","59a800d99ad5a1025d81bb03","59a801616c613b0251691de0","no","no","0","j","f","space","NA","space","space","j","1741","1618","20230","NA","36976","5598","1741","2","legacy","1024","1","44100","-16","experiment","esmal","1","0","0","0","1","english","3","","odd","7700002","7679251","NA","NA","7701621","7699999","NA","7521899","7699540","7544470","7521900","7592767","7629748","7855550","7854042","7857293","7639890","7635617","7679251","NA","7548246","7581237","7677594","7635408","7700001","7635621","NA","7855549","7855550","7775505","7775501","7854038","NAP perception","26","81602","41","yes","1024"
"64.2857142857","yes","64.2857142857","1967.38095238","1967.38095238","white","no","xpyriment","Ich habe die obigen Informationen gelesen und verstanden.","legacy","legacy","0","uniform","1","0","0","undefined","undefined","1","f","2","1","NA","0","1","0","0","0","0","0","0","0","0","51","51","51","0","0","0","NA","0","0","2","0","0","0","2","51","51","51","51","51","Wed Oct  4 15:44:13 2017","Forced-choice identification task with a practice and an experimental phase","yes","NAP_GER_AA_4blocks_noglides.osexp","/Users/aviadalbert/Documents/Academisch/UoC/Dissertation/Experiment/OpenSesame/NAP-FC/NAP_GER_AA_4blocks_noglides","yes","no","sans","no","20","no","black","no","Weiter","yes","768","legacy","41","9","0","/Users/aviadalbert/Documents/Academisch/UoC/Dissertation/Experiment/OpenSesame/NAP-FC/NAP_GER_AA_4blocks_noglides/subject-3.csv","xpyriment","Jazzy James","3.1.9","yes","yes","59a800d99ad5a1025d81bb03","59a801616c613b0251691de0","no","no","0","f","f","space","NA","space","space","f","1028","1618","20230","NA","36976","5598","1028","2","legacy","1024","1","44100","-16","experiment","sfal","1","0","0","0","1","english","3","","odd","7700002","7679251","NA","NA","7701621","7699999","NA","7521899","7699540","7544470","7521900","7592767","7629748","7859082","7857578","7860112","7639890","7635617","7679251","NA","7548246","7581237","7677594","7635408","7700001","7635621","NA","7859082","7859082","7775505","7775501","7857574","NAP perception","27","82630","42","yes","1024"
"62.7906976744","yes","62.7906976744","1963.86046512","1963.86046512","white","no","xpyriment","Ich habe die obigen Informationen gelesen und verstanden.","legacy","legacy","0","uniform","0","0","0","undefined","undefined","0","f","2","1","NA","0","1","0","0","0","0","0","0","0","0","52","52","52","0","0","0","NA","0","0","2","0","0","0","2","52","52","52","52","52","Wed Oct  4 15:44:13 2017","Forced-choice identification task with a practice and an experimental phase","yes","NAP_GER_AA_4blocks_noglides.osexp","/Users/aviadalbert/Documents/Academisch/UoC/Dissertation/Experiment/OpenSesame/NAP-FC/NAP_GER_AA_4blocks_noglides","yes","no","sans","no","20","no","black","no","Weiter","yes","768","legacy","42","9","0","/Users/aviadalbert/Documents/Academisch/UoC/Dissertation/Experiment/OpenSesame/NAP-FC/NAP_GER_AA_4blocks_noglides/subject-3.csv","xpyriment","Jazzy James","3.1.9","yes","yes","59a800d99ad5a1025d81bb03","59a801616c613b0251691de0","no","no","0","j","f","space","NA","space","space","j","1816","1618","20230","NA","36976","5598","1816","2","legacy","1024","1","44100","-16","experiment","zval","1","0","0","0","1","english","3","","odd","7700002","7679251","NA","NA","7701621","7699999","NA","7521899","7699540","7544470","7521900","7592767","7629748","7861903","7860398","7863720","7639890","7635617","7679251","NA","7548246","7581237","7677594","7635408","7700001","7635621","NA","7861902","7861902","7775505","7775501","7860394","NAP perception","27","84446","43","yes","1024"
"63.6363636364","yes","63.6363636364","1972.79545455","1972.79545455","white","no","xpyriment","Ich habe die obigen Informationen gelesen und verstanden.","legacy","legacy","0","uniform","1","0","0","undefined","undefined","1","f","2","1","NA","0","1","0","0","0","0","0","0","0","0","53","53","53","0","0","0","NA","0","0","2","0","0","0","2","53","53","53","53","53","Wed Oct  4 15:44:13 2017","Forced-choice identification task with a practice and an experimental phase","yes","NAP_GER_AA_4blocks_noglides.osexp","/Users/aviadalbert/Documents/Academisch/UoC/Dissertation/Experiment/OpenSesame/NAP-FC/NAP_GER_AA_4blocks_noglides","yes","no","sans","no","20","no","black","no","Weiter","yes","768","legacy","43","9","0","/Users/aviadalbert/Documents/Academisch/UoC/Dissertation/Experiment/OpenSesame/NAP-FC/NAP_GER_AA_4blocks_noglides/subject-3.csv","xpyriment","Jazzy James","3.1.9","yes","yes","59a800d99ad5a1025d81bb03","59a801616c613b0251691de0","no","no","0","f","f","space","NA","space","space","f","2357","1618","20230","NA","36976","5598","2357","2","legacy","1024","1","44100","-16","experiment","lmal","1","0","0","0","1","english","3","","odd","7700002","7679251","NA","NA","7701621","7699999","NA","7521899","7699540","7544470","7521900","7592767","7629748","7865490","7863986","7867849","7639890","7635617","7679251","NA","7548246","7581237","7677594","7635408","7700001","7635621","NA","7865489","7865489","7775505","7775501","7863982","NAP perception","28","86803","44","yes","1024"
"62.2222222222","yes","62.2222222222","1974.24444444","1974.24444444","white","no","xpyriment","Ich habe die obigen Informationen gelesen und verstanden.","legacy","legacy","0","uniform","0","0","0","undefined","undefined","0","f","2","1","NA","0","1","0","0","0","0","0","0","0","0","54","54","54","0","0","0","NA","0","0","2","0","0","0","2","54","54","54","54","54","Wed Oct  4 15:44:13 2017","Forced-choice identification task with a practice and an experimental phase","yes","NAP_GER_AA_4blocks_noglides.osexp","/Users/aviadalbert/Documents/Academisch/UoC/Dissertation/Experiment/OpenSesame/NAP-FC/NAP_GER_AA_4blocks_noglides","yes","no","sans","no","20","no","black","no","Weiter","yes","768","legacy","44","9","0","/Users/aviadalbert/Documents/Academisch/UoC/Dissertation/Experiment/OpenSesame/NAP-FC/NAP_GER_AA_4blocks_noglides/subject-3.csv","xpyriment","Jazzy James","3.1.9","yes","yes","59a800d99ad5a1025d81bb03","59a801616c613b0251691de0","no","no","0","j","f","space","NA","space","space","j","2038","1618","20230","NA","36976","5598","2038","2","legacy","1024","1","44100","-16","experiment","flal","1","0","0","0","1","english","3","","odd","7700002","7679251","NA","NA","7701621","7699999","NA","7521899","7699540","7544470","7521900","7592767","7629748","7869645","7868137","7871685","7639890","7635617","7679251","NA","7548246","7581237","7677594","7635408","7700001","7635621","NA","7869645","7869645","7775505","7775501","7868133","NAP perception","28","88841","45","yes","1024"
"63.0434782609","yes","63.0434782609","1970.08695652","1970.08695652","white","no","xpyriment","Ich habe die obigen Informationen gelesen und verstanden.","legacy","legacy","0","uniform","1","0","0","undefined","undefined","1","f","2","1","NA","0","1","0","0","0","0","0","0","0","0","55","55","55","0","0","0","NA","0","0","2","0","0","0","2","55","55","55","55","55","Wed Oct  4 15:44:13 2017","Forced-choice identification task with a practice and an experimental phase","yes","NAP_GER_AA_4blocks_noglides.osexp","/Users/aviadalbert/Documents/Academisch/UoC/Dissertation/Experiment/OpenSesame/NAP-FC/NAP_GER_AA_4blocks_noglides","yes","no","sans","no","20","no","black","no","Weiter","yes","768","legacy","45","9","0","/Users/aviadalbert/Documents/Academisch/UoC/Dissertation/Experiment/OpenSesame/NAP-FC/NAP_GER_AA_4blocks_noglides/subject-3.csv","xpyriment","Jazzy James","3.1.9","yes","yes","59a800d99ad5a1025d81bb03","59a801616c613b0251691de0","no","no","0","f","f","space","NA","space","space","f","1783","1618","20230","NA","36976","5598","1783","2","legacy","1024","1","44100","-16","experiment","smal","1","0","0","0","1","english","3","","odd","7700002","7679251","NA","NA","7701621","7699999","NA","7521899","7699540","7544470","7521900","7592767","7629748","7873459","7871955","7875244","7639890","7635617","7679251","NA","7548246","7581237","7677594","7635408","7700001","7635621","NA","7873459","7873459","7775505","7775501","7871951","NAP perception","29","90624","46","yes","1024"
"61.7021276596","yes","61.7021276596","1983.89361702","1983.89361702","white","no","xpyriment","Ich habe die obigen Informationen gelesen und verstanden.","legacy","legacy","0","uniform","0","0","0","undefined","undefined","0","f","2","1","NA","0","1","0","0","0","0","0","0","0","0","56","56","56","0","0","0","NA","0","0","2","0","0","0","2","56","56","56","56","56","Wed Oct  4 15:44:13 2017","Forced-choice identification task with a practice and an experimental phase","yes","NAP_GER_AA_4blocks_noglides.osexp","/Users/aviadalbert/Documents/Academisch/UoC/Dissertation/Experiment/OpenSesame/NAP-FC/NAP_GER_AA_4blocks_noglides","yes","no","sans","no","20","no","black","no","Weiter","yes","768","legacy","46","9","0","/Users/aviadalbert/Documents/Academisch/UoC/Dissertation/Experiment/OpenSesame/NAP-FC/NAP_GER_AA_4blocks_noglides/subject-3.csv","xpyriment","Jazzy James","3.1.9","yes","yes","59a800d99ad5a1025d81bb03","59a801616c613b0251691de0","no","no","0","j","f","space","NA","space","space","j","2619","1618","20230","NA","36976","5598","2619","2","legacy","1024","1","44100","-16","experiment","nval","1","0","0","0","1","english","3","","odd","7700002","7679251","NA","NA","7701621","7699999","NA","7521899","7699540","7544470","7521900","7592767","7629748","7877023","7875519","7879644","7639890","7635617","7679251","NA","7548246","7581237","7677594","7635408","7700001","7635621","NA","7877022","7877023","7775505","7775501","7875515","NAP perception","29","93243","47","yes","1024"
"60.4166666667","yes","60.4166666667","2005.0625","2005.0625","white","no","xpyriment","Ich habe die obigen Informationen gelesen und verstanden.","legacy","legacy","0","uniform","0","0","0","undefined","undefined","0","j","2","1","NA","0","1","0","0","0","0","0","0","0","0","57","57","57","0","0","0","NA","0","0","2","0","0","0","2","57","57","57","57","57","Wed Oct  4 15:44:13 2017","Forced-choice identification task with a practice and an experimental phase","yes","NAP_GER_AA_4blocks_noglides.osexp","/Users/aviadalbert/Documents/Academisch/UoC/Dissertation/Experiment/OpenSesame/NAP-FC/NAP_GER_AA_4blocks_noglides","yes","no","sans","no","20","no","black","no","Weiter","yes","768","legacy","47","9","0","/Users/aviadalbert/Documents/Academisch/UoC/Dissertation/Experiment/OpenSesame/NAP-FC/NAP_GER_AA_4blocks_noglides/subject-3.csv","xpyriment","Jazzy James","3.1.9","yes","yes","59a800d99ad5a1025d81bb03","59a801616c613b0251691de0","no","no","0","None","f","space","NA","space","space","None","3000","1618","20230","NA","36976","5598","3000","2","legacy","1024","1","44100","-16","experiment","lepal","1","0","0","0","1","english","3","","odd","7700002","7679251","NA","NA","7701621","7699999","NA","7521899","7699540","7544470","7521900","7592767","7629748","7881424","7879919","7885428","7639890","7635617","7679251","NA","7548246","7581237","7677594","7635408","7700001","7635621","NA","7881424","7881424","7884428","7884424","7879915","NAP perception","29","96243","48","yes","1024"
"61.2244897959","yes","61.2244897959","1994.73469388","1994.73469388","white","no","xpyriment","Ich habe die obigen Informationen gelesen und verstanden.","legacy","legacy","0","uniform","1","0","0","undefined","undefined","1","f","2","1","NA","0","1","0","0","0","0","0","0","0","0","58","58","58","0","0","0","NA","0","0","2","0","0","0","2","58","58","58","58","58","Wed Oct  4 15:44:13 2017","Forced-choice identification task with a practice and an experimental phase","yes","NAP_GER_AA_4blocks_noglides.osexp","/Users/aviadalbert/Documents/Academisch/UoC/Dissertation/Experiment/OpenSesame/NAP-FC/NAP_GER_AA_4blocks_noglides","yes","no","sans","no","20","no","black","no","Weiter","yes","768","legacy","48","9","0","/Users/aviadalbert/Documents/Academisch/UoC/Dissertation/Experiment/OpenSesame/NAP-FC/NAP_GER_AA_4blocks_noglides/subject-3.csv","xpyriment","Jazzy James","3.1.9","yes","yes","59a800d99ad5a1025d81bb03","59a801616c613b0251691de0","no","no","0","f","f","space","NA","space","space","f","1499","1618","20230","NA","36976","5598","1499","2","legacy","1024","1","44100","-16","experiment","nval","1","0","0","0","1","english","3","","odd","7700002","7679251","NA","NA","7701621","7699999","NA","7521899","7699540","7544470","7521900","7592767","7629748","7887211","7885706","7888712","7639890","7635617","7679251","NA","7548246","7581237","7677594","7635408","7700001","7635621","NA","7887210","7887210","7884428","7884424","7885701","NAP perception","30","97742","49","yes","1024"
"62","yes","62","1984.38","1984.38","white","no","xpyriment","Ich habe die obigen Informationen gelesen und verstanden.","legacy","legacy","0","uniform","1","0","0","undefined","undefined","1","f","2","1","NA","0","1","0","0","0","0","0","0","0","0","59","59","59","0","0","0","NA","0","0","2","0","0","0","2","59","59","59","59","59","Wed Oct  4 15:44:13 2017","Forced-choice identification task with a practice and an experimental phase","yes","NAP_GER_AA_4blocks_noglides.osexp","/Users/aviadalbert/Documents/Academisch/UoC/Dissertation/Experiment/OpenSesame/NAP-FC/NAP_GER_AA_4blocks_noglides","yes","no","sans","no","20","no","black","no","Weiter","yes","768","legacy","49","9","0","/Users/aviadalbert/Documents/Academisch/UoC/Dissertation/Experiment/OpenSesame/NAP-FC/NAP_GER_AA_4blocks_noglides/subject-3.csv","xpyriment","Jazzy James","3.1.9","yes","yes","59a800d99ad5a1025d81bb03","59a801616c613b0251691de0","no","no","0","f","f","space","NA","space","space","f","1477","1618","20230","NA","36976","5598","1477","2","legacy","1024","1","44100","-16","experiment","ftal","1","0","0","0","1","english","3","","odd","7700002","7679251","NA","NA","7701621","7699999","NA","7521899","7699540","7544470","7521900","7592767","7629748","7890480","7888974","7891959","7639890","7635617","7679251","NA","7548246","7581237","7677594","7635408","7700001","7635621","NA","7890479","7890479","7884428","7884424","7888970","NAP perception","31","99219","50","yes","1024"
"60.7843137255","yes","60.7843137255","2001.19607843","2001.19607843","white","no","xpyriment","Ich habe die obigen Informationen gelesen und verstanden.","legacy","legacy","0","uniform","0","0","0","undefined","undefined","0","j","2","1","NA","0","1","0","0","0","0","0","0","0","0","60","60","60","0","0","0","NA","0","0","2","0","0","0","2","60","60","60","60","60","Wed Oct  4 15:44:13 2017","Forced-choice identification task with a practice and an experimental phase","yes","NAP_GER_AA_4blocks_noglides.osexp","/Users/aviadalbert/Documents/Academisch/UoC/Dissertation/Experiment/OpenSesame/NAP-FC/NAP_GER_AA_4blocks_noglides","yes","no","sans","no","20","no","black","no","Weiter","yes","768","legacy","50","9","0","/Users/aviadalbert/Documents/Academisch/UoC/Dissertation/Experiment/OpenSesame/NAP-FC/NAP_GER_AA_4blocks_noglides/subject-3.csv","xpyriment","Jazzy James","3.1.9","yes","yes","59a800d99ad5a1025d81bb03","59a801616c613b0251691de0","no","no","0","f","f","space","NA","space","space","f","2842","1618","20230","NA","36976","5598","2842","2","legacy","1024","1","44100","-16","experiment","lemal","1","0","0","0","1","english","3","","odd","7700002","7679251","NA","NA","7701621","7699999","NA","7521899","7699540","7544470","7521900","7592767","7629748","7893732","7892224","7896575","7639890","7635617","7679251","NA","7548246","7581237","7677594","7635408","7700001","7635621","NA","7893731","7893732","7884428","7884424","7892219","NAP perception","31","102061","51","yes","1024"
"61.5384615385","yes","61.5384615385","2000.86538462","2000.86538462","white","no","xpyriment","Ich habe die obigen Informationen gelesen und verstanden.","legacy","legacy","0","uniform","1","0","0","undefined","undefined","1","j","2","1","NA","0","1","0","0","0","0","0","0","0","0","61","61","61","0","0","0","NA","0","0","2","0","0","0","2","61","61","61","61","61","Wed Oct  4 15:44:13 2017","Forced-choice identification task with a practice and an experimental phase","yes","NAP_GER_AA_4blocks_noglides.osexp","/Users/aviadalbert/Documents/Academisch/UoC/Dissertation/Experiment/OpenSesame/NAP-FC/NAP_GER_AA_4blocks_noglides","yes","no","sans","no","20","no","black","no","Weiter","yes","768","legacy","51","9","0","/Users/aviadalbert/Documents/Academisch/UoC/Dissertation/Experiment/OpenSesame/NAP-FC/NAP_GER_AA_4blocks_noglides/subject-3.csv","xpyriment","Jazzy James","3.1.9","yes","yes","59a800d99ad5a1025d81bb03","59a801616c613b0251691de0","no","no","0","j","f","space","NA","space","space","j","1984","1618","20230","NA","36976","5598","1984","2","legacy","1024","1","44100","-16","experiment","esfal","1","0","0","0","1","english","3","","odd","7700002","7679251","NA","NA","7701621","7699999","NA","7521899","7699540","7544470","7521900","7592767","7629748","7898361","7896857","7900347","7639890","7635617","7679251","NA","7548246","7581237","7677594","7635408","7700001","7635621","NA","7898361","7898361","7884428","7884424","7896852","NAP perception","32","104045","52","yes","1024"
"62.2641509434","yes","62.2641509434","2002.01886792","2002.01886792","white","no","xpyriment","Ich habe die obigen Informationen gelesen und verstanden.","legacy","legacy","0","uniform","1","0","0","undefined","undefined","1","f","2","1","NA","0","1","0","0","0","0","0","0","0","0","62","62","62","0","0","0","NA","0","0","2","0","0","0","2","62","62","62","62","62","Wed Oct  4 15:44:13 2017","Forced-choice identification task with a practice and an experimental phase","yes","NAP_GER_AA_4blocks_noglides.osexp","/Users/aviadalbert/Documents/Academisch/UoC/Dissertation/Experiment/OpenSesame/NAP-FC/NAP_GER_AA_4blocks_noglides","yes","no","sans","no","20","no","black","no","Weiter","yes","768","legacy","52","9","0","/Users/aviadalbert/Documents/Academisch/UoC/Dissertation/Experiment/OpenSesame/NAP-FC/NAP_GER_AA_4blocks_noglides/subject-3.csv","xpyriment","Jazzy James","3.1.9","yes","yes","59a800d99ad5a1025d81bb03","59a801616c613b0251691de0","no","no","0","f","f","space","NA","space","space","f","2062","1618","20230","NA","36976","5598","2062","2","legacy","1024","1","44100","-16","experiment","fnal","1","0","0","0","1","english","3","","odd","7700002","7679251","NA","NA","7701621","7699999","NA","7521899","7699540","7544470","7521900","7592767","7629748","7902134","7900630","7904198","7639890","7635617","7679251","NA","7548246","7581237","7677594","7635408","7700001","7635621","NA","7902133","7902134","7884428","7884424","7900626","NAP perception","33","106107","53","yes","1024"
"61.1111111111","yes","61.1111111111","2008.09259259","2008.09259259","white","no","xpyriment","Ich habe die obigen Informationen gelesen und verstanden.","legacy","legacy","0","uniform","0","0","0","undefined","undefined","0","j","2","1","NA","0","1","0","0","0","0","0","0","0","0","63","63","63","0","0","0","NA","0","0","2","0","0","0","2","63","63","63","63","63","Wed Oct  4 15:44:13 2017","Forced-choice identification task with a practice and an experimental phase","yes","NAP_GER_AA_4blocks_noglides.osexp","/Users/aviadalbert/Documents/Academisch/UoC/Dissertation/Experiment/OpenSesame/NAP-FC/NAP_GER_AA_4blocks_noglides","yes","no","sans","no","20","no","black","no","Weiter","yes","768","legacy","53","9","0","/Users/aviadalbert/Documents/Academisch/UoC/Dissertation/Experiment/OpenSesame/NAP-FC/NAP_GER_AA_4blocks_noglides/subject-3.csv","xpyriment","Jazzy James","3.1.9","yes","yes","59a800d99ad5a1025d81bb03","59a801616c613b0251691de0","no","no","0","f","f","space","NA","space","space","f","2330","1618","20230","NA","36976","5598","2330","2","legacy","1024","1","44100","-16","experiment","emlal","1","0","0","0","1","english","3","","odd","7700002","7679251","NA","NA","7701621","7699999","NA","7521899","7699540","7544470","7521900","7592767","7629748","7905976","7904472","7908308","7639890","7635617","7679251","NA","7548246","7581237","7677594","7635408","7700001","7635621","NA","7905975","7905975","7884428","7884424","7904468","NAP perception","33","108437","54","yes","1024"
"61.8181818182","yes","61.8181818182","2015.21818182","2015.21818182","white","no","xpyriment","Ich habe die obigen Informationen gelesen und verstanden.","legacy","legacy","0","uniform","1","0","0","undefined","undefined","1","j","2","1","NA","0","1","0","0","0","0","0","0","0","0","64","64","64","0","0","0","NA","0","0","2","0","0","0","2","64","64","64","64","64","Wed Oct  4 15:44:13 2017","Forced-choice identification task with a practice and an experimental phase","yes","NAP_GER_AA_4blocks_noglides.osexp","/Users/aviadalbert/Documents/Academisch/UoC/Dissertation/Experiment/OpenSesame/NAP-FC/NAP_GER_AA_4blocks_noglides","yes","no","sans","no","20","no","black","no","Weiter","yes","768","legacy","54","9","0","/Users/aviadalbert/Documents/Academisch/UoC/Dissertation/Experiment/OpenSesame/NAP-FC/NAP_GER_AA_4blocks_noglides/subject-3.csv","xpyriment","Jazzy James","3.1.9","yes","yes","59a800d99ad5a1025d81bb03","59a801616c613b0251691de0","no","no","0","j","f","space","NA","space","space","j","2400","1618","20230","NA","36976","5598","2400","2","legacy","1024","1","44100","-16","experiment","mesal","1","0","0","0","1","english","3","","odd","7700002","7679251","NA","NA","7701621","7699999","NA","7521899","7699540","7544470","7521900","7592767","7629748","7910090","7908586","7912492","7639890","7635617","7679251","NA","7548246","7581237","7677594","7635408","7700001","7635621","NA","7910089","7910089","7884428","7884424","7908581","NAP perception","34","110837","55","yes","1024"
