"acc","accept_status","accuracy","average_response_time","avg_rt","background","bidi","canvas_backend","checkbox_status","clock_backend","color_backend","compensation","coordinates","correct","correct_block_activation","correct_block_exit","correct_instructions_1","correct_instructions_2","correct_keyboard_response","correct_response","count_block_activation","count_block_exit","count_block_info_QA","count_cont_e_block_message","count_e_block_loop","count_e_block_sequence","count_end_of_experiment","count_experiment","count_experimental_loop","count_form_consent","count_info_forms","count_instructions_1","count_instructions_2","count_keyboard_response","count_listen_message","count_logger","count_p_block_loop","count_p_block_sequence","count_p_feedback","count_pause_feedback","count_personal_details_form_1","count_personal_details_form_2","count_post_loop_blank","count_practice_loop","count_pre_e_block_message","count_pre_p_block_message","count_reset_feedback","count_stimulus_image","count_stimulus_sound","count_timeout_message","count_timeout_sound","count_trial_sequence","datetime","description","disable_garbage_collection","experiment_file","experiment_path","expyriment_opengl","font_bold","font_family","font_italic","font_size","font_underline","foreground","form_clicks","form_response","fullscreen","height","keyboard_backend","live_row","live_row_p_block_loop","live_row_practice_loop","logfile","mouse_backend","opensesame_codename","opensesame_version","osf_always_upload_data","osf_always_upload_experiment","osf_datanode_id","osf_id","practice","pygame_doublebuf","repeat_cycle","response","response_block_activation","response_block_exit","response_block_info_QA","response_instructions_1","response_instructions_2","response_keyboard_response","response_time","response_time_block_activation","response_time_block_exit","response_time_block_info_QA","response_time_instructions_1","response_time_instructions_2","response_time_keyboard_response","round_decimals","sampler_backend","sound_buf_size","sound_channels","sound_freq","sound_sample_size","start","stimulus","subject_age","subject_education","subject_gender","subject_german_native","subject_handedness","subject_language_other","subject_nr","subject_other_native_lang","subject_parity","time_block_activation","time_block_exit","time_block_info_QA","time_cont_e_block_message","time_e_block_loop","time_e_block_sequence","time_end_of_experiment","time_experiment","time_experimental_loop","time_form_consent","time_info_forms","time_instructions_1","time_instructions_2","time_keyboard_response","time_listen_message","time_logger","time_p_block_loop","time_p_block_sequence","time_p_feedback","time_pause_feedback","time_personal_details_form_1","time_personal_details_form_2","time_post_loop_blank","time_practice_loop","time_pre_e_block_message","time_pre_p_block_message","time_reset_feedback","time_stimulus_image","time_stimulus_sound","time_timeout_message","time_timeout_sound","time_trial_sequence","title","total_correct","total_response_time","total_responses","uniform_coordinates","width"
"100","yes","100","983","983","white","no","xpyriment","Ich habe die obigen Informationen gelesen und verstanden.","legacy","legacy","0","uniform","1","0","NA","undefined","undefined","1","f","0","0","NA","NA","NA","NA","NA","0","0","0","0","0","0","0","0","0","0","0","NA","NA","0","0","0","0","NA","0","0","0","0","0","0","0","Thu Oct 26 13:16:34 2017","Forced-choice identification task with a practice and an experimental phase","yes","NAP_GER_AA_4blocks_noglides.osexp","/Users/aviadalbert/Documents/Academisch/UoC/Dissertation/Experiment/OpenSesame/NAP-FC/NAP_GER_AA_4blocks_noglides","yes","no","sans","no","20","no","black","no","Weiter","yes","768","legacy","0","0","0","/Users/aviadalbert/Documents/Academisch/UoC/Dissertation/Experiment/OpenSesame/NAP-FC/NAP_GER_AA_4blocks_noglides/subject-25.csv","xpyriment","Jazzy James","3.1.9","yes","yes","59a800d99ad5a1025d81bb03","59a801616c613b0251691de0","yes","no","0","f","f","NA","NA","space","space","f","983","3686","NA","NA","28999","6875","983","2","legacy","1024","1","44100","-16","experiment","flal","2","0","1","0","1","eng italian ","25","","odd","813665","NA","NA","NA","NA","NA","NA","1625","NA","1625","1625","777488","806491","819080","817576","820064","817352","813661","NA","NA","736544","766359","NA","813431","NA","813665","NA","819079","819079","NA","NA","817572","NAP perception","1","983","1","yes","1024"
"100","yes","100","1085.5","1085.5","white","no","xpyriment","Ich habe die obigen Informationen gelesen und verstanden.","legacy","legacy","0","uniform","1","0","NA","undefined","undefined","1","j","0","0","NA","NA","NA","NA","NA","0","0","0","0","0","0","1","1","1","0","0","NA","NA","0","0","0","0","NA","0","0","1","1","1","1","1","Thu Oct 26 13:16:34 2017","Forced-choice identification task with a practice and an experimental phase","yes","NAP_GER_AA_4blocks_noglides.osexp","/Users/aviadalbert/Documents/Academisch/UoC/Dissertation/Experiment/OpenSesame/NAP-FC/NAP_GER_AA_4blocks_noglides","yes","no","sans","no","20","no","black","no","Weiter","yes","768","legacy","1","1","0","/Users/aviadalbert/Documents/Academisch/UoC/Dissertation/Experiment/OpenSesame/NAP-FC/NAP_GER_AA_4blocks_noglides/subject-25.csv","xpyriment","Jazzy James","3.1.9","yes","yes","59a800d99ad5a1025d81bb03","59a801616c613b0251691de0","yes","no","0","j","f","NA","NA","space","space","j","1188","3686","NA","NA","28999","6875","1188","2","legacy","1024","1","44100","-16","experiment","lepal","2","0","1","0","1","eng italian ","25","","odd","813665","NA","NA","NA","NA","NA","NA","1625","NA","1625","1625","777488","806491","821864","820357","823053","817352","813661","NA","NA","736544","766359","NA","813431","NA","813665","NA","821864","821864","NA","NA","820353","NAP perception","2","2171","2","yes","1024"
"100","yes","100","1138.66666667","1138.66666667","white","no","xpyriment","Ich habe die obigen Informationen gelesen und verstanden.","legacy","legacy","0","uniform","1","0","NA","undefined","undefined","1","j","0","0","NA","NA","NA","NA","NA","0","0","0","0","0","0","2","2","2","0","0","NA","NA","0","0","0","0","NA","0","0","2","2","2","2","2","Thu Oct 26 13:16:34 2017","Forced-choice identification task with a practice and an experimental phase","yes","NAP_GER_AA_4blocks_noglides.osexp","/Users/aviadalbert/Documents/Academisch/UoC/Dissertation/Experiment/OpenSesame/NAP-FC/NAP_GER_AA_4blocks_noglides","yes","no","sans","no","20","no","black","no","Weiter","yes","768","legacy","2","2","0","/Users/aviadalbert/Documents/Academisch/UoC/Dissertation/Experiment/OpenSesame/NAP-FC/NAP_GER_AA_4blocks_noglides/subject-25.csv","xpyriment","Jazzy James","3.1.9","yes","yes","59a800d99ad5a1025d81bb03","59a801616c613b0251691de0","yes","no","0","j","f","NA","NA","space","space","j","1245","3686","NA","NA","28999","6875","1245","2","legacy","1024","1","44100","-16","experiment","emtal","2","0","1","0","1","eng italian ","25","","odd","813665","NA","NA","NA","NA","NA","NA","1625","NA","1625","1625","777488","806491","824849","823344","826095","817352","813661","NA","NA","736544","766359","NA","813431","NA","813665","NA","824848","824848","NA","NA","823340","NAP perception","3","3416","3","yes","1024"
"100","yes","100","1122.5","1122.5","white","no","xpyriment","Ich habe die obigen Informationen gelesen und verstanden.","legacy","legacy","0","uniform","1","0","NA","undefined","undefined","1","f","0","0","NA","NA","NA","NA","NA","0","0","0","0","0","0","3","3","3","0","0","NA","NA","0","0","0","0","NA","0","0","3","3","3","3","3","Thu Oct 26 13:16:34 2017","Forced-choice identification task with a practice and an experimental phase","yes","NAP_GER_AA_4blocks_noglides.osexp","/Users/aviadalbert/Documents/Academisch/UoC/Dissertation/Experiment/OpenSesame/NAP-FC/NAP_GER_AA_4blocks_noglides","yes","no","sans","no","20","no","black","no","Weiter","yes","768","legacy","3","3","0","/Users/aviadalbert/Documents/Academisch/UoC/Dissertation/Experiment/OpenSesame/NAP-FC/NAP_GER_AA_4blocks_noglides/subject-25.csv","xpyriment","Jazzy James","3.1.9","yes","yes","59a800d99ad5a1025d81bb03","59a801616c613b0251691de0","yes","no","0","f","f","NA","NA","space","space","f","1074","3686","NA","NA","28999","6875","1074","2","legacy","1024","1","44100","-16","experiment","ʃpal","2","0","1","0","1","eng italian ","25","","odd","813665","NA","NA","NA","NA","NA","NA","1625","NA","1625","1625","777488","806491","827884","826379","828959","817352","813661","NA","NA","736544","766359","NA","813431","NA","813665","NA","827884","827884","NA","NA","826375","NAP perception","4","4490","4","yes","1024"
"100","yes","100","1146.8","1146.8","white","no","xpyriment","Ich habe die obigen Informationen gelesen und verstanden.","legacy","legacy","0","uniform","1","0","NA","undefined","undefined","1","j","0","0","NA","NA","NA","NA","NA","0","0","0","0","0","0","4","4","4","0","0","NA","NA","0","0","0","0","NA","0","0","4","4","4","4","4","Thu Oct 26 13:16:34 2017","Forced-choice identification task with a practice and an experimental phase","yes","NAP_GER_AA_4blocks_noglides.osexp","/Users/aviadalbert/Documents/Academisch/UoC/Dissertation/Experiment/OpenSesame/NAP-FC/NAP_GER_AA_4blocks_noglides","yes","no","sans","no","20","no","black","no","Weiter","yes","768","legacy","4","4","0","/Users/aviadalbert/Documents/Academisch/UoC/Dissertation/Experiment/OpenSesame/NAP-FC/NAP_GER_AA_4blocks_noglides/subject-25.csv","xpyriment","Jazzy James","3.1.9","yes","yes","59a800d99ad5a1025d81bb03","59a801616c613b0251691de0","yes","no","0","j","f","NA","NA","space","space","j","1244","3686","NA","NA","28999","6875","1244","2","legacy","1024","1","44100","-16","experiment","nefal","2","0","1","0","1","eng italian ","25","","odd","813665","NA","NA","NA","NA","NA","NA","1625","NA","1625","1625","777488","806491","830744","829239","831989","817352","813661","NA","NA","736544","766359","NA","813431","NA","813665","NA","830743","830744","NA","NA","829235","NAP perception","5","5734","5","yes","1024"
"100","yes","100","1096.66666667","1096.66666667","white","no","xpyriment","Ich habe die obigen Informationen gelesen und verstanden.","legacy","legacy","0","uniform","1","0","NA","undefined","undefined","1","f","0","0","NA","NA","NA","NA","NA","0","0","0","0","0","0","5","5","5","0","0","NA","NA","0","0","0","0","NA","0","0","5","5","5","5","5","Thu Oct 26 13:16:34 2017","Forced-choice identification task with a practice and an experimental phase","yes","NAP_GER_AA_4blocks_noglides.osexp","/Users/aviadalbert/Documents/Academisch/UoC/Dissertation/Experiment/OpenSesame/NAP-FC/NAP_GER_AA_4blocks_noglides","yes","no","sans","no","20","no","black","no","Weiter","yes","768","legacy","5","5","0","/Users/aviadalbert/Documents/Academisch/UoC/Dissertation/Experiment/OpenSesame/NAP-FC/NAP_GER_AA_4blocks_noglides/subject-25.csv","xpyriment","Jazzy James","3.1.9","yes","yes","59a800d99ad5a1025d81bb03","59a801616c613b0251691de0","yes","no","0","f","f","NA","NA","space","space","f","846","3686","NA","NA","28999","6875","846","2","legacy","1024","1","44100","-16","experiment","sfal","2","0","1","0","1","eng italian ","25","","odd","813665","NA","NA","NA","NA","NA","NA","1625","NA","1625","1625","777488","806491","833756","832252","834603","817352","813661","NA","NA","736544","766359","NA","813431","NA","813665","NA","833756","833756","NA","NA","832248","NAP perception","6","6580","6","yes","1024"
"85.7142857143","yes","85.7142857143","1075.28571429","1075.28571429","white","no","xpyriment","Ich habe die obigen Informationen gelesen und verstanden.","legacy","legacy","0","uniform","0","0","NA","undefined","undefined","0","f","0","0","NA","NA","NA","NA","NA","0","0","0","0","0","0","6","6","6","0","0","NA","NA","0","0","0","0","NA","0","0","6","6","6","6","6","Thu Oct 26 13:16:34 2017","Forced-choice identification task with a practice and an experimental phase","yes","NAP_GER_AA_4blocks_noglides.osexp","/Users/aviadalbert/Documents/Academisch/UoC/Dissertation/Experiment/OpenSesame/NAP-FC/NAP_GER_AA_4blocks_noglides","yes","no","sans","no","20","no","black","no","Weiter","yes","768","legacy","6","6","0","/Users/aviadalbert/Documents/Academisch/UoC/Dissertation/Experiment/OpenSesame/NAP-FC/NAP_GER_AA_4blocks_noglides/subject-25.csv","xpyriment","Jazzy James","3.1.9","yes","yes","59a800d99ad5a1025d81bb03","59a801616c613b0251691de0","yes","no","0","j","f","NA","NA","space","space","j","947","3686","NA","NA","28999","6875","947","2","legacy","1024","1","44100","-16","experiment","zmal","2","0","1","0","1","eng italian ","25","","odd","813665","NA","NA","NA","NA","NA","NA","1625","NA","1625","1625","777488","806491","836387","834883","837336","817352","813661","NA","NA","736544","766359","NA","813431","NA","813665","NA","836387","836387","NA","NA","834879","NAP perception","6","7527","7","yes","1024"
"87.5","yes","87.5","1070","1070","white","no","xpyriment","Ich habe die obigen Informationen gelesen und verstanden.","legacy","legacy","0","uniform","1","0","NA","undefined","undefined","1","j","0","0","NA","NA","NA","NA","NA","0","0","0","0","0","0","7","7","7","0","0","NA","NA","0","0","0","0","NA","0","0","7","7","7","7","7","Thu Oct 26 13:16:34 2017","Forced-choice identification task with a practice and an experimental phase","yes","NAP_GER_AA_4blocks_noglides.osexp","/Users/aviadalbert/Documents/Academisch/UoC/Dissertation/Experiment/OpenSesame/NAP-FC/NAP_GER_AA_4blocks_noglides","yes","no","sans","no","20","no","black","no","Weiter","yes","768","legacy","7","7","0","/Users/aviadalbert/Documents/Academisch/UoC/Dissertation/Experiment/OpenSesame/NAP-FC/NAP_GER_AA_4blocks_noglides/subject-25.csv","xpyriment","Jazzy James","3.1.9","yes","yes","59a800d99ad5a1025d81bb03","59a801616c613b0251691de0","yes","no","0","j","f","NA","NA","space","space","j","1033","3686","NA","NA","28999","6875","1033","2","legacy","1024","1","44100","-16","experiment","mesal","2","0","1","0","1","eng italian ","25","","odd","813665","NA","NA","NA","NA","NA","NA","1625","NA","1625","1625","777488","806491","839118","837614","840152","817352","813661","NA","NA","736544","766359","NA","813431","NA","813665","NA","839118","839118","NA","NA","837609","NAP perception","7","8560","8","yes","1024"
"88.8888888889","yes","88.8888888889","1058.22222222","1058.22222222","white","no","xpyriment","Ich habe die obigen Informationen gelesen und verstanden.","legacy","legacy","0","uniform","1","0","NA","undefined","undefined","1","j","0","0","NA","NA","NA","NA","NA","0","0","0","0","0","0","8","8","8","0","0","NA","NA","0","0","0","0","NA","0","0","8","8","8","8","8","Thu Oct 26 13:16:34 2017","Forced-choice identification task with a practice and an experimental phase","yes","NAP_GER_AA_4blocks_noglides.osexp","/Users/aviadalbert/Documents/Academisch/UoC/Dissertation/Experiment/OpenSesame/NAP-FC/NAP_GER_AA_4blocks_noglides","yes","no","sans","no","20","no","black","no","Weiter","yes","768","legacy","8","8","0","/Users/aviadalbert/Documents/Academisch/UoC/Dissertation/Experiment/OpenSesame/NAP-FC/NAP_GER_AA_4blocks_noglides/subject-25.csv","xpyriment","Jazzy James","3.1.9","yes","yes","59a800d99ad5a1025d81bb03","59a801616c613b0251691de0","yes","no","0","j","f","NA","NA","space","space","j","964","3686","NA","NA","28999","6875","964","2","legacy","1024","1","44100","-16","experiment","enval","2","0","1","0","1","eng italian ","25","","odd","813665","NA","NA","NA","NA","NA","NA","1625","NA","1625","1625","777488","806491","841937","840429","842902","817352","813661","NA","NA","736544","766359","NA","813431","NA","813665","NA","841937","841937","NA","NA","840425","NAP perception","8","9524","9","yes","1024"
"90","yes","90","1048.2","1048.2","white","no","xpyriment","Ich habe die obigen Informationen gelesen und verstanden.","legacy","legacy","0","uniform","1","0","NA","undefined","undefined","1","f","0","0","NA","NA","NA","NA","NA","0","0","0","0","0","0","9","9","9","0","0","NA","NA","0","0","0","0","NA","0","0","9","9","9","9","9","Thu Oct 26 13:16:34 2017","Forced-choice identification task with a practice and an experimental phase","yes","NAP_GER_AA_4blocks_noglides.osexp","/Users/aviadalbert/Documents/Academisch/UoC/Dissertation/Experiment/OpenSesame/NAP-FC/NAP_GER_AA_4blocks_noglides","yes","no","sans","no","20","no","black","no","Weiter","yes","768","legacy","9","9","0","/Users/aviadalbert/Documents/Academisch/UoC/Dissertation/Experiment/OpenSesame/NAP-FC/NAP_GER_AA_4blocks_noglides/subject-25.csv","xpyriment","Jazzy James","3.1.9","yes","yes","59a800d99ad5a1025d81bb03","59a801616c613b0251691de0","yes","no","0","f","f","NA","NA","space","space","f","958","3686","NA","NA","28999","6875","958","2","legacy","1024","1","44100","-16","experiment","vlal","2","0","1","0","1","eng italian ","25","","odd","813665","NA","NA","NA","NA","NA","NA","1625","NA","1625","1625","777488","806491","844700","843194","845659","817352","813661","NA","NA","736544","766359","NA","813431","NA","813665","NA","844700","844700","NA","NA","843190","NAP perception","9","10482","10","yes","1024"
"0","yes","0","1077","1077","white","no","xpyriment","Ich habe die obigen Informationen gelesen und verstanden.","legacy","legacy","0","uniform","0","0","0","undefined","undefined","0","j","2","1","NA","0","1","0","0","0","0","0","0","0","0","10","10","10","0","0","0","NA","0","0","2","0","0","0","2","10","10","10","10","10","Thu Oct 26 13:16:34 2017","Forced-choice identification task with a practice and an experimental phase","yes","NAP_GER_AA_4blocks_noglides.osexp","/Users/aviadalbert/Documents/Academisch/UoC/Dissertation/Experiment/OpenSesame/NAP-FC/NAP_GER_AA_4blocks_noglides","yes","no","sans","no","20","no","black","no","Weiter","yes","768","legacy","0","9","0","/Users/aviadalbert/Documents/Academisch/UoC/Dissertation/Experiment/OpenSesame/NAP-FC/NAP_GER_AA_4blocks_noglides/subject-25.csv","xpyriment","Jazzy James","3.1.9","yes","yes","59a800d99ad5a1025d81bb03","59a801616c613b0251691de0","no","no","0","f","f","space","NA","space","space","f","1077","2264","13883","NA","28999","6875","1077","2","legacy","1024","1","44100","-16","experiment","sefal","2","0","1","0","1","eng italian ","25","","odd","861781","847382","NA","NA","864046","861777","NA","1625","861321","1625","1625","777488","806491","865761","864256","866839","817352","813661","847382","NA","736544","766359","845720","813431","861780","813665","NA","865761","865761","NA","NA","864252","NAP perception","0","1077","1","yes","1024"
"50","yes","50","981","981","white","no","xpyriment","Ich habe die obigen Informationen gelesen und verstanden.","legacy","legacy","0","uniform","1","0","0","undefined","undefined","1","f","2","1","NA","0","1","0","0","0","0","0","0","0","0","11","11","11","0","0","0","NA","0","0","2","0","0","0","2","11","11","11","11","11","Thu Oct 26 13:16:34 2017","Forced-choice identification task with a practice and an experimental phase","yes","NAP_GER_AA_4blocks_noglides.osexp","/Users/aviadalbert/Documents/Academisch/UoC/Dissertation/Experiment/OpenSesame/NAP-FC/NAP_GER_AA_4blocks_noglides","yes","no","sans","no","20","no","black","no","Weiter","yes","768","legacy","1","9","0","/Users/aviadalbert/Documents/Academisch/UoC/Dissertation/Experiment/OpenSesame/NAP-FC/NAP_GER_AA_4blocks_noglides/subject-25.csv","xpyriment","Jazzy James","3.1.9","yes","yes","59a800d99ad5a1025d81bb03","59a801616c613b0251691de0","no","no","0","f","f","space","NA","space","space","f","885","2264","13883","NA","28999","6875","885","2","legacy","1024","1","44100","-16","experiment","sfal","2","0","1","0","1","eng italian ","25","","odd","861781","847382","NA","NA","864046","861777","NA","1625","861321","1625","1625","777488","806491","868619","867115","869505","817352","813661","847382","NA","736544","766359","845720","813431","861780","813665","NA","868619","868619","NA","NA","867110","NAP perception","1","1962","2","yes","1024"
"66.6666666667","yes","66.6666666667","924","924","white","no","xpyriment","Ich habe die obigen Informationen gelesen und verstanden.","legacy","legacy","0","uniform","1","0","0","undefined","undefined","1","j","2","1","NA","0","1","0","0","0","0","0","0","0","0","12","12","12","0","0","0","NA","0","0","2","0","0","0","2","12","12","12","12","12","Thu Oct 26 13:16:34 2017","Forced-choice identification task with a practice and an experimental phase","yes","NAP_GER_AA_4blocks_noglides.osexp","/Users/aviadalbert/Documents/Academisch/UoC/Dissertation/Experiment/OpenSesame/NAP-FC/NAP_GER_AA_4blocks_noglides","yes","no","sans","no","20","no","black","no","Weiter","yes","768","legacy","2","9","0","/Users/aviadalbert/Documents/Academisch/UoC/Dissertation/Experiment/OpenSesame/NAP-FC/NAP_GER_AA_4blocks_noglides/subject-25.csv","xpyriment","Jazzy James","3.1.9","yes","yes","59a800d99ad5a1025d81bb03","59a801616c613b0251691de0","no","no","0","j","f","space","NA","space","space","j","810","2264","13883","NA","28999","6875","810","2","legacy","1024","1","44100","-16","experiment","fetal","2","0","1","0","1","eng italian ","25","","odd","861781","847382","NA","NA","864046","861777","NA","1625","861321","1625","1625","777488","806491","871291","869787","872102","817352","813661","847382","NA","736544","766359","845720","813431","861780","813665","NA","871290","871291","NA","NA","869783","NAP perception","2","2772","3","yes","1024"
"75","yes","75","917.25","917.25","white","no","xpyriment","Ich habe die obigen Informationen gelesen und verstanden.","legacy","legacy","0","uniform","1","0","0","undefined","undefined","1","j","2","1","NA","0","1","0","0","0","0","0","0","0","0","13","13","13","0","0","0","NA","0","0","2","0","0","0","2","13","13","13","13","13","Thu Oct 26 13:16:34 2017","Forced-choice identification task with a practice and an experimental phase","yes","NAP_GER_AA_4blocks_noglides.osexp","/Users/aviadalbert/Documents/Academisch/UoC/Dissertation/Experiment/OpenSesame/NAP-FC/NAP_GER_AA_4blocks_noglides","yes","no","sans","no","20","no","black","no","Weiter","yes","768","legacy","3","9","0","/Users/aviadalbert/Documents/Academisch/UoC/Dissertation/Experiment/OpenSesame/NAP-FC/NAP_GER_AA_4blocks_noglides/subject-25.csv","xpyriment","Jazzy James","3.1.9","yes","yes","59a800d99ad5a1025d81bb03","59a801616c613b0251691de0","no","no","0","j","f","space","NA","space","space","j","897","2264","13883","NA","28999","6875","897","2","legacy","1024","1","44100","-16","experiment","esfal","2","0","1","0","1","eng italian ","25","","odd","861781","847382","NA","NA","864046","861777","NA","1625","861321","1625","1625","777488","806491","873886","872378","874785","817352","813661","847382","NA","736544","766359","845720","813431","861780","813665","NA","873886","873886","NA","NA","872374","NAP perception","3","3669","4","yes","1024"
"80","yes","80","933.6","933.6","white","no","xpyriment","Ich habe die obigen Informationen gelesen und verstanden.","legacy","legacy","0","uniform","1","0","0","undefined","undefined","1","j","2","1","NA","0","1","0","0","0","0","0","0","0","0","14","14","14","0","0","0","NA","0","0","2","0","0","0","2","14","14","14","14","14","Thu Oct 26 13:16:34 2017","Forced-choice identification task with a practice and an experimental phase","yes","NAP_GER_AA_4blocks_noglides.osexp","/Users/aviadalbert/Documents/Academisch/UoC/Dissertation/Experiment/OpenSesame/NAP-FC/NAP_GER_AA_4blocks_noglides","yes","no","sans","no","20","no","black","no","Weiter","yes","768","legacy","4","9","0","/Users/aviadalbert/Documents/Academisch/UoC/Dissertation/Experiment/OpenSesame/NAP-FC/NAP_GER_AA_4blocks_noglides/subject-25.csv","xpyriment","Jazzy James","3.1.9","yes","yes","59a800d99ad5a1025d81bb03","59a801616c613b0251691de0","no","no","0","j","f","space","NA","space","space","j","999","2264","13883","NA","28999","6875","999","2","legacy","1024","1","44100","-16","experiment","enfal","2","0","1","0","1","eng italian ","25","","odd","861781","847382","NA","NA","864046","861777","NA","1625","861321","1625","1625","777488","806491","876566","875061","877566","817352","813661","847382","NA","736544","766359","845720","813431","861780","813665","NA","876565","876565","NA","NA","875057","NAP perception","4","4668","5","yes","1024"
"66.6666666667","yes","66.6666666667","979.166666667","979.166666667","white","no","xpyriment","Ich habe die obigen Informationen gelesen und verstanden.","legacy","legacy","0","uniform","0","0","0","undefined","undefined","0","j","2","1","NA","0","1","0","0","0","0","0","0","0","0","15","15","15","0","0","0","NA","0","0","2","0","0","0","2","15","15","15","15","15","Thu Oct 26 13:16:34 2017","Forced-choice identification task with a practice and an experimental phase","yes","NAP_GER_AA_4blocks_noglides.osexp","/Users/aviadalbert/Documents/Academisch/UoC/Dissertation/Experiment/OpenSesame/NAP-FC/NAP_GER_AA_4blocks_noglides","yes","no","sans","no","20","no","black","no","Weiter","yes","768","legacy","5","9","0","/Users/aviadalbert/Documents/Academisch/UoC/Dissertation/Experiment/OpenSesame/NAP-FC/NAP_GER_AA_4blocks_noglides/subject-25.csv","xpyriment","Jazzy James","3.1.9","yes","yes","59a800d99ad5a1025d81bb03","59a801616c613b0251691de0","no","no","0","f","f","space","NA","space","space","f","1207","2264","13883","NA","28999","6875","1207","2","legacy","1024","1","44100","-16","experiment","velal","2","0","1","0","1","eng italian ","25","","odd","861781","847382","NA","NA","864046","861777","NA","1625","861321","1625","1625","777488","806491","879351","877847","880559","817352","813661","847382","NA","736544","766359","845720","813431","861780","813665","NA","879351","879351","NA","NA","877843","NAP perception","4","5875","6","yes","1024"
"71.4285714286","yes","71.4285714286","1010.57142857","1010.57142857","white","no","xpyriment","Ich habe die obigen Informationen gelesen und verstanden.","legacy","legacy","0","uniform","1","0","0","undefined","undefined","1","j","2","1","NA","0","1","0","0","0","0","0","0","0","0","16","16","16","0","0","0","NA","0","0","2","0","0","0","2","16","16","16","16","16","Thu Oct 26 13:16:34 2017","Forced-choice identification task with a practice and an experimental phase","yes","NAP_GER_AA_4blocks_noglides.osexp","/Users/aviadalbert/Documents/Academisch/UoC/Dissertation/Experiment/OpenSesame/NAP-FC/NAP_GER_AA_4blocks_noglides","yes","no","sans","no","20","no","black","no","Weiter","yes","768","legacy","6","9","0","/Users/aviadalbert/Documents/Academisch/UoC/Dissertation/Experiment/OpenSesame/NAP-FC/NAP_GER_AA_4blocks_noglides/subject-25.csv","xpyriment","Jazzy James","3.1.9","yes","yes","59a800d99ad5a1025d81bb03","59a801616c613b0251691de0","no","no","0","j","f","space","NA","space","space","j","1199","2264","13883","NA","28999","6875","1199","2","legacy","1024","1","44100","-16","experiment","elpal","2","0","1","0","1","eng italian ","25","","odd","861781","847382","NA","NA","864046","861777","NA","1625","861321","1625","1625","777488","806491","882340","880835","883540","817352","813661","847382","NA","736544","766359","845720","813431","861780","813665","NA","882340","882340","NA","NA","880831","NAP perception","5","7074","7","yes","1024"
"75","yes","75","1028.25","1028.25","white","no","xpyriment","Ich habe die obigen Informationen gelesen und verstanden.","legacy","legacy","0","uniform","1","0","0","undefined","undefined","1","j","2","1","NA","0","1","0","0","0","0","0","0","0","0","17","17","17","0","0","0","NA","0","0","2","0","0","0","2","17","17","17","17","17","Thu Oct 26 13:16:34 2017","Forced-choice identification task with a practice and an experimental phase","yes","NAP_GER_AA_4blocks_noglides.osexp","/Users/aviadalbert/Documents/Academisch/UoC/Dissertation/Experiment/OpenSesame/NAP-FC/NAP_GER_AA_4blocks_noglides","yes","no","sans","no","20","no","black","no","Weiter","yes","768","legacy","7","9","0","/Users/aviadalbert/Documents/Academisch/UoC/Dissertation/Experiment/OpenSesame/NAP-FC/NAP_GER_AA_4blocks_noglides/subject-25.csv","xpyriment","Jazzy James","3.1.9","yes","yes","59a800d99ad5a1025d81bb03","59a801616c613b0251691de0","no","no","0","j","f","space","NA","space","space","j","1152","2264","13883","NA","28999","6875","1152","2","legacy","1024","1","44100","-16","experiment","evzal","2","0","1","0","1","eng italian ","25","","odd","861781","847382","NA","NA","864046","861777","NA","1625","861321","1625","1625","777488","806491","885325","883818","886478","817352","813661","847382","NA","736544","766359","845720","813431","861780","813665","NA","885325","885325","NA","NA","883814","NAP perception","6","8226","8","yes","1024"
"66.6666666667","yes","66.6666666667","1065.11111111","1065.11111111","white","no","xpyriment","Ich habe die obigen Informationen gelesen und verstanden.","legacy","legacy","0","uniform","0","0","0","undefined","undefined","0","f","2","1","NA","0","1","0","0","0","0","0","0","0","0","18","18","18","0","0","0","NA","0","0","2","0","0","0","2","18","18","18","18","18","Thu Oct 26 13:16:34 2017","Forced-choice identification task with a practice and an experimental phase","yes","NAP_GER_AA_4blocks_noglides.osexp","/Users/aviadalbert/Documents/Academisch/UoC/Dissertation/Experiment/OpenSesame/NAP-FC/NAP_GER_AA_4blocks_noglides","yes","no","sans","no","20","no","black","no","Weiter","yes","768","legacy","8","9","0","/Users/aviadalbert/Documents/Academisch/UoC/Dissertation/Experiment/OpenSesame/NAP-FC/NAP_GER_AA_4blocks_noglides/subject-25.csv","xpyriment","Jazzy James","3.1.9","yes","yes","59a800d99ad5a1025d81bb03","59a801616c613b0251691de0","no","no","0","j","f","space","NA","space","space","j","1360","2264","13883","NA","28999","6875","1360","2","legacy","1024","1","44100","-16","experiment","nfal","2","0","1","0","1","eng italian ","25","","odd","861781","847382","NA","NA","864046","861777","NA","1625","861321","1625","1625","777488","806491","888265","886761","889626","817352","813661","847382","NA","736544","766359","845720","813431","861780","813665","NA","888265","888265","NA","NA","886757","NAP perception","6","9586","9","yes","1024"
"70","yes","70","1046.1","1046.1","white","no","xpyriment","Ich habe die obigen Informationen gelesen und verstanden.","legacy","legacy","0","uniform","1","0","0","undefined","undefined","1","j","2","1","NA","0","1","0","0","0","0","0","0","0","0","19","19","19","0","0","0","NA","0","0","2","0","0","0","2","19","19","19","19","19","Thu Oct 26 13:16:34 2017","Forced-choice identification task with a practice and an experimental phase","yes","NAP_GER_AA_4blocks_noglides.osexp","/Users/aviadalbert/Documents/Academisch/UoC/Dissertation/Experiment/OpenSesame/NAP-FC/NAP_GER_AA_4blocks_noglides","yes","no","sans","no","20","no","black","no","Weiter","yes","768","legacy","9","9","0","/Users/aviadalbert/Documents/Academisch/UoC/Dissertation/Experiment/OpenSesame/NAP-FC/NAP_GER_AA_4blocks_noglides/subject-25.csv","xpyriment","Jazzy James","3.1.9","yes","yes","59a800d99ad5a1025d81bb03","59a801616c613b0251691de0","no","no","0","j","f","space","NA","space","space","j","875","2264","13883","NA","28999","6875","875","2","legacy","1024","1","44100","-16","experiment","nepal","2","0","1","0","1","eng italian ","25","","odd","861781","847382","NA","NA","864046","861777","NA","1625","861321","1625","1625","777488","806491","891416","889912","892292","817352","813661","847382","NA","736544","766359","845720","813431","861780","813665","NA","891416","891416","NA","NA","889908","NAP perception","7","10461","10","yes","1024"
"63.6363636364","yes","63.6363636364","1058.27272727","1058.27272727","white","no","xpyriment","Ich habe die obigen Informationen gelesen und verstanden.","legacy","legacy","0","uniform","0","0","0","undefined","undefined","0","j","2","1","NA","0","1","0","0","0","0","0","0","0","0","20","20","20","0","0","0","NA","0","0","2","0","0","0","2","20","20","20","20","20","Thu Oct 26 13:16:34 2017","Forced-choice identification task with a practice and an experimental phase","yes","NAP_GER_AA_4blocks_noglides.osexp","/Users/aviadalbert/Documents/Academisch/UoC/Dissertation/Experiment/OpenSesame/NAP-FC/NAP_GER_AA_4blocks_noglides","yes","no","sans","no","20","no","black","no","Weiter","yes","768","legacy","10","9","0","/Users/aviadalbert/Documents/Academisch/UoC/Dissertation/Experiment/OpenSesame/NAP-FC/NAP_GER_AA_4blocks_noglides/subject-25.csv","xpyriment","Jazzy James","3.1.9","yes","yes","59a800d99ad5a1025d81bb03","59a801616c613b0251691de0","no","no","0","f","f","space","NA","space","space","f","1180","2264","13883","NA","28999","6875","1180","2","legacy","1024","1","44100","-16","experiment","sepal","2","0","1","0","1","eng italian ","25","","odd","861781","847382","NA","NA","864046","861777","NA","1625","861321","1625","1625","777488","806491","894081","892577","895263","817352","813661","847382","NA","736544","766359","845720","813431","861780","813665","NA","894080","894080","NA","NA","892573","NAP perception","7","11641","11","yes","1024"
"66.6666666667","yes","66.6666666667","1051.75","1051.75","white","no","xpyriment","Ich habe die obigen Informationen gelesen und verstanden.","legacy","legacy","0","uniform","1","0","0","undefined","undefined","1","f","2","1","NA","0","1","0","0","0","0","0","0","0","0","21","21","21","0","0","0","NA","0","0","2","0","0","0","2","21","21","21","21","21","Thu Oct 26 13:16:34 2017","Forced-choice identification task with a practice and an experimental phase","yes","NAP_GER_AA_4blocks_noglides.osexp","/Users/aviadalbert/Documents/Academisch/UoC/Dissertation/Experiment/OpenSesame/NAP-FC/NAP_GER_AA_4blocks_noglides","yes","no","sans","no","20","no","black","no","Weiter","yes","768","legacy","11","9","0","/Users/aviadalbert/Documents/Academisch/UoC/Dissertation/Experiment/OpenSesame/NAP-FC/NAP_GER_AA_4blocks_noglides/subject-25.csv","xpyriment","Jazzy James","3.1.9","yes","yes","59a800d99ad5a1025d81bb03","59a801616c613b0251691de0","no","no","0","f","f","space","NA","space","space","f","980","2264","13883","NA","28999","6875","980","2","legacy","1024","1","44100","-16","experiment","lkal","2","0","1","0","1","eng italian ","25","","odd","861781","847382","NA","NA","864046","861777","NA","1625","861321","1625","1625","777488","806491","897047","895543","898029","817352","813661","847382","NA","736544","766359","845720","813431","861780","813665","NA","897047","897047","NA","NA","895539","NAP perception","8","12621","12","yes","1024"
"69.2307692308","yes","69.2307692308","1072.46153846","1072.46153846","white","no","xpyriment","Ich habe die obigen Informationen gelesen und verstanden.","legacy","legacy","0","uniform","1","0","0","undefined","undefined","1","f","2","1","NA","0","1","0","0","0","0","0","0","0","0","22","22","22","0","0","0","NA","0","0","2","0","0","0","2","22","22","22","22","22","Thu Oct 26 13:16:34 2017","Forced-choice identification task with a practice and an experimental phase","yes","NAP_GER_AA_4blocks_noglides.osexp","/Users/aviadalbert/Documents/Academisch/UoC/Dissertation/Experiment/OpenSesame/NAP-FC/NAP_GER_AA_4blocks_noglides","yes","no","sans","no","20","no","black","no","Weiter","yes","768","legacy","12","9","0","/Users/aviadalbert/Documents/Academisch/UoC/Dissertation/Experiment/OpenSesame/NAP-FC/NAP_GER_AA_4blocks_noglides/subject-25.csv","xpyriment","Jazzy James","3.1.9","yes","yes","59a800d99ad5a1025d81bb03","59a801616c613b0251691de0","no","no","0","f","f","space","NA","space","space","f","1321","2264","13883","NA","28999","6875","1321","2","legacy","1024","1","44100","-16","experiment","lkal","2","0","1","0","1","eng italian ","25","","odd","861781","847382","NA","NA","864046","861777","NA","1625","861321","1625","1625","777488","806491","899825","898319","901148","817352","813661","847382","NA","736544","766359","845720","813431","861780","813665","NA","899825","899825","NA","NA","898315","NAP perception","9","13942","13","yes","1024"
"71.4285714286","yes","71.4285714286","1095.71428571","1095.71428571","white","no","xpyriment","Ich habe die obigen Informationen gelesen und verstanden.","legacy","legacy","0","uniform","1","0","0","undefined","undefined","1","f","2","1","NA","0","1","0","0","0","0","0","0","0","0","23","23","23","0","0","0","NA","0","0","2","0","0","0","2","23","23","23","23","23","Thu Oct 26 13:16:34 2017","Forced-choice identification task with a practice and an experimental phase","yes","NAP_GER_AA_4blocks_noglides.osexp","/Users/aviadalbert/Documents/Academisch/UoC/Dissertation/Experiment/OpenSesame/NAP-FC/NAP_GER_AA_4blocks_noglides","yes","no","sans","no","20","no","black","no","Weiter","yes","768","legacy","13","9","0","/Users/aviadalbert/Documents/Academisch/UoC/Dissertation/Experiment/OpenSesame/NAP-FC/NAP_GER_AA_4blocks_noglides/subject-25.csv","xpyriment","Jazzy James","3.1.9","yes","yes","59a800d99ad5a1025d81bb03","59a801616c613b0251691de0","no","no","0","f","f","space","NA","space","space","f","1398","2264","13883","NA","28999","6875","1398","2","legacy","1024","1","44100","-16","experiment","mnal","2","0","1","0","1","eng italian ","25","","odd","861781","847382","NA","NA","864046","861777","NA","1625","861321","1625","1625","777488","806491","902939","901434","904339","817352","813661","847382","NA","736544","766359","845720","813431","861780","813665","NA","902939","902939","NA","NA","901430","NAP perception","10","15340","14","yes","1024"
"73.3333333333","yes","73.3333333333","1081.86666667","1081.86666667","white","no","xpyriment","Ich habe die obigen Informationen gelesen und verstanden.","legacy","legacy","0","uniform","1","0","0","undefined","undefined","1","j","2","1","NA","0","1","0","0","0","0","0","0","0","0","24","24","24","0","0","0","NA","0","0","2","0","0","0","2","24","24","24","24","24","Thu Oct 26 13:16:34 2017","Forced-choice identification task with a practice and an experimental phase","yes","NAP_GER_AA_4blocks_noglides.osexp","/Users/aviadalbert/Documents/Academisch/UoC/Dissertation/Experiment/OpenSesame/NAP-FC/NAP_GER_AA_4blocks_noglides","yes","no","sans","no","20","no","black","no","Weiter","yes","768","legacy","14","9","0","/Users/aviadalbert/Documents/Academisch/UoC/Dissertation/Experiment/OpenSesame/NAP-FC/NAP_GER_AA_4blocks_noglides/subject-25.csv","xpyriment","Jazzy James","3.1.9","yes","yes","59a800d99ad5a1025d81bb03","59a801616c613b0251691de0","no","no","0","j","f","space","NA","space","space","j","888","2264","13883","NA","28999","6875","888","2","legacy","1024","1","44100","-16","experiment","metal","2","0","1","0","1","eng italian ","25","","odd","861781","847382","NA","NA","864046","861777","NA","1625","861321","1625","1625","777488","806491","906124","904620","907013","817352","813661","847382","NA","736544","766359","845720","813431","861780","813665","NA","906124","906124","NA","NA","904616","NAP perception","11","16228","15","yes","1024"
"75","yes","75","1119.5625","1119.5625","white","no","xpyriment","Ich habe die obigen Informationen gelesen und verstanden.","legacy","legacy","0","uniform","1","0","0","undefined","undefined","1","f","2","1","NA","0","1","0","0","0","0","0","0","0","0","25","25","25","0","0","0","NA","0","0","2","0","0","0","2","25","25","25","25","25","Thu Oct 26 13:16:34 2017","Forced-choice identification task with a practice and an experimental phase","yes","NAP_GER_AA_4blocks_noglides.osexp","/Users/aviadalbert/Documents/Academisch/UoC/Dissertation/Experiment/OpenSesame/NAP-FC/NAP_GER_AA_4blocks_noglides","yes","no","sans","no","20","no","black","no","Weiter","yes","768","legacy","15","9","0","/Users/aviadalbert/Documents/Academisch/UoC/Dissertation/Experiment/OpenSesame/NAP-FC/NAP_GER_AA_4blocks_noglides/subject-25.csv","xpyriment","Jazzy James","3.1.9","yes","yes","59a800d99ad5a1025d81bb03","59a801616c613b0251691de0","no","no","0","f","f","space","NA","space","space","f","1685","2264","13883","NA","28999","6875","1685","2","legacy","1024","1","44100","-16","experiment","nval","2","0","1","0","1","eng italian ","25","","odd","861781","847382","NA","NA","864046","861777","NA","1625","861321","1625","1625","777488","806491","908789","907284","910476","817352","813661","847382","NA","736544","766359","845720","813431","861780","813665","NA","908789","908789","NA","NA","907280","NAP perception","12","17913","16","yes","1024"
"76.4705882353","yes","76.4705882353","1113.05882353","1113.05882353","white","no","xpyriment","Ich habe die obigen Informationen gelesen und verstanden.","legacy","legacy","0","uniform","1","0","0","undefined","undefined","1","f","2","1","NA","0","1","0","0","0","0","0","0","0","0","26","26","26","0","0","0","NA","0","0","2","0","0","0","2","26","26","26","26","26","Thu Oct 26 13:16:34 2017","Forced-choice identification task with a practice and an experimental phase","yes","NAP_GER_AA_4blocks_noglides.osexp","/Users/aviadalbert/Documents/Academisch/UoC/Dissertation/Experiment/OpenSesame/NAP-FC/NAP_GER_AA_4blocks_noglides","yes","no","sans","no","20","no","black","no","Weiter","yes","768","legacy","16","9","0","/Users/aviadalbert/Documents/Academisch/UoC/Dissertation/Experiment/OpenSesame/NAP-FC/NAP_GER_AA_4blocks_noglides/subject-25.csv","xpyriment","Jazzy James","3.1.9","yes","yes","59a800d99ad5a1025d81bb03","59a801616c613b0251691de0","no","no","0","f","f","space","NA","space","space","f","1009","2264","13883","NA","28999","6875","1009","2","legacy","1024","1","44100","-16","experiment","ʃmal","2","0","1","0","1","eng italian ","25","","odd","861781","847382","NA","NA","864046","861777","NA","1625","861321","1625","1625","777488","806491","912249","910744","913259","817352","813661","847382","NA","736544","766359","845720","813431","861780","813665","NA","912248","912249","NA","NA","910740","NAP perception","13","18922","17","yes","1024"
"77.7777777778","yes","77.7777777778","1102.77777778","1102.77777778","white","no","xpyriment","Ich habe die obigen Informationen gelesen und verstanden.","legacy","legacy","0","uniform","1","0","0","undefined","undefined","1","f","2","1","NA","0","1","0","0","0","0","0","0","0","0","27","27","27","0","0","0","NA","0","0","2","0","0","0","2","27","27","27","27","27","Thu Oct 26 13:16:34 2017","Forced-choice identification task with a practice and an experimental phase","yes","NAP_GER_AA_4blocks_noglides.osexp","/Users/aviadalbert/Documents/Academisch/UoC/Dissertation/Experiment/OpenSesame/NAP-FC/NAP_GER_AA_4blocks_noglides","yes","no","sans","no","20","no","black","no","Weiter","yes","768","legacy","17","9","0","/Users/aviadalbert/Documents/Academisch/UoC/Dissertation/Experiment/OpenSesame/NAP-FC/NAP_GER_AA_4blocks_noglides/subject-25.csv","xpyriment","Jazzy James","3.1.9","yes","yes","59a800d99ad5a1025d81bb03","59a801616c613b0251691de0","no","no","0","f","f","space","NA","space","space","f","928","2264","13883","NA","28999","6875","928","2","legacy","1024","1","44100","-16","experiment","vlal","2","0","1","0","1","eng italian ","25","","odd","861781","847382","NA","NA","864046","861777","NA","1625","861321","1625","1625","777488","806491","915052","913548","915982","817352","813661","847382","NA","736544","766359","845720","813431","861780","813665","NA","915052","915052","NA","NA","913544","NAP perception","14","19850","18","yes","1024"
"78.9473684211","yes","78.9473684211","1089.05263158","1089.05263158","white","no","xpyriment","Ich habe die obigen Informationen gelesen und verstanden.","legacy","legacy","0","uniform","1","0","0","undefined","undefined","1","j","2","1","NA","0","1","0","0","0","0","0","0","0","0","28","28","28","0","0","0","NA","0","0","2","0","0","0","2","28","28","28","28","28","Thu Oct 26 13:16:34 2017","Forced-choice identification task with a practice and an experimental phase","yes","NAP_GER_AA_4blocks_noglides.osexp","/Users/aviadalbert/Documents/Academisch/UoC/Dissertation/Experiment/OpenSesame/NAP-FC/NAP_GER_AA_4blocks_noglides","yes","no","sans","no","20","no","black","no","Weiter","yes","768","legacy","18","9","0","/Users/aviadalbert/Documents/Academisch/UoC/Dissertation/Experiment/OpenSesame/NAP-FC/NAP_GER_AA_4blocks_noglides/subject-25.csv","xpyriment","Jazzy James","3.1.9","yes","yes","59a800d99ad5a1025d81bb03","59a801616c613b0251691de0","no","no","0","j","f","space","NA","space","space","j","842","2264","13883","NA","28999","6875","842","2","legacy","1024","1","44100","-16","experiment","fesal","2","0","1","0","1","eng italian ","25","","odd","861781","847382","NA","NA","864046","861777","NA","1625","861321","1625","1625","777488","806491","917754","916250","918597","817352","813661","847382","NA","736544","766359","845720","813431","861780","813665","NA","917753","917754","NA","NA","916246","NAP perception","15","20692","19","yes","1024"
"80","yes","80","1093.2","1093.2","white","no","xpyriment","Ich habe die obigen Informationen gelesen und verstanden.","legacy","legacy","0","uniform","1","0","0","undefined","undefined","1","f","2","1","NA","0","1","0","0","0","0","0","0","0","0","29","29","29","0","0","0","NA","0","0","2","0","0","0","2","29","29","29","29","29","Thu Oct 26 13:16:34 2017","Forced-choice identification task with a practice and an experimental phase","yes","NAP_GER_AA_4blocks_noglides.osexp","/Users/aviadalbert/Documents/Academisch/UoC/Dissertation/Experiment/OpenSesame/NAP-FC/NAP_GER_AA_4blocks_noglides","yes","no","sans","no","20","no","black","no","Weiter","yes","768","legacy","19","9","0","/Users/aviadalbert/Documents/Academisch/UoC/Dissertation/Experiment/OpenSesame/NAP-FC/NAP_GER_AA_4blocks_noglides/subject-25.csv","xpyriment","Jazzy James","3.1.9","yes","yes","59a800d99ad5a1025d81bb03","59a801616c613b0251691de0","no","no","0","f","f","space","NA","space","space","f","1172","2264","13883","NA","28999","6875","1172","2","legacy","1024","1","44100","-16","experiment","vzal","2","0","1","0","1","eng italian ","25","","odd","861781","847382","NA","NA","864046","861777","NA","1625","861321","1625","1625","777488","806491","920394","918891","921567","817352","813661","847382","NA","736544","766359","845720","813431","861780","813665","NA","920394","920394","NA","NA","918887","NAP perception","16","21864","20","yes","1024"
"80.9523809524","yes","80.9523809524","1090.42857143","1090.42857143","white","no","xpyriment","Ich habe die obigen Informationen gelesen und verstanden.","legacy","legacy","0","uniform","1","0","0","undefined","undefined","1","f","2","1","NA","0","1","0","0","0","0","0","0","0","0","30","30","30","0","0","0","NA","0","0","2","0","0","0","2","30","30","30","30","30","Thu Oct 26 13:16:34 2017","Forced-choice identification task with a practice and an experimental phase","yes","NAP_GER_AA_4blocks_noglides.osexp","/Users/aviadalbert/Documents/Academisch/UoC/Dissertation/Experiment/OpenSesame/NAP-FC/NAP_GER_AA_4blocks_noglides","yes","no","sans","no","20","no","black","no","Weiter","yes","768","legacy","20","9","0","/Users/aviadalbert/Documents/Academisch/UoC/Dissertation/Experiment/OpenSesame/NAP-FC/NAP_GER_AA_4blocks_noglides/subject-25.csv","xpyriment","Jazzy James","3.1.9","yes","yes","59a800d99ad5a1025d81bb03","59a801616c613b0251691de0","no","no","0","f","f","space","NA","space","space","f","1035","2264","13883","NA","28999","6875","1035","2","legacy","1024","1","44100","-16","experiment","mzal","2","0","1","0","1","eng italian ","25","","odd","861781","847382","NA","NA","864046","861777","NA","1625","861321","1625","1625","777488","806491","923349","921843","924385","817352","813661","847382","NA","736544","766359","845720","813431","861780","813665","NA","923348","923348","NA","NA","921839","NAP perception","17","22899","21","yes","1024"
"81.8181818182","yes","81.8181818182","1082.31818182","1082.31818182","white","no","xpyriment","Ich habe die obigen Informationen gelesen und verstanden.","legacy","legacy","0","uniform","1","0","0","undefined","undefined","1","f","2","1","NA","0","1","0","0","0","0","0","0","0","0","31","31","31","0","0","0","NA","0","0","2","0","0","0","2","31","31","31","31","31","Thu Oct 26 13:16:34 2017","Forced-choice identification task with a practice and an experimental phase","yes","NAP_GER_AA_4blocks_noglides.osexp","/Users/aviadalbert/Documents/Academisch/UoC/Dissertation/Experiment/OpenSesame/NAP-FC/NAP_GER_AA_4blocks_noglides","yes","no","sans","no","20","no","black","no","Weiter","yes","768","legacy","21","9","0","/Users/aviadalbert/Documents/Academisch/UoC/Dissertation/Experiment/OpenSesame/NAP-FC/NAP_GER_AA_4blocks_noglides/subject-25.csv","xpyriment","Jazzy James","3.1.9","yes","yes","59a800d99ad5a1025d81bb03","59a801616c613b0251691de0","no","no","0","f","f","space","NA","space","space","f","912","2264","13883","NA","28999","6875","912","2","legacy","1024","1","44100","-16","experiment","npal","2","0","1","0","1","eng italian ","25","","odd","861781","847382","NA","NA","864046","861777","NA","1625","861321","1625","1625","777488","806491","926154","924650","927067","817352","813661","847382","NA","736544","766359","845720","813431","861780","813665","NA","926154","926154","NA","NA","924645","NAP perception","18","23811","22","yes","1024"
"82.6086956522","yes","82.6086956522","1079.69565217","1079.69565217","white","no","xpyriment","Ich habe die obigen Informationen gelesen und verstanden.","legacy","legacy","0","uniform","1","0","0","undefined","undefined","1","j","2","1","NA","0","1","0","0","0","0","0","0","0","0","32","32","32","0","0","0","NA","0","0","2","0","0","0","2","32","32","32","32","32","Thu Oct 26 13:16:34 2017","Forced-choice identification task with a practice and an experimental phase","yes","NAP_GER_AA_4blocks_noglides.osexp","/Users/aviadalbert/Documents/Academisch/UoC/Dissertation/Experiment/OpenSesame/NAP-FC/NAP_GER_AA_4blocks_noglides","yes","no","sans","no","20","no","black","no","Weiter","yes","768","legacy","22","9","0","/Users/aviadalbert/Documents/Academisch/UoC/Dissertation/Experiment/OpenSesame/NAP-FC/NAP_GER_AA_4blocks_noglides/subject-25.csv","xpyriment","Jazzy James","3.1.9","yes","yes","59a800d99ad5a1025d81bb03","59a801616c613b0251691de0","no","no","0","j","f","space","NA","space","space","j","1022","2264","13883","NA","28999","6875","1022","2","legacy","1024","1","44100","-16","experiment","lekal","2","0","1","0","1","eng italian ","25","","odd","861781","847382","NA","NA","864046","861777","NA","1625","861321","1625","1625","777488","806491","928864","927358","929888","817352","813661","847382","NA","736544","766359","845720","813431","861780","813665","NA","928863","928864","NA","NA","927354","NAP perception","19","24833","23","yes","1024"
"83.3333333333","yes","83.3333333333","1073.875","1073.875","white","no","xpyriment","Ich habe die obigen Informationen gelesen und verstanden.","legacy","legacy","0","uniform","1","0","0","undefined","undefined","1","f","2","1","NA","0","1","0","0","0","0","0","0","0","0","33","33","33","0","0","0","NA","0","0","2","0","0","0","2","33","33","33","33","33","Thu Oct 26 13:16:34 2017","Forced-choice identification task with a practice and an experimental phase","yes","NAP_GER_AA_4blocks_noglides.osexp","/Users/aviadalbert/Documents/Academisch/UoC/Dissertation/Experiment/OpenSesame/NAP-FC/NAP_GER_AA_4blocks_noglides","yes","no","sans","no","20","no","black","no","Weiter","yes","768","legacy","23","9","0","/Users/aviadalbert/Documents/Academisch/UoC/Dissertation/Experiment/OpenSesame/NAP-FC/NAP_GER_AA_4blocks_noglides/subject-25.csv","xpyriment","Jazzy James","3.1.9","yes","yes","59a800d99ad5a1025d81bb03","59a801616c613b0251691de0","no","no","0","f","f","space","NA","space","space","f","940","2264","13883","NA","28999","6875","940","2","legacy","1024","1","44100","-16","experiment","ʃpal","2","0","1","0","1","eng italian ","25","","odd","861781","847382","NA","NA","864046","861777","NA","1625","861321","1625","1625","777488","806491","931661","930154","932603","817352","813661","847382","NA","736544","766359","845720","813431","861780","813665","NA","931661","931661","NA","NA","930150","NAP perception","20","25773","24","yes","1024"
"84","yes","84","1066.84","1066.84","white","no","xpyriment","Ich habe die obigen Informationen gelesen und verstanden.","legacy","legacy","0","uniform","1","0","0","undefined","undefined","1","f","2","1","NA","0","1","0","0","0","0","0","0","0","0","34","34","34","0","0","0","NA","0","0","2","0","0","0","2","34","34","34","34","34","Thu Oct 26 13:16:34 2017","Forced-choice identification task with a practice and an experimental phase","yes","NAP_GER_AA_4blocks_noglides.osexp","/Users/aviadalbert/Documents/Academisch/UoC/Dissertation/Experiment/OpenSesame/NAP-FC/NAP_GER_AA_4blocks_noglides","yes","no","sans","no","20","no","black","no","Weiter","yes","768","legacy","24","9","0","/Users/aviadalbert/Documents/Academisch/UoC/Dissertation/Experiment/OpenSesame/NAP-FC/NAP_GER_AA_4blocks_noglides/subject-25.csv","xpyriment","Jazzy James","3.1.9","yes","yes","59a800d99ad5a1025d81bb03","59a801616c613b0251691de0","no","no","0","f","f","space","NA","space","space","f","898","2264","13883","NA","28999","6875","898","2","legacy","1024","1","44100","-16","experiment","spal","2","0","1","0","1","eng italian ","25","","odd","861781","847382","NA","NA","864046","861777","NA","1625","861321","1625","1625","777488","806491","934391","932887","935291","817352","813661","847382","NA","736544","766359","845720","813431","861780","813665","NA","934390","934390","NA","NA","932882","NAP perception","21","26671","25","yes","1024"
"84.6153846154","yes","84.6153846154","1062.5","1062.5","white","no","xpyriment","Ich habe die obigen Informationen gelesen und verstanden.","legacy","legacy","0","uniform","1","0","0","undefined","undefined","1","f","2","1","NA","0","1","0","0","0","0","0","0","0","0","35","35","35","0","0","0","NA","0","0","2","0","0","0","2","35","35","35","35","35","Thu Oct 26 13:16:34 2017","Forced-choice identification task with a practice and an experimental phase","yes","NAP_GER_AA_4blocks_noglides.osexp","/Users/aviadalbert/Documents/Academisch/UoC/Dissertation/Experiment/OpenSesame/NAP-FC/NAP_GER_AA_4blocks_noglides","yes","no","sans","no","20","no","black","no","Weiter","yes","768","legacy","25","9","0","/Users/aviadalbert/Documents/Academisch/UoC/Dissertation/Experiment/OpenSesame/NAP-FC/NAP_GER_AA_4blocks_noglides/subject-25.csv","xpyriment","Jazzy James","3.1.9","yes","yes","59a800d99ad5a1025d81bb03","59a801616c613b0251691de0","no","no","0","f","f","space","NA","space","space","f","954","2264","13883","NA","28999","6875","954","2","legacy","1024","1","44100","-16","experiment","lmal","2","0","1","0","1","eng italian ","25","","odd","861781","847382","NA","NA","864046","861777","NA","1625","861321","1625","1625","777488","806491","937080","935575","938036","817352","813661","847382","NA","736544","766359","845720","813431","861780","813665","NA","937079","937079","NA","NA","935571","NAP perception","22","27625","26","yes","1024"
"81.4814814815","yes","81.4814814815","1063.59259259","1063.59259259","white","no","xpyriment","Ich habe die obigen Informationen gelesen und verstanden.","legacy","legacy","0","uniform","0","0","0","undefined","undefined","0","f","2","1","NA","0","1","0","0","0","0","0","0","0","0","36","36","36","0","0","0","NA","0","0","2","0","0","0","2","36","36","36","36","36","Thu Oct 26 13:16:34 2017","Forced-choice identification task with a practice and an experimental phase","yes","NAP_GER_AA_4blocks_noglides.osexp","/Users/aviadalbert/Documents/Academisch/UoC/Dissertation/Experiment/OpenSesame/NAP-FC/NAP_GER_AA_4blocks_noglides","yes","no","sans","no","20","no","black","no","Weiter","yes","768","legacy","26","9","0","/Users/aviadalbert/Documents/Academisch/UoC/Dissertation/Experiment/OpenSesame/NAP-FC/NAP_GER_AA_4blocks_noglides/subject-25.csv","xpyriment","Jazzy James","3.1.9","yes","yes","59a800d99ad5a1025d81bb03","59a801616c613b0251691de0","no","no","0","j","f","space","NA","space","space","j","1092","2264","13883","NA","28999","6875","1092","2","legacy","1024","1","44100","-16","experiment","lpal","2","0","1","0","1","eng italian ","25","","odd","861781","847382","NA","NA","864046","861777","NA","1625","861321","1625","1625","777488","806491","939808","938303","940901","817352","813661","847382","NA","736544","766359","845720","813431","861780","813665","NA","939807","939807","NA","NA","938299","NAP perception","22","28717","27","yes","1024"
"78.5714285714","yes","78.5714285714","1063.28571429","1063.28571429","white","no","xpyriment","Ich habe die obigen Informationen gelesen und verstanden.","legacy","legacy","0","uniform","0","0","0","undefined","undefined","0","f","2","1","NA","0","1","0","0","0","0","0","0","0","0","37","37","37","0","0","0","NA","0","0","2","0","0","0","2","37","37","37","37","37","Thu Oct 26 13:16:34 2017","Forced-choice identification task with a practice and an experimental phase","yes","NAP_GER_AA_4blocks_noglides.osexp","/Users/aviadalbert/Documents/Academisch/UoC/Dissertation/Experiment/OpenSesame/NAP-FC/NAP_GER_AA_4blocks_noglides","yes","no","sans","no","20","no","black","no","Weiter","yes","768","legacy","27","9","0","/Users/aviadalbert/Documents/Academisch/UoC/Dissertation/Experiment/OpenSesame/NAP-FC/NAP_GER_AA_4blocks_noglides/subject-25.csv","xpyriment","Jazzy James","3.1.9","yes","yes","59a800d99ad5a1025d81bb03","59a801616c613b0251691de0","no","no","0","j","f","space","NA","space","space","j","1055","2264","13883","NA","28999","6875","1055","2","legacy","1024","1","44100","-16","experiment","mnal","2","0","1","0","1","eng italian ","25","","odd","861781","847382","NA","NA","864046","861777","NA","1625","861321","1625","1625","777488","806491","942687","941182","943744","817352","813661","847382","NA","736544","766359","845720","813431","861780","813665","NA","942687","942687","NA","NA","941178","NAP perception","22","29772","28","yes","1024"
"79.3103448276","yes","79.3103448276","1059","1059","white","no","xpyriment","Ich habe die obigen Informationen gelesen und verstanden.","legacy","legacy","0","uniform","1","0","0","undefined","undefined","1","j","2","1","NA","0","1","0","0","0","0","0","0","0","0","38","38","38","0","0","0","NA","0","0","2","0","0","0","2","38","38","38","38","38","Thu Oct 26 13:16:34 2017","Forced-choice identification task with a practice and an experimental phase","yes","NAP_GER_AA_4blocks_noglides.osexp","/Users/aviadalbert/Documents/Academisch/UoC/Dissertation/Experiment/OpenSesame/NAP-FC/NAP_GER_AA_4blocks_noglides","yes","no","sans","no","20","no","black","no","Weiter","yes","768","legacy","28","9","0","/Users/aviadalbert/Documents/Academisch/UoC/Dissertation/Experiment/OpenSesame/NAP-FC/NAP_GER_AA_4blocks_noglides/subject-25.csv","xpyriment","Jazzy James","3.1.9","yes","yes","59a800d99ad5a1025d81bb03","59a801616c613b0251691de0","no","no","0","j","f","space","NA","space","space","j","939","2264","13883","NA","28999","6875","939","2","legacy","1024","1","44100","-16","experiment","vezal","2","0","1","0","1","eng italian ","25","","odd","861781","847382","NA","NA","864046","861777","NA","1625","861321","1625","1625","777488","806491","945527","944023","946467","817352","813661","847382","NA","736544","766359","845720","813431","861780","813665","NA","945526","945526","NA","NA","944018","NAP perception","23","30711","29","yes","1024"
"80","yes","80","1052.13333333","1052.13333333","white","no","xpyriment","Ich habe die obigen Informationen gelesen und verstanden.","legacy","legacy","0","uniform","1","0","0","undefined","undefined","1","f","2","1","NA","0","1","0","0","0","0","0","0","0","0","39","39","39","0","0","0","NA","0","0","2","0","0","0","2","39","39","39","39","39","Thu Oct 26 13:16:34 2017","Forced-choice identification task with a practice and an experimental phase","yes","NAP_GER_AA_4blocks_noglides.osexp","/Users/aviadalbert/Documents/Academisch/UoC/Dissertation/Experiment/OpenSesame/NAP-FC/NAP_GER_AA_4blocks_noglides","yes","no","sans","no","20","no","black","no","Weiter","yes","768","legacy","29","9","0","/Users/aviadalbert/Documents/Academisch/UoC/Dissertation/Experiment/OpenSesame/NAP-FC/NAP_GER_AA_4blocks_noglides/subject-25.csv","xpyriment","Jazzy James","3.1.9","yes","yes","59a800d99ad5a1025d81bb03","59a801616c613b0251691de0","no","no","0","f","f","space","NA","space","space","f","853","2264","13883","NA","28999","6875","853","2","legacy","1024","1","44100","-16","experiment","zmal","2","0","1","0","1","eng italian ","25","","odd","861781","847382","NA","NA","864046","861777","NA","1625","861321","1625","1625","777488","806491","948265","946760","949119","817352","813661","847382","NA","736544","766359","845720","813431","861780","813665","NA","948265","948265","NA","NA","946756","NAP perception","24","31564","30","yes","1024"
"80.6451612903","yes","80.6451612903","1060.4516129","1060.4516129","white","no","xpyriment","Ich habe die obigen Informationen gelesen und verstanden.","legacy","legacy","0","uniform","1","0","0","undefined","undefined","1","j","2","1","NA","0","1","0","0","0","0","0","0","0","0","40","40","40","0","0","0","NA","0","0","2","0","0","0","2","40","40","40","40","40","Thu Oct 26 13:16:34 2017","Forced-choice identification task with a practice and an experimental phase","yes","NAP_GER_AA_4blocks_noglides.osexp","/Users/aviadalbert/Documents/Academisch/UoC/Dissertation/Experiment/OpenSesame/NAP-FC/NAP_GER_AA_4blocks_noglides","yes","no","sans","no","20","no","black","no","Weiter","yes","768","legacy","30","9","0","/Users/aviadalbert/Documents/Academisch/UoC/Dissertation/Experiment/OpenSesame/NAP-FC/NAP_GER_AA_4blocks_noglides/subject-25.csv","xpyriment","Jazzy James","3.1.9","yes","yes","59a800d99ad5a1025d81bb03","59a801616c613b0251691de0","no","no","0","j","f","space","NA","space","space","j","1310","2264","13883","NA","28999","6875","1310","2","legacy","1024","1","44100","-16","experiment","eftal","2","0","1","0","1","eng italian ","25","","odd","861781","847382","NA","NA","864046","861777","NA","1625","861321","1625","1625","777488","806491","950894","949390","952205","817352","813661","847382","NA","736544","766359","845720","813431","861780","813665","NA","950894","950894","NA","NA","949386","NAP perception","25","32874","31","yes","1024"
"78.125","yes","78.125","1075.03125","1075.03125","white","no","xpyriment","Ich habe die obigen Informationen gelesen und verstanden.","legacy","legacy","0","uniform","0","0","0","undefined","undefined","0","f","2","1","NA","0","1","0","0","0","0","0","0","0","0","41","41","41","0","0","0","NA","0","0","2","0","0","0","2","41","41","41","41","41","Thu Oct 26 13:16:34 2017","Forced-choice identification task with a practice and an experimental phase","yes","NAP_GER_AA_4blocks_noglides.osexp","/Users/aviadalbert/Documents/Academisch/UoC/Dissertation/Experiment/OpenSesame/NAP-FC/NAP_GER_AA_4blocks_noglides","yes","no","sans","no","20","no","black","no","Weiter","yes","768","legacy","31","9","0","/Users/aviadalbert/Documents/Academisch/UoC/Dissertation/Experiment/OpenSesame/NAP-FC/NAP_GER_AA_4blocks_noglides/subject-25.csv","xpyriment","Jazzy James","3.1.9","yes","yes","59a800d99ad5a1025d81bb03","59a801616c613b0251691de0","no","no","0","j","f","space","NA","space","space","j","1527","2264","13883","NA","28999","6875","1527","2","legacy","1024","1","44100","-16","experiment","lmal","2","0","1","0","1","eng italian ","25","","odd","861781","847382","NA","NA","864046","861777","NA","1625","861321","1625","1625","777488","806491","953989","952485","955517","817352","813661","847382","NA","736544","766359","845720","813431","861780","813665","NA","953989","953989","NA","NA","952481","NAP perception","25","34401","32","yes","1024"
"78.7878787879","yes","78.7878787879","1073.60606061","1073.60606061","white","no","xpyriment","Ich habe die obigen Informationen gelesen und verstanden.","legacy","legacy","0","uniform","1","0","0","undefined","undefined","1","f","2","1","NA","0","1","0","0","0","0","0","0","0","0","42","42","42","0","0","0","NA","0","0","2","0","0","0","2","42","42","42","42","42","Thu Oct 26 13:16:34 2017","Forced-choice identification task with a practice and an experimental phase","yes","NAP_GER_AA_4blocks_noglides.osexp","/Users/aviadalbert/Documents/Academisch/UoC/Dissertation/Experiment/OpenSesame/NAP-FC/NAP_GER_AA_4blocks_noglides","yes","no","sans","no","20","no","black","no","Weiter","yes","768","legacy","32","9","0","/Users/aviadalbert/Documents/Academisch/UoC/Dissertation/Experiment/OpenSesame/NAP-FC/NAP_GER_AA_4blocks_noglides/subject-25.csv","xpyriment","Jazzy James","3.1.9","yes","yes","59a800d99ad5a1025d81bb03","59a801616c613b0251691de0","no","no","0","f","f","space","NA","space","space","f","1028","2264","13883","NA","28999","6875","1028","2","legacy","1024","1","44100","-16","experiment","ʃfal","2","0","1","0","1","eng italian ","25","","odd","861781","847382","NA","NA","864046","861777","NA","1625","861321","1625","1625","777488","806491","957311","955806","958340","817352","813661","847382","NA","736544","766359","845720","813431","861780","813665","NA","957311","957311","NA","NA","955802","NAP perception","26","35429","33","yes","1024"
"76.4705882353","yes","76.4705882353","1075.05882353","1075.05882353","white","no","xpyriment","Ich habe die obigen Informationen gelesen und verstanden.","legacy","legacy","0","uniform","0","0","0","undefined","undefined","0","j","2","1","NA","0","1","0","0","0","0","0","0","0","0","43","43","43","0","0","0","NA","0","0","2","0","0","0","2","43","43","43","43","43","Thu Oct 26 13:16:34 2017","Forced-choice identification task with a practice and an experimental phase","yes","NAP_GER_AA_4blocks_noglides.osexp","/Users/aviadalbert/Documents/Academisch/UoC/Dissertation/Experiment/OpenSesame/NAP-FC/NAP_GER_AA_4blocks_noglides","yes","no","sans","no","20","no","black","no","Weiter","yes","768","legacy","33","9","0","/Users/aviadalbert/Documents/Academisch/UoC/Dissertation/Experiment/OpenSesame/NAP-FC/NAP_GER_AA_4blocks_noglides/subject-25.csv","xpyriment","Jazzy James","3.1.9","yes","yes","59a800d99ad5a1025d81bb03","59a801616c613b0251691de0","no","no","0","f","f","space","NA","space","space","f","1123","2264","13883","NA","28999","6875","1123","2","legacy","1024","1","44100","-16","experiment","emsal","2","0","1","0","1","eng italian ","25","","odd","861781","847382","NA","NA","864046","861777","NA","1625","861321","1625","1625","777488","806491","960130","958626","961254","817352","813661","847382","NA","736544","766359","845720","813431","861780","813665","NA","960130","960130","NA","NA","958622","NAP perception","26","36552","34","yes","1024"
"77.1428571429","yes","77.1428571429","1080.94285714","1080.94285714","white","no","xpyriment","Ich habe die obigen Informationen gelesen und verstanden.","legacy","legacy","0","uniform","1","0","0","undefined","undefined","1","j","2","1","NA","0","1","0","0","0","0","0","0","0","0","44","44","44","0","0","0","NA","0","0","2","0","0","0","2","44","44","44","44","44","Thu Oct 26 13:16:34 2017","Forced-choice identification task with a practice and an experimental phase","yes","NAP_GER_AA_4blocks_noglides.osexp","/Users/aviadalbert/Documents/Academisch/UoC/Dissertation/Experiment/OpenSesame/NAP-FC/NAP_GER_AA_4blocks_noglides","yes","no","sans","no","20","no","black","no","Weiter","yes","768","legacy","34","9","0","/Users/aviadalbert/Documents/Academisch/UoC/Dissertation/Experiment/OpenSesame/NAP-FC/NAP_GER_AA_4blocks_noglides/subject-25.csv","xpyriment","Jazzy James","3.1.9","yes","yes","59a800d99ad5a1025d81bb03","59a801616c613b0251691de0","no","no","0","j","f","space","NA","space","space","j","1281","2264","13883","NA","28999","6875","1281","2","legacy","1024","1","44100","-16","experiment","mezal","2","0","1","0","1","eng italian ","25","","odd","861781","847382","NA","NA","864046","861777","NA","1625","861321","1625","1625","777488","806491","963037","961533","964319","817352","813661","847382","NA","736544","766359","845720","813431","861780","813665","NA","963036","963036","NA","NA","961529","NAP perception","27","37833","35","yes","1024"
"77.7777777778","yes","77.7777777778","1079.13888889","1079.13888889","white","no","xpyriment","Ich habe die obigen Informationen gelesen und verstanden.","legacy","legacy","0","uniform","1","0","0","undefined","undefined","1","j","2","1","NA","0","1","0","0","0","0","0","0","0","0","45","45","45","0","0","0","NA","0","0","2","0","0","0","2","45","45","45","45","45","Thu Oct 26 13:16:34 2017","Forced-choice identification task with a practice and an experimental phase","yes","NAP_GER_AA_4blocks_noglides.osexp","/Users/aviadalbert/Documents/Academisch/UoC/Dissertation/Experiment/OpenSesame/NAP-FC/NAP_GER_AA_4blocks_noglides","yes","no","sans","no","20","no","black","no","Weiter","yes","768","legacy","35","9","0","/Users/aviadalbert/Documents/Academisch/UoC/Dissertation/Experiment/OpenSesame/NAP-FC/NAP_GER_AA_4blocks_noglides/subject-25.csv","xpyriment","Jazzy James","3.1.9","yes","yes","59a800d99ad5a1025d81bb03","59a801616c613b0251691de0","no","no","0","j","f","space","NA","space","space","j","1016","2264","13883","NA","28999","6875","1016","2","legacy","1024","1","44100","-16","experiment","lepal","2","0","1","0","1","eng italian ","25","","odd","861781","847382","NA","NA","864046","861777","NA","1625","861321","1625","1625","777488","806491","966109","964603","967126","817352","813661","847382","NA","736544","766359","845720","813431","861780","813665","NA","966108","966108","NA","NA","964599","NAP perception","28","38849","36","yes","1024"
"78.3783783784","yes","78.3783783784","1094.91891892","1094.91891892","white","no","xpyriment","Ich habe die obigen Informationen gelesen und verstanden.","legacy","legacy","0","uniform","1","0","0","undefined","undefined","1","j","2","1","NA","0","1","0","0","0","0","0","0","0","0","46","46","46","0","0","0","NA","0","0","2","0","0","0","2","46","46","46","46","46","Thu Oct 26 13:16:34 2017","Forced-choice identification task with a practice and an experimental phase","yes","NAP_GER_AA_4blocks_noglides.osexp","/Users/aviadalbert/Documents/Academisch/UoC/Dissertation/Experiment/OpenSesame/NAP-FC/NAP_GER_AA_4blocks_noglides","yes","no","sans","no","20","no","black","no","Weiter","yes","768","legacy","36","9","0","/Users/aviadalbert/Documents/Academisch/UoC/Dissertation/Experiment/OpenSesame/NAP-FC/NAP_GER_AA_4blocks_noglides/subject-25.csv","xpyriment","Jazzy James","3.1.9","yes","yes","59a800d99ad5a1025d81bb03","59a801616c613b0251691de0","no","no","0","j","f","space","NA","space","space","j","1663","2264","13883","NA","28999","6875","1663","2","legacy","1024","1","44100","-16","experiment","efsal","2","0","1","0","1","eng italian ","25","","odd","861781","847382","NA","NA","864046","861777","NA","1625","861321","1625","1625","777488","806491","968911","967404","970576","817352","813661","847382","NA","736544","766359","845720","813431","861780","813665","NA","968911","968911","NA","NA","967400","NAP perception","29","40512","37","yes","1024"
"78.9473684211","yes","78.9473684211","1107.15789474","1107.15789474","white","no","xpyriment","Ich habe die obigen Informationen gelesen und verstanden.","legacy","legacy","0","uniform","1","0","0","undefined","undefined","1","f","2","1","NA","0","1","0","0","0","0","0","0","0","0","47","47","47","0","0","0","NA","0","0","2","0","0","0","2","47","47","47","47","47","Thu Oct 26 13:16:34 2017","Forced-choice identification task with a practice and an experimental phase","yes","NAP_GER_AA_4blocks_noglides.osexp","/Users/aviadalbert/Documents/Academisch/UoC/Dissertation/Experiment/OpenSesame/NAP-FC/NAP_GER_AA_4blocks_noglides","yes","no","sans","no","20","no","black","no","Weiter","yes","768","legacy","37","9","0","/Users/aviadalbert/Documents/Academisch/UoC/Dissertation/Experiment/OpenSesame/NAP-FC/NAP_GER_AA_4blocks_noglides/subject-25.csv","xpyriment","Jazzy James","3.1.9","yes","yes","59a800d99ad5a1025d81bb03","59a801616c613b0251691de0","no","no","0","f","f","space","NA","space","space","f","1560","2264","13883","NA","28999","6875","1560","2","legacy","1024","1","44100","-16","experiment","nfal","2","0","1","0","1","eng italian ","25","","odd","861781","847382","NA","NA","864046","861777","NA","1625","861321","1625","1625","777488","806491","972350","970842","973911","817352","813661","847382","NA","736544","766359","845720","813431","861780","813665","NA","972349","972350","NA","NA","970838","NAP perception","30","42072","38","yes","1024"
"79.4871794872","yes","79.4871794872","1110.84615385","1110.84615385","white","no","xpyriment","Ich habe die obigen Informationen gelesen und verstanden.","legacy","legacy","0","uniform","1","0","0","undefined","undefined","1","j","2","1","NA","0","1","0","0","0","0","0","0","0","0","48","48","48","0","0","0","NA","0","0","2","0","0","0","2","48","48","48","48","48","Thu Oct 26 13:16:34 2017","Forced-choice identification task with a practice and an experimental phase","yes","NAP_GER_AA_4blocks_noglides.osexp","/Users/aviadalbert/Documents/Academisch/UoC/Dissertation/Experiment/OpenSesame/NAP-FC/NAP_GER_AA_4blocks_noglides","yes","no","sans","no","20","no","black","no","Weiter","yes","768","legacy","38","9","0","/Users/aviadalbert/Documents/Academisch/UoC/Dissertation/Experiment/OpenSesame/NAP-FC/NAP_GER_AA_4blocks_noglides/subject-25.csv","xpyriment","Jazzy James","3.1.9","yes","yes","59a800d99ad5a1025d81bb03","59a801616c613b0251691de0","no","no","0","j","f","space","NA","space","space","j","1251","2264","13883","NA","28999","6875","1251","2","legacy","1024","1","44100","-16","experiment","enval","2","0","1","0","1","eng italian ","25","","odd","861781","847382","NA","NA","864046","861777","NA","1625","861321","1625","1625","777488","806491","975700","974196","976952","817352","813661","847382","NA","736544","766359","845720","813431","861780","813665","NA","975699","975699","NA","NA","974192","NAP perception","31","43323","39","yes","1024"
"77.5","yes","77.5","1122.8","1122.8","white","no","xpyriment","Ich habe die obigen Informationen gelesen und verstanden.","legacy","legacy","0","uniform","0","0","0","undefined","undefined","0","f","2","1","NA","0","1","0","0","0","0","0","0","0","0","49","49","49","0","0","0","NA","0","0","2","0","0","0","2","49","49","49","49","49","Thu Oct 26 13:16:34 2017","Forced-choice identification task with a practice and an experimental phase","yes","NAP_GER_AA_4blocks_noglides.osexp","/Users/aviadalbert/Documents/Academisch/UoC/Dissertation/Experiment/OpenSesame/NAP-FC/NAP_GER_AA_4blocks_noglides","yes","no","sans","no","20","no","black","no","Weiter","yes","768","legacy","39","9","0","/Users/aviadalbert/Documents/Academisch/UoC/Dissertation/Experiment/OpenSesame/NAP-FC/NAP_GER_AA_4blocks_noglides/subject-25.csv","xpyriment","Jazzy James","3.1.9","yes","yes","59a800d99ad5a1025d81bb03","59a801616c613b0251691de0","no","no","0","j","f","space","NA","space","space","j","1589","2264","13883","NA","28999","6875","1589","2","legacy","1024","1","44100","-16","experiment","lpal","2","0","1","0","1","eng italian ","25","","odd","861781","847382","NA","NA","864046","861777","NA","1625","861321","1625","1625","777488","806491","978741","977236","980332","817352","813661","847382","NA","736544","766359","845720","813431","861780","813665","NA","978740","978741","NA","NA","977232","NAP perception","31","44912","40","yes","1024"
"78.0487804878","yes","78.0487804878","1123.12195122","1123.12195122","white","no","xpyriment","Ich habe die obigen Informationen gelesen und verstanden.","legacy","legacy","0","uniform","1","0","0","undefined","undefined","1","f","2","1","NA","0","1","0","0","0","0","0","0","0","0","50","50","50","0","0","0","NA","0","0","2","0","0","0","2","50","50","50","50","50","Thu Oct 26 13:16:34 2017","Forced-choice identification task with a practice and an experimental phase","yes","NAP_GER_AA_4blocks_noglides.osexp","/Users/aviadalbert/Documents/Academisch/UoC/Dissertation/Experiment/OpenSesame/NAP-FC/NAP_GER_AA_4blocks_noglides","yes","no","sans","no","20","no","black","no","Weiter","yes","768","legacy","40","9","0","/Users/aviadalbert/Documents/Academisch/UoC/Dissertation/Experiment/OpenSesame/NAP-FC/NAP_GER_AA_4blocks_noglides/subject-25.csv","xpyriment","Jazzy James","3.1.9","yes","yes","59a800d99ad5a1025d81bb03","59a801616c613b0251691de0","no","no","0","f","f","space","NA","space","space","f","1136","2264","13883","NA","28999","6875","1136","2","legacy","1024","1","44100","-16","experiment","zmal","2","0","1","0","1","eng italian ","25","","odd","861781","847382","NA","NA","864046","861777","NA","1625","861321","1625","1625","777488","806491","982116","980612","983253","817352","813661","847382","NA","736544","766359","845720","813431","861780","813665","NA","982116","982116","NA","NA","980607","NAP perception","32","46048","41","yes","1024"
"78.5714285714","yes","78.5714285714","1124.04761905","1124.04761905","white","no","xpyriment","Ich habe die obigen Informationen gelesen und verstanden.","legacy","legacy","0","uniform","1","0","0","undefined","undefined","1","j","2","1","NA","0","1","0","0","0","0","0","0","0","0","51","51","51","0","0","0","NA","0","0","2","0","0","0","2","51","51","51","51","51","Thu Oct 26 13:16:34 2017","Forced-choice identification task with a practice and an experimental phase","yes","NAP_GER_AA_4blocks_noglides.osexp","/Users/aviadalbert/Documents/Academisch/UoC/Dissertation/Experiment/OpenSesame/NAP-FC/NAP_GER_AA_4blocks_noglides","yes","no","sans","no","20","no","black","no","Weiter","yes","768","legacy","41","9","0","/Users/aviadalbert/Documents/Academisch/UoC/Dissertation/Experiment/OpenSesame/NAP-FC/NAP_GER_AA_4blocks_noglides/subject-25.csv","xpyriment","Jazzy James","3.1.9","yes","yes","59a800d99ad5a1025d81bb03","59a801616c613b0251691de0","no","no","0","j","f","space","NA","space","space","j","1162","2264","13883","NA","28999","6875","1162","2","legacy","1024","1","44100","-16","experiment","elmal","2","0","1","0","1","eng italian ","25","","odd","861781","847382","NA","NA","864046","861777","NA","1625","861321","1625","1625","777488","806491","985034","983527","986197","817352","813661","847382","NA","736544","766359","845720","813431","861780","813665","NA","985034","985034","NA","NA","983522","NAP perception","33","47210","42","yes","1024"
"79.0697674419","yes","79.0697674419","1120.8372093","1120.8372093","white","no","xpyriment","Ich habe die obigen Informationen gelesen und verstanden.","legacy","legacy","0","uniform","1","0","0","undefined","undefined","1","j","2","1","NA","0","1","0","0","0","0","0","0","0","0","52","52","52","0","0","0","NA","0","0","2","0","0","0","2","52","52","52","52","52","Thu Oct 26 13:16:34 2017","Forced-choice identification task with a practice and an experimental phase","yes","NAP_GER_AA_4blocks_noglides.osexp","/Users/aviadalbert/Documents/Academisch/UoC/Dissertation/Experiment/OpenSesame/NAP-FC/NAP_GER_AA_4blocks_noglides","yes","no","sans","no","20","no","black","no","Weiter","yes","768","legacy","42","9","0","/Users/aviadalbert/Documents/Academisch/UoC/Dissertation/Experiment/OpenSesame/NAP-FC/NAP_GER_AA_4blocks_noglides/subject-25.csv","xpyriment","Jazzy James","3.1.9","yes","yes","59a800d99ad5a1025d81bb03","59a801616c613b0251691de0","no","no","0","j","f","space","NA","space","space","j","986","2264","13883","NA","28999","6875","986","2","legacy","1024","1","44100","-16","experiment","elfal","2","0","1","0","1","eng italian ","25","","odd","861781","847382","NA","NA","864046","861777","NA","1625","861321","1625","1625","777488","806491","987986","986478","988973","817352","813661","847382","NA","736544","766359","845720","813431","861780","813665","NA","987986","987986","NA","NA","986474","NAP perception","34","48196","43","yes","1024"
"79.5454545455","yes","79.5454545455","1115.29545455","1115.29545455","white","no","xpyriment","Ich habe die obigen Informationen gelesen und verstanden.","legacy","legacy","0","uniform","1","0","0","undefined","undefined","1","j","2","1","NA","0","1","0","0","0","0","0","0","0","0","53","53","53","0","0","0","NA","0","0","2","0","0","0","2","53","53","53","53","53","Thu Oct 26 13:16:34 2017","Forced-choice identification task with a practice and an experimental phase","yes","NAP_GER_AA_4blocks_noglides.osexp","/Users/aviadalbert/Documents/Academisch/UoC/Dissertation/Experiment/OpenSesame/NAP-FC/NAP_GER_AA_4blocks_noglides","yes","no","sans","no","20","no","black","no","Weiter","yes","768","legacy","43","9","0","/Users/aviadalbert/Documents/Academisch/UoC/Dissertation/Experiment/OpenSesame/NAP-FC/NAP_GER_AA_4blocks_noglides/subject-25.csv","xpyriment","Jazzy James","3.1.9","yes","yes","59a800d99ad5a1025d81bb03","59a801616c613b0251691de0","no","no","0","j","f","space","NA","space","space","j","877","2264","13883","NA","28999","6875","877","2","legacy","1024","1","44100","-16","experiment","melal","2","0","1","0","1","eng italian ","25","","odd","861781","847382","NA","NA","864046","861777","NA","1625","861321","1625","1625","777488","806491","990749","989245","991627","817352","813661","847382","NA","736544","766359","845720","813431","861780","813665","NA","990749","990749","NA","NA","989241","NAP perception","35","49073","44","yes","1024"
"80","yes","80","1117.37777778","1117.37777778","white","no","xpyriment","Ich habe die obigen Informationen gelesen und verstanden.","legacy","legacy","0","uniform","1","0","0","undefined","undefined","1","j","2","1","NA","0","1","0","0","0","0","0","0","0","0","54","54","54","0","0","0","NA","0","0","2","0","0","0","2","54","54","54","54","54","Thu Oct 26 13:16:34 2017","Forced-choice identification task with a practice and an experimental phase","yes","NAP_GER_AA_4blocks_noglides.osexp","/Users/aviadalbert/Documents/Academisch/UoC/Dissertation/Experiment/OpenSesame/NAP-FC/NAP_GER_AA_4blocks_noglides","yes","no","sans","no","20","no","black","no","Weiter","yes","768","legacy","44","9","0","/Users/aviadalbert/Documents/Academisch/UoC/Dissertation/Experiment/OpenSesame/NAP-FC/NAP_GER_AA_4blocks_noglides/subject-25.csv","xpyriment","Jazzy James","3.1.9","yes","yes","59a800d99ad5a1025d81bb03","59a801616c613b0251691de0","no","no","0","j","f","space","NA","space","space","j","1209","2264","13883","NA","28999","6875","1209","2","legacy","1024","1","44100","-16","experiment","semal","2","0","1","0","1","eng italian ","25","","odd","861781","847382","NA","NA","864046","861777","NA","1625","861321","1625","1625","777488","806491","993418","991913","994629","817352","813661","847382","NA","736544","766359","845720","813431","861780","813665","NA","993417","993418","NA","NA","991908","NAP perception","36","50282","45","yes","1024"
"80.4347826087","yes","80.4347826087","1115.97826087","1115.97826087","white","no","xpyriment","Ich habe die obigen Informationen gelesen und verstanden.","legacy","legacy","0","uniform","1","0","0","undefined","undefined","1","j","2","1","NA","0","1","0","0","0","0","0","0","0","0","55","55","55","0","0","0","NA","0","0","2","0","0","0","2","55","55","55","55","55","Thu Oct 26 13:16:34 2017","Forced-choice identification task with a practice and an experimental phase","yes","NAP_GER_AA_4blocks_noglides.osexp","/Users/aviadalbert/Documents/Academisch/UoC/Dissertation/Experiment/OpenSesame/NAP-FC/NAP_GER_AA_4blocks_noglides","yes","no","sans","no","20","no","black","no","Weiter","yes","768","legacy","45","9","0","/Users/aviadalbert/Documents/Academisch/UoC/Dissertation/Experiment/OpenSesame/NAP-FC/NAP_GER_AA_4blocks_noglides/subject-25.csv","xpyriment","Jazzy James","3.1.9","yes","yes","59a800d99ad5a1025d81bb03","59a801616c613b0251691de0","no","no","0","j","f","space","NA","space","space","j","1053","2264","13883","NA","28999","6875","1053","2","legacy","1024","1","44100","-16","experiment","elval","2","0","1","0","1","eng italian ","25","","odd","861781","847382","NA","NA","864046","861777","NA","1625","861321","1625","1625","777488","806491","996430","994923","997485","817352","813661","847382","NA","736544","766359","845720","813431","861780","813665","NA","996430","996430","NA","NA","994919","NAP perception","37","51335","46","yes","1024"
"78.7234042553","yes","78.7234042553","1108.93617021","1108.93617021","white","no","xpyriment","Ich habe die obigen Informationen gelesen und verstanden.","legacy","legacy","0","uniform","0","0","0","undefined","undefined","0","f","2","1","NA","0","1","0","0","0","0","0","0","0","0","56","56","56","0","0","0","NA","0","0","2","0","0","0","2","56","56","56","56","56","Thu Oct 26 13:16:34 2017","Forced-choice identification task with a practice and an experimental phase","yes","NAP_GER_AA_4blocks_noglides.osexp","/Users/aviadalbert/Documents/Academisch/UoC/Dissertation/Experiment/OpenSesame/NAP-FC/NAP_GER_AA_4blocks_noglides","yes","no","sans","no","20","no","black","no","Weiter","yes","768","legacy","46","9","0","/Users/aviadalbert/Documents/Academisch/UoC/Dissertation/Experiment/OpenSesame/NAP-FC/NAP_GER_AA_4blocks_noglides/subject-25.csv","xpyriment","Jazzy James","3.1.9","yes","yes","59a800d99ad5a1025d81bb03","59a801616c613b0251691de0","no","no","0","j","f","space","NA","space","space","j","785","2264","13883","NA","28999","6875","785","2","legacy","1024","1","44100","-16","experiment","lval","2","0","1","0","1","eng italian ","25","","odd","861781","847382","NA","NA","864046","861777","NA","1625","861321","1625","1625","777488","806491","999280","997776","1000067","817352","813661","847382","NA","736544","766359","845720","813431","861780","813665","NA","999280","999280","NA","NA","997772","NAP perception","37","52120","47","yes","1024"
"79.1666666667","yes","79.1666666667","1109.79166667","1109.79166667","white","no","xpyriment","Ich habe die obigen Informationen gelesen und verstanden.","legacy","legacy","0","uniform","1","0","0","undefined","undefined","1","j","2","1","NA","0","1","0","0","0","0","0","0","0","0","57","57","57","0","0","0","NA","0","0","2","0","0","0","2","57","57","57","57","57","Thu Oct 26 13:16:34 2017","Forced-choice identification task with a practice and an experimental phase","yes","NAP_GER_AA_4blocks_noglides.osexp","/Users/aviadalbert/Documents/Academisch/UoC/Dissertation/Experiment/OpenSesame/NAP-FC/NAP_GER_AA_4blocks_noglides","yes","no","sans","no","20","no","black","no","Weiter","yes","768","legacy","47","9","0","/Users/aviadalbert/Documents/Academisch/UoC/Dissertation/Experiment/OpenSesame/NAP-FC/NAP_GER_AA_4blocks_noglides/subject-25.csv","xpyriment","Jazzy James","3.1.9","yes","yes","59a800d99ad5a1025d81bb03","59a801616c613b0251691de0","no","no","0","j","f","space","NA","space","space","j","1150","2264","13883","NA","28999","6875","1150","2","legacy","1024","1","44100","-16","experiment","evlal","2","0","1","0","1","eng italian ","25","","odd","861781","847382","NA","NA","864046","861777","NA","1625","861321","1625","1625","777488","806491","1001839","1000336","1002991","817352","813661","847382","NA","736544","766359","845720","813431","861780","813665","NA","1001839","1001839","NA","NA","1000331","NAP perception","38","53270","48","yes","1024"
"77.5510204082","yes","77.5510204082","1112.89795918","1112.89795918","white","no","xpyriment","Ich habe die obigen Informationen gelesen und verstanden.","legacy","legacy","0","uniform","0","0","0","undefined","undefined","0","f","2","1","NA","0","1","0","0","0","0","0","0","0","0","58","58","58","0","0","0","NA","0","0","2","0","0","0","2","58","58","58","58","58","Thu Oct 26 13:16:34 2017","Forced-choice identification task with a practice and an experimental phase","yes","NAP_GER_AA_4blocks_noglides.osexp","/Users/aviadalbert/Documents/Academisch/UoC/Dissertation/Experiment/OpenSesame/NAP-FC/NAP_GER_AA_4blocks_noglides","yes","no","sans","no","20","no","black","no","Weiter","yes","768","legacy","48","9","0","/Users/aviadalbert/Documents/Academisch/UoC/Dissertation/Experiment/OpenSesame/NAP-FC/NAP_GER_AA_4blocks_noglides/subject-25.csv","xpyriment","Jazzy James","3.1.9","yes","yes","59a800d99ad5a1025d81bb03","59a801616c613b0251691de0","no","no","0","j","f","space","NA","space","space","j","1262","2264","13883","NA","28999","6875","1262","2","legacy","1024","1","44100","-16","experiment","msal","2","0","1","0","1","eng italian ","25","","odd","861781","847382","NA","NA","864046","861777","NA","1625","861321","1625","1625","777488","806491","1004784","1003280","1006048","817352","813661","847382","NA","736544","766359","845720","813431","861780","813665","NA","1004783","1004784","NA","NA","1003276","NAP perception","38","54532","49","yes","1024"
"76","yes","76","1119.34","1119.34","white","no","xpyriment","Ich habe die obigen Informationen gelesen und verstanden.","legacy","legacy","0","uniform","0","0","0","undefined","undefined","0","f","2","1","NA","0","1","0","0","0","0","0","0","0","0","59","59","59","0","0","0","NA","0","0","2","0","0","0","2","59","59","59","59","59","Thu Oct 26 13:16:34 2017","Forced-choice identification task with a practice and an experimental phase","yes","NAP_GER_AA_4blocks_noglides.osexp","/Users/aviadalbert/Documents/Academisch/UoC/Dissertation/Experiment/OpenSesame/NAP-FC/NAP_GER_AA_4blocks_noglides","yes","no","sans","no","20","no","black","no","Weiter","yes","768","legacy","49","9","0","/Users/aviadalbert/Documents/Academisch/UoC/Dissertation/Experiment/OpenSesame/NAP-FC/NAP_GER_AA_4blocks_noglides/subject-25.csv","xpyriment","Jazzy James","3.1.9","yes","yes","59a800d99ad5a1025d81bb03","59a801616c613b0251691de0","no","no","0","j","f","space","NA","space","space","j","1435","2264","13883","NA","28999","6875","1435","2","legacy","1024","1","44100","-16","experiment","mlal","2","0","1","0","1","eng italian ","25","","odd","861781","847382","NA","NA","864046","861777","NA","1625","861321","1625","1625","777488","806491","1007845","1006340","1009282","817352","813661","847382","NA","736544","766359","845720","813431","861780","813665","NA","1007845","1007845","NA","NA","1006336","NAP perception","38","55967","50","yes","1024"
"76.4705882353","yes","76.4705882353","1134.1372549","1134.1372549","white","no","xpyriment","Ich habe die obigen Informationen gelesen und verstanden.","legacy","legacy","0","uniform","1","0","0","undefined","undefined","1","f","2","1","NA","0","1","0","0","0","0","0","0","0","0","60","60","60","0","0","0","NA","0","0","2","0","0","0","2","60","60","60","60","60","Thu Oct 26 13:16:34 2017","Forced-choice identification task with a practice and an experimental phase","yes","NAP_GER_AA_4blocks_noglides.osexp","/Users/aviadalbert/Documents/Academisch/UoC/Dissertation/Experiment/OpenSesame/NAP-FC/NAP_GER_AA_4blocks_noglides","yes","no","sans","no","20","no","black","no","Weiter","yes","768","legacy","50","9","0","/Users/aviadalbert/Documents/Academisch/UoC/Dissertation/Experiment/OpenSesame/NAP-FC/NAP_GER_AA_4blocks_noglides/subject-25.csv","xpyriment","Jazzy James","3.1.9","yes","yes","59a800d99ad5a1025d81bb03","59a801616c613b0251691de0","no","no","0","f","f","space","NA","space","space","f","1874","2264","13883","NA","28999","6875","1874","2","legacy","1024","1","44100","-16","experiment","ftal","2","0","1","0","1","eng italian ","25","","odd","861781","847382","NA","NA","864046","861777","NA","1625","861321","1625","1625","777488","806491","1011059","1009555","1012935","817352","813661","847382","NA","736544","766359","845720","813431","861780","813665","NA","1011058","1011058","NA","NA","1009550","NAP perception","39","57841","51","yes","1024"
"76.9230769231","yes","76.9230769231","1135.88461538","1135.88461538","white","no","xpyriment","Ich habe die obigen Informationen gelesen und verstanden.","legacy","legacy","0","uniform","1","0","0","undefined","undefined","1","j","2","1","NA","0","1","0","0","0","0","0","0","0","0","61","61","61","0","0","0","NA","0","0","2","0","0","0","2","61","61","61","61","61","Thu Oct 26 13:16:34 2017","Forced-choice identification task with a practice and an experimental phase","yes","NAP_GER_AA_4blocks_noglides.osexp","/Users/aviadalbert/Documents/Academisch/UoC/Dissertation/Experiment/OpenSesame/NAP-FC/NAP_GER_AA_4blocks_noglides","yes","no","sans","no","20","no","black","no","Weiter","yes","768","legacy","51","9","0","/Users/aviadalbert/Documents/Academisch/UoC/Dissertation/Experiment/OpenSesame/NAP-FC/NAP_GER_AA_4blocks_noglides/subject-25.csv","xpyriment","Jazzy James","3.1.9","yes","yes","59a800d99ad5a1025d81bb03","59a801616c613b0251691de0","no","no","0","j","f","space","NA","space","space","j","1225","2264","13883","NA","28999","6875","1225","2","legacy","1024","1","44100","-16","experiment","lemal","2","0","1","0","1","eng italian ","25","","odd","861781","847382","NA","NA","864046","861777","NA","1625","861321","1625","1625","777488","806491","1014702","1013198","1015928","817352","813661","847382","NA","736544","766359","845720","813431","861780","813665","NA","1014701","1014701","NA","NA","1013194","NAP perception","40","59066","52","yes","1024"
"77.358490566","yes","77.358490566","1142.79245283","1142.79245283","white","no","xpyriment","Ich habe die obigen Informationen gelesen und verstanden.","legacy","legacy","0","uniform","1","0","0","undefined","undefined","1","j","2","1","NA","0","1","0","0","0","0","0","0","0","0","62","62","62","0","0","0","NA","0","0","2","0","0","0","2","62","62","62","62","62","Thu Oct 26 13:16:34 2017","Forced-choice identification task with a practice and an experimental phase","yes","NAP_GER_AA_4blocks_noglides.osexp","/Users/aviadalbert/Documents/Academisch/UoC/Dissertation/Experiment/OpenSesame/NAP-FC/NAP_GER_AA_4blocks_noglides","yes","no","sans","no","20","no","black","no","Weiter","yes","768","legacy","52","9","0","/Users/aviadalbert/Documents/Academisch/UoC/Dissertation/Experiment/OpenSesame/NAP-FC/NAP_GER_AA_4blocks_noglides/subject-25.csv","xpyriment","Jazzy James","3.1.9","yes","yes","59a800d99ad5a1025d81bb03","59a801616c613b0251691de0","no","no","0","j","f","space","NA","space","space","j","1502","2264","13883","NA","28999","6875","1502","2","legacy","1024","1","44100","-16","experiment","emzal","2","0","1","0","1","eng italian ","25","","odd","861781","847382","NA","NA","864046","861777","NA","1625","861321","1625","1625","777488","806491","1017717","1016211","1019221","817352","813661","847382","NA","736544","766359","845720","813431","861780","813665","NA","1017717","1017717","NA","NA","1016207","NAP perception","41","60568","53","yes","1024"
"77.7777777778","yes","77.7777777778","1147.18518519","1147.18518519","white","no","xpyriment","Ich habe die obigen Informationen gelesen und verstanden.","legacy","legacy","0","uniform","1","0","0","undefined","undefined","1","j","2","1","NA","0","1","0","0","0","0","0","0","0","0","63","63","63","0","0","0","NA","0","0","2","0","0","0","2","63","63","63","63","63","Thu Oct 26 13:16:34 2017","Forced-choice identification task with a practice and an experimental phase","yes","NAP_GER_AA_4blocks_noglides.osexp","/Users/aviadalbert/Documents/Academisch/UoC/Dissertation/Experiment/OpenSesame/NAP-FC/NAP_GER_AA_4blocks_noglides","yes","no","sans","no","20","no","black","no","Weiter","yes","768","legacy","53","9","0","/Users/aviadalbert/Documents/Academisch/UoC/Dissertation/Experiment/OpenSesame/NAP-FC/NAP_GER_AA_4blocks_noglides/subject-25.csv","xpyriment","Jazzy James","3.1.9","yes","yes","59a800d99ad5a1025d81bb03","59a801616c613b0251691de0","no","no","0","j","f","space","NA","space","space","j","1380","2264","13883","NA","28999","6875","1380","2","legacy","1024","1","44100","-16","experiment","fenal","2","0","1","0","1","eng italian ","25","","odd","861781","847382","NA","NA","864046","861777","NA","1625","861321","1625","1625","777488","806491","1021015","1019508","1022397","817352","813661","847382","NA","736544","766359","845720","813431","861780","813665","NA","1021015","1021015","NA","NA","1019504","NAP perception","42","61948","54","yes","1024"
"78.1818181818","yes","78.1818181818","1153.05454545","1153.05454545","white","no","xpyriment","Ich habe die obigen Informationen gelesen und verstanden.","legacy","legacy","0","uniform","1","0","0","undefined","undefined","1","j","2","1","NA","0","1","0","0","0","0","0","0","0","0","64","64","64","0","0","0","NA","0","0","2","0","0","0","2","64","64","64","64","64","Thu Oct 26 13:16:34 2017","Forced-choice identification task with a practice and an experimental phase","yes","NAP_GER_AA_4blocks_noglides.osexp","/Users/aviadalbert/Documents/Academisch/UoC/Dissertation/Experiment/OpenSesame/NAP-FC/NAP_GER_AA_4blocks_noglides","yes","no","sans","no","20","no","black","no","Weiter","yes","768","legacy","54","9","0","/Users/aviadalbert/Documents/Academisch/UoC/Dissertation/Experiment/OpenSesame/NAP-FC/NAP_GER_AA_4blocks_noglides/subject-25.csv","xpyriment","Jazzy James","3.1.9","yes","yes","59a800d99ad5a1025d81bb03","59a801616c613b0251691de0","no","no","0","j","f","space","NA","space","space","j","1470","2264","13883","NA","28999","6875","1470","2","legacy","1024","1","44100","-16","experiment","menal","2","0","1","0","1","eng italian ","25","","odd","861781","847382","NA","NA","864046","861777","NA","1625","861321","1625","1625","777488","806491","1024178","1022671","1025649","817352","813661","847382","NA","736544","766359","845720","813431","861780","813665","NA","1024177","1024177","NA","NA","1022667","NAP perception","43","63418","55","yes","1024"
"78.5714285714","yes","78.5714285714","1155.39285714","1155.39285714","white","no","xpyriment","Ich habe die obigen Informationen gelesen und verstanden.","legacy","legacy","0","uniform","1","0","0","undefined","undefined","1","j","2","1","NA","0","1","0","0","0","0","0","0","0","0","65","65","65","0","0","0","NA","0","0","2","0","0","0","2","65","65","65","65","65","Thu Oct 26 13:16:34 2017","Forced-choice identification task with a practice and an experimental phase","yes","NAP_GER_AA_4blocks_noglides.osexp","/Users/aviadalbert/Documents/Academisch/UoC/Dissertation/Experiment/OpenSesame/NAP-FC/NAP_GER_AA_4blocks_noglides","yes","no","sans","no","20","no","black","no","Weiter","yes","768","legacy","55","9","0","/Users/aviadalbert/Documents/Academisch/UoC/Dissertation/Experiment/OpenSesame/NAP-FC/NAP_GER_AA_4blocks_noglides/subject-25.csv","xpyriment","Jazzy James","3.1.9","yes","yes","59a800d99ad5a1025d81bb03","59a801616c613b0251691de0","no","no","0","j","f","space","NA","space","space","j","1284","2264","13883","NA","28999","6875","1284","2","legacy","1024","1","44100","-16","experiment","ezval","2","0","1","0","1","eng italian ","25","","odd","861781","847382","NA","NA","864046","861777","NA","1625","861321","1625","1625","777488","806491","1027424","1025920","1028709","817352","813661","847382","NA","736544","766359","845720","813431","861780","813665","NA","1027423","1027423","NA","NA","1025916","NAP perception","44","64702","56","yes","1024"
