"acc","accept_status","accuracy","average_response_time","avg_rt","background","bidi","canvas_backend","checkbox_status","clock_backend","color_backend","compensation","coordinates","correct","correct_block_activation","correct_block_exit","correct_instructions_1","correct_instructions_2","correct_keyboard_response","correct_response","count_block_activation","count_block_exit","count_block_info_QA","count_e_block_loop","count_e_block_sequence","count_end_of_experiment","count_experiment","count_experimental_loop","count_form_consent","count_info_forms","count_instructions_1","count_instructions_2","count_keyboard_response","count_listen_message","count_logger","count_p_block_loop","count_p_block_sequence","count_p_feedback","count_personal_details_form_1","count_personal_details_form_2","count_post_loop_blank","count_practice_loop","count_pre_e_block_message","count_pre_p_block_message","count_reset_feedback","count_stimulus_image","count_stimulus_sound","count_timeout_message","count_timeout_sound","count_trial_sequence","datetime","description","disable_garbage_collection","experiment_file","experiment_path","expyriment_opengl","font_bold","font_family","font_italic","font_size","font_underline","foreground","form_clicks","form_response","fullscreen","height","keyboard_backend","live_row","live_row_p_block_loop","live_row_practice_loop","logfile","mouse_backend","opensesame_codename","opensesame_version","osf_always_upload_data","osf_always_upload_experiment","osf_datanode_id","osf_id","practice","pygame_doublebuf","repeat_cycle","response","response_block_activation","response_block_exit","response_block_info_QA","response_instructions_1","response_instructions_2","response_keyboard_response","response_time","response_time_block_activation","response_time_block_exit","response_time_block_info_QA","response_time_instructions_1","response_time_instructions_2","response_time_keyboard_response","round_decimals","sampler_backend","sound_buf_size","sound_channels","sound_freq","sound_sample_size","start","stimulus","subject_age","subject_birth","subject_education","subject_gender","subject_handedness","subject_language_native","subject_language_other","subject_nr","subject_parity","subject_residence","time_block_activation","time_block_exit","time_block_info_QA","time_e_block_loop","time_e_block_sequence","time_end_of_experiment","time_experiment","time_experimental_loop","time_form_consent","time_info_forms","time_instructions_1","time_instructions_2","time_keyboard_response","time_listen_message","time_logger","time_p_block_loop","time_p_block_sequence","time_p_feedback","time_personal_details_form_1","time_personal_details_form_2","time_post_loop_blank","time_practice_loop","time_pre_e_block_message","time_pre_p_block_message","time_reset_feedback","time_stimulus_image","time_stimulus_sound","time_timeout_message","time_timeout_sound","time_trial_sequence","title","total_correct","total_response_time","total_responses","uniform_coordinates","width"
"100","yes","100","2734","2734","white","no","xpyriment","I have read and understood the information shown above","legacy","legacy","0","uniform","1","0","NA","undefined","undefined","1","f","0","0","NA","NA","NA","NA","0","0","0","0","0","0","0","0","0","0","0","NA","0","0","0","0","NA","0","0","0","0","0","0","0","Wed Jun 28 14:43:58 2017","Forced-choice identification task with a practice and an experimental phase","yes","NAP-FC_GER_AA_ver-2.osexp","/Users/aviadalbert/Documents/Academisch/UoC/Dissertation/Experiment/OpenSesame/NAP-FC/NAP-FC_GER_AA/GER_AA_ver-2","yes","no","sans","no","20","no","black","no","Next","yes","768","legacy","0","0","0","/Users/aviadalbert/Documents/Academisch/UoC/Dissertation/Experiment/OpenSesame/NAP-FC/NAP-FC_GER_AA/GER_AA_ver-2/subject-1.csv","xpyriment","Jazzy James","3.1.6","yes","yes","5950408a6c613b0229e3e810","59504237594d9002288b1720","yes","no","0","f","f","NA","NA","return","return","f","2734","41970","NA","NA","27708","3419","2734","2","legacy","1024","1","44100","-16","experiment","flal","28","Freiburg im Breisgau, DE","1","0","1","deutsch","englisch, finnisch","1","odd","Köln","794588","NA","NA","NA","NA","NA","583421","NA","583421","583421","763185","790897","838264","836760","841000","836559","794585","NA","603332","732465","NA","794375","NA","794588","NA","838264","838264","NA","NA","836756","NAP perception","1","2734","1","yes","1024"
"100","yes","100","1897","1897","white","no","xpyriment","I have read and understood the information shown above","legacy","legacy","0","uniform","1","0","NA","undefined","undefined","1","j","0","0","NA","NA","NA","NA","0","0","0","0","0","0","1","1","1","0","0","NA","0","0","0","0","NA","0","0","1","1","1","1","1","Wed Jun 28 14:43:58 2017","Forced-choice identification task with a practice and an experimental phase","yes","NAP-FC_GER_AA_ver-2.osexp","/Users/aviadalbert/Documents/Academisch/UoC/Dissertation/Experiment/OpenSesame/NAP-FC/NAP-FC_GER_AA/GER_AA_ver-2","yes","no","sans","no","20","no","black","no","Next","yes","768","legacy","1","1","0","/Users/aviadalbert/Documents/Academisch/UoC/Dissertation/Experiment/OpenSesame/NAP-FC/NAP-FC_GER_AA/GER_AA_ver-2/subject-1.csv","xpyriment","Jazzy James","3.1.6","yes","yes","5950408a6c613b0229e3e810","59504237594d9002288b1720","yes","no","0","j","f","NA","NA","return","return","j","1060","41970","NA","NA","27708","3419","1060","2","legacy","1024","1","44100","-16","experiment","lepal","28","Freiburg im Breisgau, DE","1","0","1","deutsch","englisch, finnisch","1","odd","Köln","794588","NA","NA","NA","NA","NA","583421","NA","583421","583421","763185","790897","842775","841269","843836","836559","794585","NA","603332","732465","NA","794375","NA","794588","NA","842775","842775","NA","NA","841265","NAP perception","2","3794","2","yes","1024"
"100","yes","100","1649.66666667","1649.66666667","white","no","xpyriment","I have read and understood the information shown above","legacy","legacy","0","uniform","1","0","NA","undefined","undefined","1","j","0","0","NA","NA","NA","NA","0","0","0","0","0","0","2","2","2","0","0","NA","0","0","0","0","NA","0","0","2","2","2","2","2","Wed Jun 28 14:43:58 2017","Forced-choice identification task with a practice and an experimental phase","yes","NAP-FC_GER_AA_ver-2.osexp","/Users/aviadalbert/Documents/Academisch/UoC/Dissertation/Experiment/OpenSesame/NAP-FC/NAP-FC_GER_AA/GER_AA_ver-2","yes","no","sans","no","20","no","black","no","Next","yes","768","legacy","2","2","0","/Users/aviadalbert/Documents/Academisch/UoC/Dissertation/Experiment/OpenSesame/NAP-FC/NAP-FC_GER_AA/GER_AA_ver-2/subject-1.csv","xpyriment","Jazzy James","3.1.6","yes","yes","5950408a6c613b0229e3e810","59504237594d9002288b1720","yes","no","0","j","f","NA","NA","return","return","j","1155","41970","NA","NA","27708","3419","1155","2","legacy","1024","1","44100","-16","experiment","emtal","28","Freiburg im Breisgau, DE","1","0","1","deutsch","englisch, finnisch","1","odd","Köln","794588","NA","NA","NA","NA","NA","583421","NA","583421","583421","763185","790897","845614","844111","846770","836559","794585","NA","603332","732465","NA","794375","NA","794588","NA","845614","845614","NA","NA","844106","NAP perception","3","4949","3","yes","1024"
"100","yes","100","1702.5","1702.5","white","no","xpyriment","I have read and understood the information shown above","legacy","legacy","0","uniform","1","0","NA","undefined","undefined","1","f","0","0","NA","NA","NA","NA","0","0","0","0","0","0","3","3","3","0","0","NA","0","0","0","0","NA","0","0","3","3","3","3","3","Wed Jun 28 14:43:58 2017","Forced-choice identification task with a practice and an experimental phase","yes","NAP-FC_GER_AA_ver-2.osexp","/Users/aviadalbert/Documents/Academisch/UoC/Dissertation/Experiment/OpenSesame/NAP-FC/NAP-FC_GER_AA/GER_AA_ver-2","yes","no","sans","no","20","no","black","no","Next","yes","768","legacy","3","3","0","/Users/aviadalbert/Documents/Academisch/UoC/Dissertation/Experiment/OpenSesame/NAP-FC/NAP-FC_GER_AA/GER_AA_ver-2/subject-1.csv","xpyriment","Jazzy James","3.1.6","yes","yes","5950408a6c613b0229e3e810","59504237594d9002288b1720","yes","no","0","f","f","NA","NA","return","return","f","1861","41970","NA","NA","27708","3419","1861","2","legacy","1024","1","44100","-16","experiment","ʃpal","28","Freiburg im Breisgau, DE","1","0","1","deutsch","englisch, finnisch","1","odd","Köln","794588","NA","NA","NA","NA","NA","583421","NA","583421","583421","763185","790897","848539","847034","850402","836559","794585","NA","603332","732465","NA","794375","NA","794588","NA","848538","848539","NA","NA","847030","NAP perception","4","6810","4","yes","1024"
"100","yes","100","1608.8","1608.8","white","no","xpyriment","I have read and understood the information shown above","legacy","legacy","0","uniform","1","0","NA","undefined","undefined","1","j","0","0","NA","NA","NA","NA","0","0","0","0","0","0","4","4","4","0","0","NA","0","0","0","0","NA","0","0","4","4","4","4","4","Wed Jun 28 14:43:58 2017","Forced-choice identification task with a practice and an experimental phase","yes","NAP-FC_GER_AA_ver-2.osexp","/Users/aviadalbert/Documents/Academisch/UoC/Dissertation/Experiment/OpenSesame/NAP-FC/NAP-FC_GER_AA/GER_AA_ver-2","yes","no","sans","no","20","no","black","no","Next","yes","768","legacy","4","4","0","/Users/aviadalbert/Documents/Academisch/UoC/Dissertation/Experiment/OpenSesame/NAP-FC/NAP-FC_GER_AA/GER_AA_ver-2/subject-1.csv","xpyriment","Jazzy James","3.1.6","yes","yes","5950408a6c613b0229e3e810","59504237594d9002288b1720","yes","no","0","j","f","NA","NA","return","return","j","1234","41970","NA","NA","27708","3419","1234","2","legacy","1024","1","44100","-16","experiment","nefal","28","Freiburg im Breisgau, DE","1","0","1","deutsch","englisch, finnisch","1","odd","Köln","794588","NA","NA","NA","NA","NA","583421","NA","583421","583421","763185","790897","852174","850671","853410","836559","794585","NA","603332","732465","NA","794375","NA","794588","NA","852174","852174","NA","NA","850666","NAP perception","5","8044","5","yes","1024"
"100","yes","100","1710","1710","white","no","xpyriment","I have read and understood the information shown above","legacy","legacy","0","uniform","1","0","NA","undefined","undefined","1","f","0","0","NA","NA","NA","NA","0","0","0","0","0","0","5","5","5","0","0","NA","0","0","0","0","NA","0","0","5","5","5","5","5","Wed Jun 28 14:43:58 2017","Forced-choice identification task with a practice and an experimental phase","yes","NAP-FC_GER_AA_ver-2.osexp","/Users/aviadalbert/Documents/Academisch/UoC/Dissertation/Experiment/OpenSesame/NAP-FC/NAP-FC_GER_AA/GER_AA_ver-2","yes","no","sans","no","20","no","black","no","Next","yes","768","legacy","5","5","0","/Users/aviadalbert/Documents/Academisch/UoC/Dissertation/Experiment/OpenSesame/NAP-FC/NAP-FC_GER_AA/GER_AA_ver-2/subject-1.csv","xpyriment","Jazzy James","3.1.6","yes","yes","5950408a6c613b0229e3e810","59504237594d9002288b1720","yes","no","0","f","f","NA","NA","return","return","f","2216","41970","NA","NA","27708","3419","2216","2","legacy","1024","1","44100","-16","experiment","sfal","28","Freiburg im Breisgau, DE","1","0","1","deutsch","englisch, finnisch","1","odd","Köln","794588","NA","NA","NA","NA","NA","583421","NA","583421","583421","763185","790897","855180","853675","857397","836559","794585","NA","603332","732465","NA","794375","NA","794588","NA","855179","855179","NA","NA","853671","NAP perception","6","10260","6","yes","1024"
"100","yes","100","1732.85714286","1732.85714286","white","no","xpyriment","I have read and understood the information shown above","legacy","legacy","0","uniform","1","0","NA","undefined","undefined","1","f","0","0","NA","NA","NA","NA","0","0","0","0","0","0","6","6","6","0","0","NA","0","0","0","0","NA","0","0","6","6","6","6","6","Wed Jun 28 14:43:58 2017","Forced-choice identification task with a practice and an experimental phase","yes","NAP-FC_GER_AA_ver-2.osexp","/Users/aviadalbert/Documents/Academisch/UoC/Dissertation/Experiment/OpenSesame/NAP-FC/NAP-FC_GER_AA/GER_AA_ver-2","yes","no","sans","no","20","no","black","no","Next","yes","768","legacy","6","6","0","/Users/aviadalbert/Documents/Academisch/UoC/Dissertation/Experiment/OpenSesame/NAP-FC/NAP-FC_GER_AA/GER_AA_ver-2/subject-1.csv","xpyriment","Jazzy James","3.1.6","yes","yes","5950408a6c613b0229e3e810","59504237594d9002288b1720","yes","no","0","f","f","NA","NA","return","return","f","1870","41970","NA","NA","27708","3419","1870","2","legacy","1024","1","44100","-16","experiment","zmal","28","Freiburg im Breisgau, DE","1","0","1","deutsch","englisch, finnisch","1","odd","Köln","794588","NA","NA","NA","NA","NA","583421","NA","583421","583421","763185","790897","859175","857671","861046","836559","794585","NA","603332","732465","NA","794375","NA","794588","NA","859175","859175","NA","NA","857667","NAP perception","7","12130","7","yes","1024"
"100","yes","100","1627.125","1627.125","white","no","xpyriment","I have read and understood the information shown above","legacy","legacy","0","uniform","1","0","NA","undefined","undefined","1","j","0","0","NA","NA","NA","NA","0","0","0","0","0","0","7","7","7","0","0","NA","0","0","0","0","NA","0","0","7","7","7","7","7","Wed Jun 28 14:43:58 2017","Forced-choice identification task with a practice and an experimental phase","yes","NAP-FC_GER_AA_ver-2.osexp","/Users/aviadalbert/Documents/Academisch/UoC/Dissertation/Experiment/OpenSesame/NAP-FC/NAP-FC_GER_AA/GER_AA_ver-2","yes","no","sans","no","20","no","black","no","Next","yes","768","legacy","7","7","0","/Users/aviadalbert/Documents/Academisch/UoC/Dissertation/Experiment/OpenSesame/NAP-FC/NAP-FC_GER_AA/GER_AA_ver-2/subject-1.csv","xpyriment","Jazzy James","3.1.6","yes","yes","5950408a6c613b0229e3e810","59504237594d9002288b1720","yes","no","0","j","f","NA","NA","return","return","j","887","41970","NA","NA","27708","3419","887","2","legacy","1024","1","44100","-16","experiment","jeval","28","Freiburg im Breisgau, DE","1","0","1","deutsch","englisch, finnisch","1","odd","Köln","794588","NA","NA","NA","NA","NA","583421","NA","583421","583421","763185","790897","862819","861315","863707","836559","794585","NA","603332","732465","NA","794375","NA","794588","NA","862819","862819","NA","NA","861311","NAP perception","8","13017","8","yes","1024"
"100","yes","100","1593.77777778","1593.77777778","white","no","xpyriment","I have read and understood the information shown above","legacy","legacy","0","uniform","1","0","NA","undefined","undefined","1","j","0","0","NA","NA","NA","NA","0","0","0","0","0","0","8","8","8","0","0","NA","0","0","0","0","NA","0","0","8","8","8","8","8","Wed Jun 28 14:43:58 2017","Forced-choice identification task with a practice and an experimental phase","yes","NAP-FC_GER_AA_ver-2.osexp","/Users/aviadalbert/Documents/Academisch/UoC/Dissertation/Experiment/OpenSesame/NAP-FC/NAP-FC_GER_AA/GER_AA_ver-2","yes","no","sans","no","20","no","black","no","Next","yes","768","legacy","8","8","0","/Users/aviadalbert/Documents/Academisch/UoC/Dissertation/Experiment/OpenSesame/NAP-FC/NAP-FC_GER_AA/GER_AA_ver-2/subject-1.csv","xpyriment","Jazzy James","3.1.6","yes","yes","5950408a6c613b0229e3e810","59504237594d9002288b1720","yes","no","0","j","f","NA","NA","return","return","j","1327","41970","NA","NA","27708","3419","1327","2","legacy","1024","1","44100","-16","experiment","enval","28","Freiburg im Breisgau, DE","1","0","1","deutsch","englisch, finnisch","1","odd","Köln","794588","NA","NA","NA","NA","NA","583421","NA","583421","583421","763185","790897","865472","863969","866800","836559","794585","NA","603332","732465","NA","794375","NA","794588","NA","865472","865472","NA","NA","863965","NAP perception","9","14344","9","yes","1024"
"100","yes","100","1584.8","1584.8","white","no","xpyriment","I have read and understood the information shown above","legacy","legacy","0","uniform","1","0","NA","undefined","undefined","1","f","0","0","NA","NA","NA","NA","0","0","0","0","0","0","9","9","9","0","0","NA","0","0","0","0","NA","0","0","9","9","9","9","9","Wed Jun 28 14:43:58 2017","Forced-choice identification task with a practice and an experimental phase","yes","NAP-FC_GER_AA_ver-2.osexp","/Users/aviadalbert/Documents/Academisch/UoC/Dissertation/Experiment/OpenSesame/NAP-FC/NAP-FC_GER_AA/GER_AA_ver-2","yes","no","sans","no","20","no","black","no","Next","yes","768","legacy","9","9","0","/Users/aviadalbert/Documents/Academisch/UoC/Dissertation/Experiment/OpenSesame/NAP-FC/NAP-FC_GER_AA/GER_AA_ver-2/subject-1.csv","xpyriment","Jazzy James","3.1.6","yes","yes","5950408a6c613b0229e3e810","59504237594d9002288b1720","yes","no","0","f","f","NA","NA","return","return","f","1504","41970","NA","NA","27708","3419","1504","2","legacy","1024","1","44100","-16","experiment","vlal","28","Freiburg im Breisgau, DE","1","0","1","deutsch","englisch, finnisch","1","odd","Köln","794588","NA","NA","NA","NA","NA","583421","NA","583421","583421","763185","790897","868577","867070","870082","836559","794585","NA","603332","732465","NA","794375","NA","794588","NA","868577","868577","NA","NA","867066","NAP perception","10","15848","10","yes","1024"
"100","yes","100","930","930","white","no","xpyriment","I have read and understood the information shown above","legacy","legacy","0","uniform","1","0","0","undefined","undefined","1","j","1","0","NA","0","0","0","0","0","0","0","0","0","10","10","10","0","0","0","0","0","1","0","0","0","1","10","10","10","10","10","Wed Jun 28 14:43:58 2017","Forced-choice identification task with a practice and an experimental phase","yes","NAP-FC_GER_AA_ver-2.osexp","/Users/aviadalbert/Documents/Academisch/UoC/Dissertation/Experiment/OpenSesame/NAP-FC/NAP-FC_GER_AA/GER_AA_ver-2","yes","no","sans","no","20","no","black","no","Next","yes","768","legacy","0","9","0","/Users/aviadalbert/Documents/Academisch/UoC/Dissertation/Experiment/OpenSesame/NAP-FC/NAP-FC_GER_AA/GER_AA_ver-2/subject-1.csv","xpyriment","Jazzy James","3.1.6","yes","yes","5950408a6c613b0229e3e810","59504237594d9002288b1720","no","no","0","j","f","space","NA","return","return","j","930","2183","13679","NA","27708","3419","930","2","legacy","1024","1","44100","-16","experiment","welal","28","Freiburg im Breisgau, DE","1","0","1","deutsch","englisch, finnisch","1","odd","Köln","885812","871826","NA","887996","885808","NA","583421","885569","583421","583421","763185","790897","889700","888197","890632","836559","794585","871826","603332","732465","870146","794375","885811","794588","NA","889700","889700","NA","NA","888193","NAP perception","1","930","1","yes","1024"
"100","yes","100","1262.5","1262.5","white","no","xpyriment","I have read and understood the information shown above","legacy","legacy","0","uniform","1","0","0","undefined","undefined","1","f","1","0","NA","0","0","0","0","0","0","0","0","0","11","11","11","0","0","0","0","0","1","0","0","0","1","11","11","11","11","11","Wed Jun 28 14:43:58 2017","Forced-choice identification task with a practice and an experimental phase","yes","NAP-FC_GER_AA_ver-2.osexp","/Users/aviadalbert/Documents/Academisch/UoC/Dissertation/Experiment/OpenSesame/NAP-FC/NAP-FC_GER_AA/GER_AA_ver-2","yes","no","sans","no","20","no","black","no","Next","yes","768","legacy","1","9","0","/Users/aviadalbert/Documents/Academisch/UoC/Dissertation/Experiment/OpenSesame/NAP-FC/NAP-FC_GER_AA/GER_AA_ver-2/subject-1.csv","xpyriment","Jazzy James","3.1.6","yes","yes","5950408a6c613b0229e3e810","59504237594d9002288b1720","no","no","0","f","f","space","NA","return","return","f","1595","2183","13679","NA","27708","3419","1595","2","legacy","1024","1","44100","-16","experiment","wnal","28","Freiburg im Breisgau, DE","1","0","1","deutsch","englisch, finnisch","1","odd","Köln","885812","871826","NA","887996","885808","NA","583421","885569","583421","583421","763185","790897","892415","890911","894011","836559","794585","871826","603332","732465","870146","794375","885811","794588","NA","892414","892415","NA","NA","890907","NAP perception","2","2525","2","yes","1024"
"100","yes","100","1118.66666667","1118.66666667","white","no","xpyriment","I have read and understood the information shown above","legacy","legacy","0","uniform","1","0","0","undefined","undefined","1","j","1","0","NA","0","0","0","0","0","0","0","0","0","12","12","12","0","0","0","0","0","1","0","0","0","1","12","12","12","12","12","Wed Jun 28 14:43:58 2017","Forced-choice identification task with a practice and an experimental phase","yes","NAP-FC_GER_AA_ver-2.osexp","/Users/aviadalbert/Documents/Academisch/UoC/Dissertation/Experiment/OpenSesame/NAP-FC/NAP-FC_GER_AA/GER_AA_ver-2","yes","no","sans","no","20","no","black","no","Next","yes","768","legacy","2","9","0","/Users/aviadalbert/Documents/Academisch/UoC/Dissertation/Experiment/OpenSesame/NAP-FC/NAP-FC_GER_AA/GER_AA_ver-2/subject-1.csv","xpyriment","Jazzy James","3.1.6","yes","yes","5950408a6c613b0229e3e810","59504237594d9002288b1720","no","no","0","j","f","space","NA","return","return","j","831","2183","13679","NA","27708","3419","831","2","legacy","1024","1","44100","-16","experiment","jefal","28","Freiburg im Breisgau, DE","1","0","1","deutsch","englisch, finnisch","1","odd","Köln","885812","871826","NA","887996","885808","NA","583421","885569","583421","583421","763185","790897","895788","894281","896620","836559","794585","871826","603332","732465","870146","794375","885811","794588","NA","895787","895787","NA","NA","894277","NAP perception","3","3356","3","yes","1024"
"75","yes","75","1264","1264","white","no","xpyriment","I have read and understood the information shown above","legacy","legacy","0","uniform","0","0","0","undefined","undefined","0","f","1","0","NA","0","0","0","0","0","0","0","0","0","13","13","13","0","0","0","0","0","1","0","0","0","1","13","13","13","13","13","Wed Jun 28 14:43:58 2017","Forced-choice identification task with a practice and an experimental phase","yes","NAP-FC_GER_AA_ver-2.osexp","/Users/aviadalbert/Documents/Academisch/UoC/Dissertation/Experiment/OpenSesame/NAP-FC/NAP-FC_GER_AA/GER_AA_ver-2","yes","no","sans","no","20","no","black","no","Next","yes","768","legacy","3","9","0","/Users/aviadalbert/Documents/Academisch/UoC/Dissertation/Experiment/OpenSesame/NAP-FC/NAP-FC_GER_AA/GER_AA_ver-2/subject-1.csv","xpyriment","Jazzy James","3.1.6","yes","yes","5950408a6c613b0229e3e810","59504237594d9002288b1720","no","no","0","j","f","space","NA","return","return","j","1700","2183","13679","NA","27708","3419","1700","2","legacy","1024","1","44100","-16","experiment","jfal","28","Freiburg im Breisgau, DE","1","0","1","deutsch","englisch, finnisch","1","odd","Köln","885812","871826","NA","887996","885808","NA","583421","885569","583421","583421","763185","790897","898392","896886","900094","836559","794585","871826","603332","732465","870146","794375","885811","794588","NA","898392","898392","NA","NA","896882","NAP perception","3","5056","4","yes","1024"
"80","yes","80","1301.8","1301.8","white","no","xpyriment","I have read and understood the information shown above","legacy","legacy","0","uniform","1","0","0","undefined","undefined","1","j","1","0","NA","0","0","0","0","0","0","0","0","0","14","14","14","0","0","0","0","0","1","0","0","0","1","14","14","14","14","14","Wed Jun 28 14:43:58 2017","Forced-choice identification task with a practice and an experimental phase","yes","NAP-FC_GER_AA_ver-2.osexp","/Users/aviadalbert/Documents/Academisch/UoC/Dissertation/Experiment/OpenSesame/NAP-FC/NAP-FC_GER_AA/GER_AA_ver-2","yes","no","sans","no","20","no","black","no","Next","yes","768","legacy","4","9","0","/Users/aviadalbert/Documents/Academisch/UoC/Dissertation/Experiment/OpenSesame/NAP-FC/NAP-FC_GER_AA/GER_AA_ver-2/subject-1.csv","xpyriment","Jazzy James","3.1.6","yes","yes","5950408a6c613b0229e3e810","59504237594d9002288b1720","no","no","0","j","f","space","NA","return","return","j","1453","2183","13679","NA","27708","3419","1453","2","legacy","1024","1","44100","-16","experiment","zeval","28","Freiburg im Breisgau, DE","1","0","1","deutsch","englisch, finnisch","1","odd","Köln","885812","871826","NA","887996","885808","NA","583421","885569","583421","583421","763185","790897","901886","900380","903341","836559","794585","871826","603332","732465","870146","794375","885811","794588","NA","901885","901885","NA","NA","900376","NAP perception","4","6509","5","yes","1024"
"83.3333333333","yes","83.3333333333","1219.5","1219.5","white","no","xpyriment","I have read and understood the information shown above","legacy","legacy","0","uniform","1","0","0","undefined","undefined","1","f","1","0","NA","0","0","0","0","0","0","0","0","0","15","15","15","0","0","0","0","0","1","0","0","0","1","15","15","15","15","15","Wed Jun 28 14:43:58 2017","Forced-choice identification task with a practice and an experimental phase","yes","NAP-FC_GER_AA_ver-2.osexp","/Users/aviadalbert/Documents/Academisch/UoC/Dissertation/Experiment/OpenSesame/NAP-FC/NAP-FC_GER_AA/GER_AA_ver-2","yes","no","sans","no","20","no","black","no","Next","yes","768","legacy","5","9","0","/Users/aviadalbert/Documents/Academisch/UoC/Dissertation/Experiment/OpenSesame/NAP-FC/NAP-FC_GER_AA/GER_AA_ver-2/subject-1.csv","xpyriment","Jazzy James","3.1.6","yes","yes","5950408a6c613b0229e3e810","59504237594d9002288b1720","no","no","0","f","f","space","NA","return","return","f","808","2183","13679","NA","27708","3419","808","2","legacy","1024","1","44100","-16","experiment","smal","28","Freiburg im Breisgau, DE","1","0","1","deutsch","englisch, finnisch","1","odd","Köln","885812","871826","NA","887996","885808","NA","583421","885569","583421","583421","763185","790897","905107","903604","905916","836559","794585","871826","603332","732465","870146","794375","885811","794588","NA","905107","905107","NA","NA","903600","NAP perception","5","7317","6","yes","1024"
"71.4285714286","yes","71.4285714286","1380.42857143","1380.42857143","white","no","xpyriment","I have read and understood the information shown above","legacy","legacy","0","uniform","0","0","0","undefined","undefined","0","f","1","0","NA","0","0","0","0","0","0","0","0","0","16","16","16","0","0","0","0","0","1","0","0","0","1","16","16","16","16","16","Wed Jun 28 14:43:58 2017","Forced-choice identification task with a practice and an experimental phase","yes","NAP-FC_GER_AA_ver-2.osexp","/Users/aviadalbert/Documents/Academisch/UoC/Dissertation/Experiment/OpenSesame/NAP-FC/NAP-FC_GER_AA/GER_AA_ver-2","yes","no","sans","no","20","no","black","no","Next","yes","768","legacy","6","9","0","/Users/aviadalbert/Documents/Academisch/UoC/Dissertation/Experiment/OpenSesame/NAP-FC/NAP-FC_GER_AA/GER_AA_ver-2/subject-1.csv","xpyriment","Jazzy James","3.1.6","yes","yes","5950408a6c613b0229e3e810","59504237594d9002288b1720","no","no","0","j","f","space","NA","return","return","j","2346","2183","13679","NA","27708","3419","2346","2","legacy","1024","1","44100","-16","experiment","vzal","28","Freiburg im Breisgau, DE","1","0","1","deutsch","englisch, finnisch","1","odd","Köln","885812","871826","NA","887996","885808","NA","583421","885569","583421","583421","763185","790897","907692","906186","910039","836559","794585","871826","603332","732465","870146","794375","885811","794588","NA","907692","907692","NA","NA","906182","NAP perception","5","9663","7","yes","1024"
"62.5","yes","62.5","1423.75","1423.75","white","no","xpyriment","I have read and understood the information shown above","legacy","legacy","0","uniform","0","0","0","undefined","undefined","0","f","1","0","NA","0","0","0","0","0","0","0","0","0","17","17","17","0","0","0","0","0","1","0","0","0","1","17","17","17","17","17","Wed Jun 28 14:43:58 2017","Forced-choice identification task with a practice and an experimental phase","yes","NAP-FC_GER_AA_ver-2.osexp","/Users/aviadalbert/Documents/Academisch/UoC/Dissertation/Experiment/OpenSesame/NAP-FC/NAP-FC_GER_AA/GER_AA_ver-2","yes","no","sans","no","20","no","black","no","Next","yes","768","legacy","7","9","0","/Users/aviadalbert/Documents/Academisch/UoC/Dissertation/Experiment/OpenSesame/NAP-FC/NAP-FC_GER_AA/GER_AA_ver-2/subject-1.csv","xpyriment","Jazzy James","3.1.6","yes","yes","5950408a6c613b0229e3e810","59504237594d9002288b1720","no","no","0","j","f","space","NA","return","return","j","1727","2183","13679","NA","27708","3419","1727","2","legacy","1024","1","44100","-16","experiment","lval","28","Freiburg im Breisgau, DE","1","0","1","deutsch","englisch, finnisch","1","odd","Köln","885812","871826","NA","887996","885808","NA","583421","885569","583421","583421","763185","790897","911819","910313","913548","836559","794585","871826","603332","732465","870146","794375","885811","794588","NA","911819","911819","NA","NA","910309","NAP perception","5","11390","8","yes","1024"
"66.6666666667","yes","66.6666666667","1369.88888889","1369.88888889","white","no","xpyriment","I have read and understood the information shown above","legacy","legacy","0","uniform","1","0","0","undefined","undefined","1","j","1","0","NA","0","0","0","0","0","0","0","0","0","18","18","18","0","0","0","0","0","1","0","0","0","1","18","18","18","18","18","Wed Jun 28 14:43:58 2017","Forced-choice identification task with a practice and an experimental phase","yes","NAP-FC_GER_AA_ver-2.osexp","/Users/aviadalbert/Documents/Academisch/UoC/Dissertation/Experiment/OpenSesame/NAP-FC/NAP-FC_GER_AA/GER_AA_ver-2","yes","no","sans","no","20","no","black","no","Next","yes","768","legacy","8","9","0","/Users/aviadalbert/Documents/Academisch/UoC/Dissertation/Experiment/OpenSesame/NAP-FC/NAP-FC_GER_AA/GER_AA_ver-2/subject-1.csv","xpyriment","Jazzy James","3.1.6","yes","yes","5950408a6c613b0229e3e810","59504237594d9002288b1720","no","no","0","j","f","space","NA","return","return","j","939","2183","13679","NA","27708","3419","939","2","legacy","1024","1","44100","-16","experiment","elfal","28","Freiburg im Breisgau, DE","1","0","1","deutsch","englisch, finnisch","1","odd","Köln","885812","871826","NA","887996","885808","NA","583421","885569","583421","583421","763185","790897","915325","913822","916265","836559","794585","871826","603332","732465","870146","794375","885811","794588","NA","915325","915325","NA","NA","913817","NAP perception","6","12329","9","yes","1024"
"70","yes","70","1328.6","1328.6","white","no","xpyriment","I have read and understood the information shown above","legacy","legacy","0","uniform","1","0","0","undefined","undefined","1","j","1","0","NA","0","0","0","0","0","0","0","0","0","19","19","19","0","0","0","0","0","1","0","0","0","1","19","19","19","19","19","Wed Jun 28 14:43:58 2017","Forced-choice identification task with a practice and an experimental phase","yes","NAP-FC_GER_AA_ver-2.osexp","/Users/aviadalbert/Documents/Academisch/UoC/Dissertation/Experiment/OpenSesame/NAP-FC/NAP-FC_GER_AA/GER_AA_ver-2","yes","no","sans","no","20","no","black","no","Next","yes","768","legacy","9","9","0","/Users/aviadalbert/Documents/Academisch/UoC/Dissertation/Experiment/OpenSesame/NAP-FC/NAP-FC_GER_AA/GER_AA_ver-2/subject-1.csv","xpyriment","Jazzy James","3.1.6","yes","yes","5950408a6c613b0229e3e810","59504237594d9002288b1720","no","no","0","j","f","space","NA","return","return","j","957","2183","13679","NA","27708","3419","957","2","legacy","1024","1","44100","-16","experiment","enpal","28","Freiburg im Breisgau, DE","1","0","1","deutsch","englisch, finnisch","1","odd","Köln","885812","871826","NA","887996","885808","NA","583421","885569","583421","583421","763185","790897","918036","916530","918994","836559","794585","871826","603332","732465","870146","794375","885811","794588","NA","918035","918035","NA","NA","916526","NAP perception","7","13286","10","yes","1024"
"72.7272727273","yes","72.7272727273","1312.36363636","1312.36363636","white","no","xpyriment","I have read and understood the information shown above","legacy","legacy","0","uniform","1","0","0","undefined","undefined","1","j","1","0","NA","0","0","0","0","0","0","0","0","0","20","20","20","0","0","0","0","0","1","0","0","0","1","20","20","20","20","20","Wed Jun 28 14:43:58 2017","Forced-choice identification task with a practice and an experimental phase","yes","NAP-FC_GER_AA_ver-2.osexp","/Users/aviadalbert/Documents/Academisch/UoC/Dissertation/Experiment/OpenSesame/NAP-FC/NAP-FC_GER_AA/GER_AA_ver-2","yes","no","sans","no","20","no","black","no","Next","yes","768","legacy","10","9","0","/Users/aviadalbert/Documents/Academisch/UoC/Dissertation/Experiment/OpenSesame/NAP-FC/NAP-FC_GER_AA/GER_AA_ver-2/subject-1.csv","xpyriment","Jazzy James","3.1.6","yes","yes","5950408a6c613b0229e3e810","59504237594d9002288b1720","no","no","0","j","f","space","NA","return","return","j","1150","2183","13679","NA","27708","3419","1150","2","legacy","1024","1","44100","-16","experiment","elmal","28","Freiburg im Breisgau, DE","1","0","1","deutsch","englisch, finnisch","1","odd","Köln","885812","871826","NA","887996","885808","NA","583421","885569","583421","583421","763185","790897","920760","919256","921911","836559","794585","871826","603332","732465","870146","794375","885811","794588","NA","920760","920760","NA","NA","919252","NAP perception","8","14436","11","yes","1024"
"75","yes","75","1405.91666667","1405.91666667","white","no","xpyriment","I have read and understood the information shown above","legacy","legacy","0","uniform","1","0","0","undefined","undefined","1","j","1","0","NA","0","0","0","0","0","0","0","0","0","21","21","21","0","0","0","0","0","1","0","0","0","1","21","21","21","21","21","Wed Jun 28 14:43:58 2017","Forced-choice identification task with a practice and an experimental phase","yes","NAP-FC_GER_AA_ver-2.osexp","/Users/aviadalbert/Documents/Academisch/UoC/Dissertation/Experiment/OpenSesame/NAP-FC/NAP-FC_GER_AA/GER_AA_ver-2","yes","no","sans","no","20","no","black","no","Next","yes","768","legacy","11","9","0","/Users/aviadalbert/Documents/Academisch/UoC/Dissertation/Experiment/OpenSesame/NAP-FC/NAP-FC_GER_AA/GER_AA_ver-2/subject-1.csv","xpyriment","Jazzy James","3.1.6","yes","yes","5950408a6c613b0229e3e810","59504237594d9002288b1720","no","no","0","j","f","space","NA","return","return","j","2435","2183","13679","NA","27708","3419","2435","2","legacy","1024","1","44100","-16","experiment","eflal","28","Freiburg im Breisgau, DE","1","0","1","deutsch","englisch, finnisch","1","odd","Köln","885812","871826","NA","887996","885808","NA","583421","885569","583421","583421","763185","790897","923684","922181","926121","836559","794585","871826","603332","732465","870146","794375","885811","794588","NA","923684","923684","NA","NA","922177","NAP perception","9","16871","12","yes","1024"
"69.2307692308","yes","69.2307692308","1406.46153846","1406.46153846","white","no","xpyriment","I have read and understood the information shown above","legacy","legacy","0","uniform","0","0","0","undefined","undefined","0","f","1","0","NA","0","0","0","0","0","0","0","0","0","22","22","22","0","0","0","0","0","1","0","0","0","1","22","22","22","22","22","Wed Jun 28 14:43:58 2017","Forced-choice identification task with a practice and an experimental phase","yes","NAP-FC_GER_AA_ver-2.osexp","/Users/aviadalbert/Documents/Academisch/UoC/Dissertation/Experiment/OpenSesame/NAP-FC/NAP-FC_GER_AA/GER_AA_ver-2","yes","no","sans","no","20","no","black","no","Next","yes","768","legacy","12","9","0","/Users/aviadalbert/Documents/Academisch/UoC/Dissertation/Experiment/OpenSesame/NAP-FC/NAP-FC_GER_AA/GER_AA_ver-2/subject-1.csv","xpyriment","Jazzy James","3.1.6","yes","yes","5950408a6c613b0229e3e810","59504237594d9002288b1720","no","no","0","j","f","space","NA","return","return","j","1413","2183","13679","NA","27708","3419","1413","2","legacy","1024","1","44100","-16","experiment","jmal","28","Freiburg im Breisgau, DE","1","0","1","deutsch","englisch, finnisch","1","odd","Köln","885812","871826","NA","887996","885808","NA","583421","885569","583421","583421","763185","790897","927885","926382","929299","836559","794585","871826","603332","732465","870146","794375","885811","794588","NA","927885","927885","NA","NA","926378","NAP perception","9","18284","13","yes","1024"
"64.2857142857","yes","64.2857142857","1375.64285714","1375.64285714","white","no","xpyriment","I have read and understood the information shown above","legacy","legacy","0","uniform","0","0","0","undefined","undefined","0","f","1","0","NA","0","0","0","0","0","0","0","0","0","23","23","23","0","0","0","0","0","1","0","0","0","1","23","23","23","23","23","Wed Jun 28 14:43:58 2017","Forced-choice identification task with a practice and an experimental phase","yes","NAP-FC_GER_AA_ver-2.osexp","/Users/aviadalbert/Documents/Academisch/UoC/Dissertation/Experiment/OpenSesame/NAP-FC/NAP-FC_GER_AA/GER_AA_ver-2","yes","no","sans","no","20","no","black","no","Next","yes","768","legacy","13","9","0","/Users/aviadalbert/Documents/Academisch/UoC/Dissertation/Experiment/OpenSesame/NAP-FC/NAP-FC_GER_AA/GER_AA_ver-2/subject-1.csv","xpyriment","Jazzy James","3.1.6","yes","yes","5950408a6c613b0229e3e810","59504237594d9002288b1720","no","no","0","j","f","space","NA","return","return","j","975","2183","13679","NA","27708","3419","975","2","legacy","1024","1","44100","-16","experiment","lpal","28","Freiburg im Breisgau, DE","1","0","1","deutsch","englisch, finnisch","1","odd","Köln","885812","871826","NA","887996","885808","NA","583421","885569","583421","583421","763185","790897","931074","929570","932050","836559","794585","871826","603332","732465","870146","794375","885811","794588","NA","931074","931074","NA","NA","929566","NAP perception","9","19259","14","yes","1024"
"60","yes","60","1483.93333333","1483.93333333","white","no","xpyriment","I have read and understood the information shown above","legacy","legacy","0","uniform","0","0","0","undefined","undefined","0","j","1","0","NA","0","0","0","0","0","0","0","0","0","24","24","24","0","0","0","0","0","1","0","0","0","1","24","24","24","24","24","Wed Jun 28 14:43:58 2017","Forced-choice identification task with a practice and an experimental phase","yes","NAP-FC_GER_AA_ver-2.osexp","/Users/aviadalbert/Documents/Academisch/UoC/Dissertation/Experiment/OpenSesame/NAP-FC/NAP-FC_GER_AA/GER_AA_ver-2","yes","no","sans","no","20","no","black","no","Next","yes","768","legacy","14","9","0","/Users/aviadalbert/Documents/Academisch/UoC/Dissertation/Experiment/OpenSesame/NAP-FC/NAP-FC_GER_AA/GER_AA_ver-2/subject-1.csv","xpyriment","Jazzy James","3.1.6","yes","yes","5950408a6c613b0229e3e810","59504237594d9002288b1720","no","no","0","None","f","space","NA","return","return","None","3000","2183","13679","NA","27708","3419","3000","2","legacy","1024","1","44100","-16","experiment","leval","28","Freiburg im Breisgau, DE","1","0","1","deutsch","englisch, finnisch","1","odd","Köln","885812","871826","NA","887996","885808","NA","583421","885569","583421","583421","763185","790897","933822","932318","937826","836559","794585","871826","603332","732465","870146","794375","885811","794588","NA","933821","933821","936826","936822","932314","NAP perception","9","22259","15","yes","1024"
"62.5","yes","62.5","1473.8125","1473.8125","white","no","xpyriment","I have read and understood the information shown above","legacy","legacy","0","uniform","1","0","0","undefined","undefined","1","j","1","0","NA","0","0","0","0","0","0","0","0","0","25","25","25","0","0","0","0","0","1","0","0","0","1","25","25","25","25","25","Wed Jun 28 14:43:58 2017","Forced-choice identification task with a practice and an experimental phase","yes","NAP-FC_GER_AA_ver-2.osexp","/Users/aviadalbert/Documents/Academisch/UoC/Dissertation/Experiment/OpenSesame/NAP-FC/NAP-FC_GER_AA/GER_AA_ver-2","yes","no","sans","no","20","no","black","no","Next","yes","768","legacy","15","9","0","/Users/aviadalbert/Documents/Academisch/UoC/Dissertation/Experiment/OpenSesame/NAP-FC/NAP-FC_GER_AA/GER_AA_ver-2/subject-1.csv","xpyriment","Jazzy James","3.1.6","yes","yes","5950408a6c613b0229e3e810","59504237594d9002288b1720","no","no","0","j","f","space","NA","return","return","j","1322","2183","13679","NA","27708","3419","1322","2","legacy","1024","1","44100","-16","experiment","metal","28","Freiburg im Breisgau, DE","1","0","1","deutsch","englisch, finnisch","1","odd","Köln","885812","871826","NA","887996","885808","NA","583421","885569","583421","583421","763185","790897","939591","938088","940914","836559","794585","871826","603332","732465","870146","794375","885811","794588","NA","939591","939591","936826","936822","938083","NAP perception","10","23581","16","yes","1024"
"64.7058823529","yes","64.7058823529","1440.52941176","1440.52941176","white","no","xpyriment","I have read and understood the information shown above","legacy","legacy","0","uniform","1","0","0","undefined","undefined","1","j","1","0","NA","0","0","0","0","0","0","0","0","0","26","26","26","0","0","0","0","0","1","0","0","0","1","26","26","26","26","26","Wed Jun 28 14:43:58 2017","Forced-choice identification task with a practice and an experimental phase","yes","NAP-FC_GER_AA_ver-2.osexp","/Users/aviadalbert/Documents/Academisch/UoC/Dissertation/Experiment/OpenSesame/NAP-FC/NAP-FC_GER_AA/GER_AA_ver-2","yes","no","sans","no","20","no","black","no","Next","yes","768","legacy","16","9","0","/Users/aviadalbert/Documents/Academisch/UoC/Dissertation/Experiment/OpenSesame/NAP-FC/NAP-FC_GER_AA/GER_AA_ver-2/subject-1.csv","xpyriment","Jazzy James","3.1.6","yes","yes","5950408a6c613b0229e3e810","59504237594d9002288b1720","no","no","0","j","f","space","NA","return","return","j","908","2183","13679","NA","27708","3419","908","2","legacy","1024","1","44100","-16","experiment","fenal","28","Freiburg im Breisgau, DE","1","0","1","deutsch","englisch, finnisch","1","odd","Köln","885812","871826","NA","887996","885808","NA","583421","885569","583421","583421","763185","790897","942686","941181","943595","836559","794585","871826","603332","732465","870146","794375","885811","794588","NA","942686","942686","936826","936822","941177","NAP perception","11","24489","17","yes","1024"
"66.6666666667","yes","66.6666666667","1413.61111111","1413.61111111","white","no","xpyriment","I have read and understood the information shown above","legacy","legacy","0","uniform","1","0","0","undefined","undefined","1","j","1","0","NA","0","0","0","0","0","0","0","0","0","27","27","27","0","0","0","0","0","1","0","0","0","1","27","27","27","27","27","Wed Jun 28 14:43:58 2017","Forced-choice identification task with a practice and an experimental phase","yes","NAP-FC_GER_AA_ver-2.osexp","/Users/aviadalbert/Documents/Academisch/UoC/Dissertation/Experiment/OpenSesame/NAP-FC/NAP-FC_GER_AA/GER_AA_ver-2","yes","no","sans","no","20","no","black","no","Next","yes","768","legacy","17","9","0","/Users/aviadalbert/Documents/Academisch/UoC/Dissertation/Experiment/OpenSesame/NAP-FC/NAP-FC_GER_AA/GER_AA_ver-2/subject-1.csv","xpyriment","Jazzy James","3.1.6","yes","yes","5950408a6c613b0229e3e810","59504237594d9002288b1720","no","no","0","j","f","space","NA","return","return","j","956","2183","13679","NA","27708","3419","956","2","legacy","1024","1","44100","-16","experiment","ʃepal","28","Freiburg im Breisgau, DE","1","0","1","deutsch","englisch, finnisch","1","odd","Köln","885812","871826","NA","887996","885808","NA","583421","885569","583421","583421","763185","790897","945371","943867","946328","836559","794585","871826","603332","732465","870146","794375","885811","794588","NA","945371","945371","936826","936822","943863","NAP perception","12","25445","18","yes","1024"
"68.4210526316","yes","68.4210526316","1480.89473684","1480.89473684","white","no","xpyriment","I have read and understood the information shown above","legacy","legacy","0","uniform","1","0","0","undefined","undefined","1","j","1","0","NA","0","0","0","0","0","0","0","0","0","28","28","28","0","0","0","0","0","1","0","0","0","1","28","28","28","28","28","Wed Jun 28 14:43:58 2017","Forced-choice identification task with a practice and an experimental phase","yes","NAP-FC_GER_AA_ver-2.osexp","/Users/aviadalbert/Documents/Academisch/UoC/Dissertation/Experiment/OpenSesame/NAP-FC/NAP-FC_GER_AA/GER_AA_ver-2","yes","no","sans","no","20","no","black","no","Next","yes","768","legacy","18","9","0","/Users/aviadalbert/Documents/Academisch/UoC/Dissertation/Experiment/OpenSesame/NAP-FC/NAP-FC_GER_AA/GER_AA_ver-2/subject-1.csv","xpyriment","Jazzy James","3.1.6","yes","yes","5950408a6c613b0229e3e810","59504237594d9002288b1720","no","no","0","j","f","space","NA","return","return","j","2692","2183","13679","NA","27708","3419","2692","2","legacy","1024","1","44100","-16","experiment","jeval","28","Freiburg im Breisgau, DE","1","0","1","deutsch","englisch, finnisch","1","odd","Köln","885812","871826","NA","887996","885808","NA","583421","885569","583421","583421","763185","790897","948097","946591","950791","836559","794585","871826","603332","732465","870146","794375","885811","794588","NA","948097","948097","936826","936822","946587","NAP perception","13","28137","19","yes","1024"
"65","yes","65","1477.5","1477.5","white","no","xpyriment","I have read and understood the information shown above","legacy","legacy","0","uniform","0","0","0","undefined","undefined","0","f","1","0","NA","0","0","0","0","0","0","0","0","0","29","29","29","0","0","0","0","0","1","0","0","0","1","29","29","29","29","29","Wed Jun 28 14:43:58 2017","Forced-choice identification task with a practice and an experimental phase","yes","NAP-FC_GER_AA_ver-2.osexp","/Users/aviadalbert/Documents/Academisch/UoC/Dissertation/Experiment/OpenSesame/NAP-FC/NAP-FC_GER_AA/GER_AA_ver-2","yes","no","sans","no","20","no","black","no","Next","yes","768","legacy","19","9","0","/Users/aviadalbert/Documents/Academisch/UoC/Dissertation/Experiment/OpenSesame/NAP-FC/NAP-FC_GER_AA/GER_AA_ver-2/subject-1.csv","xpyriment","Jazzy James","3.1.6","yes","yes","5950408a6c613b0229e3e810","59504237594d9002288b1720","no","no","0","j","f","space","NA","return","return","j","1413","2183","13679","NA","27708","3419","1413","2","legacy","1024","1","44100","-16","experiment","msal","28","Freiburg im Breisgau, DE","1","0","1","deutsch","englisch, finnisch","1","odd","Köln","885812","871826","NA","887996","885808","NA","583421","885569","583421","583421","763185","790897","952571","951064","953985","836559","794585","871826","603332","732465","870146","794375","885811","794588","NA","952571","952571","936826","936822","951060","NAP perception","13","29550","20","yes","1024"
"66.6666666667","yes","66.6666666667","1445.85714286","1445.85714286","white","no","xpyriment","I have read and understood the information shown above","legacy","legacy","0","uniform","1","0","0","undefined","undefined","1","f","1","0","NA","0","0","0","0","0","0","0","0","0","30","30","30","0","0","0","0","0","1","0","0","0","1","30","30","30","30","30","Wed Jun 28 14:43:58 2017","Forced-choice identification task with a practice and an experimental phase","yes","NAP-FC_GER_AA_ver-2.osexp","/Users/aviadalbert/Documents/Academisch/UoC/Dissertation/Experiment/OpenSesame/NAP-FC/NAP-FC_GER_AA/GER_AA_ver-2","yes","no","sans","no","20","no","black","no","Next","yes","768","legacy","20","9","0","/Users/aviadalbert/Documents/Academisch/UoC/Dissertation/Experiment/OpenSesame/NAP-FC/NAP-FC_GER_AA/GER_AA_ver-2/subject-1.csv","xpyriment","Jazzy James","3.1.6","yes","yes","5950408a6c613b0229e3e810","59504237594d9002288b1720","no","no","0","f","f","space","NA","return","return","f","813","2183","13679","NA","27708","3419","813","2","legacy","1024","1","44100","-16","experiment","fsal","28","Freiburg im Breisgau, DE","1","0","1","deutsch","englisch, finnisch","1","odd","Köln","885812","871826","NA","887996","885808","NA","583421","885569","583421","583421","763185","790897","955759","954253","956573","836559","794585","871826","603332","732465","870146","794375","885811","794588","NA","955759","955759","936826","936822","954249","NAP perception","14","30363","21","yes","1024"
"68.1818181818","yes","68.1818181818","1418.81818182","1418.81818182","white","no","xpyriment","I have read and understood the information shown above","legacy","legacy","0","uniform","1","0","0","undefined","undefined","1","j","1","0","NA","0","0","0","0","0","0","0","0","0","31","31","31","0","0","0","0","0","1","0","0","0","1","31","31","31","31","31","Wed Jun 28 14:43:58 2017","Forced-choice identification task with a practice and an experimental phase","yes","NAP-FC_GER_AA_ver-2.osexp","/Users/aviadalbert/Documents/Academisch/UoC/Dissertation/Experiment/OpenSesame/NAP-FC/NAP-FC_GER_AA/GER_AA_ver-2","yes","no","sans","no","20","no","black","no","Next","yes","768","legacy","21","9","0","/Users/aviadalbert/Documents/Academisch/UoC/Dissertation/Experiment/OpenSesame/NAP-FC/NAP-FC_GER_AA/GER_AA_ver-2/subject-1.csv","xpyriment","Jazzy James","3.1.6","yes","yes","5950408a6c613b0229e3e810","59504237594d9002288b1720","no","no","0","j","f","space","NA","return","return","j","851","2183","13679","NA","27708","3419","851","2","legacy","1024","1","44100","-16","experiment","espal","28","Freiburg im Breisgau, DE","1","0","1","deutsch","englisch, finnisch","1","odd","Köln","885812","871826","NA","887996","885808","NA","583421","885569","583421","583421","763185","790897","958351","956845","959204","836559","794585","871826","603332","732465","870146","794375","885811","794588","NA","958351","958351","936826","936822","956841","NAP perception","15","31214","22","yes","1024"
"69.5652173913","yes","69.5652173913","1386.13043478","1386.13043478","white","no","xpyriment","I have read and understood the information shown above","legacy","legacy","0","uniform","1","0","0","undefined","undefined","1","f","1","0","NA","0","0","0","0","0","0","0","0","0","32","32","32","0","0","0","0","0","1","0","0","0","1","32","32","32","32","32","Wed Jun 28 14:43:58 2017","Forced-choice identification task with a practice and an experimental phase","yes","NAP-FC_GER_AA_ver-2.osexp","/Users/aviadalbert/Documents/Academisch/UoC/Dissertation/Experiment/OpenSesame/NAP-FC/NAP-FC_GER_AA/GER_AA_ver-2","yes","no","sans","no","20","no","black","no","Next","yes","768","legacy","22","9","0","/Users/aviadalbert/Documents/Academisch/UoC/Dissertation/Experiment/OpenSesame/NAP-FC/NAP-FC_GER_AA/GER_AA_ver-2/subject-1.csv","xpyriment","Jazzy James","3.1.6","yes","yes","5950408a6c613b0229e3e810","59504237594d9002288b1720","no","no","0","f","f","space","NA","return","return","f","667","2183","13679","NA","27708","3419","667","2","legacy","1024","1","44100","-16","experiment","sfal","28","Freiburg im Breisgau, DE","1","0","1","deutsch","englisch, finnisch","1","odd","Köln","885812","871826","NA","887996","885808","NA","583421","885569","583421","583421","763185","790897","960985","959478","961654","836559","794585","871826","603332","732465","870146","794375","885811","794588","NA","960985","960985","936826","936822","959474","NAP perception","16","31881","23","yes","1024"
"70.8333333333","yes","70.8333333333","1364.33333333","1364.33333333","white","no","xpyriment","I have read and understood the information shown above","legacy","legacy","0","uniform","1","0","0","undefined","undefined","1","j","1","0","NA","0","0","0","0","0","0","0","0","0","33","33","33","0","0","0","0","0","1","0","0","0","1","33","33","33","33","33","Wed Jun 28 14:43:58 2017","Forced-choice identification task with a practice and an experimental phase","yes","NAP-FC_GER_AA_ver-2.osexp","/Users/aviadalbert/Documents/Academisch/UoC/Dissertation/Experiment/OpenSesame/NAP-FC/NAP-FC_GER_AA/GER_AA_ver-2","yes","no","sans","no","20","no","black","no","Next","yes","768","legacy","23","9","0","/Users/aviadalbert/Documents/Academisch/UoC/Dissertation/Experiment/OpenSesame/NAP-FC/NAP-FC_GER_AA/GER_AA_ver-2/subject-1.csv","xpyriment","Jazzy James","3.1.6","yes","yes","5950408a6c613b0229e3e810","59504237594d9002288b1720","no","no","0","j","f","space","NA","return","return","j","863","2183","13679","NA","27708","3419","863","2","legacy","1024","1","44100","-16","experiment","eʃfal","28","Freiburg im Breisgau, DE","1","0","1","deutsch","englisch, finnisch","1","odd","Köln","885812","871826","NA","887996","885808","NA","583421","885569","583421","583421","763185","790897","963422","961919","964287","836559","794585","871826","603332","732465","870146","794375","885811","794588","NA","963422","963422","936826","936822","961915","NAP perception","17","32744","24","yes","1024"
"68","yes","68","1347.2","1347.2","white","no","xpyriment","I have read and understood the information shown above","legacy","legacy","0","uniform","0","0","0","undefined","undefined","0","f","1","0","NA","0","0","0","0","0","0","0","0","0","34","34","34","0","0","0","0","0","1","0","0","0","1","34","34","34","34","34","Wed Jun 28 14:43:58 2017","Forced-choice identification task with a practice and an experimental phase","yes","NAP-FC_GER_AA_ver-2.osexp","/Users/aviadalbert/Documents/Academisch/UoC/Dissertation/Experiment/OpenSesame/NAP-FC/NAP-FC_GER_AA/GER_AA_ver-2","yes","no","sans","no","20","no","black","no","Next","yes","768","legacy","24","9","0","/Users/aviadalbert/Documents/Academisch/UoC/Dissertation/Experiment/OpenSesame/NAP-FC/NAP-FC_GER_AA/GER_AA_ver-2/subject-1.csv","xpyriment","Jazzy James","3.1.6","yes","yes","5950408a6c613b0229e3e810","59504237594d9002288b1720","no","no","0","j","f","space","NA","return","return","j","936","2183","13679","NA","27708","3419","936","2","legacy","1024","1","44100","-16","experiment","wtal","28","Freiburg im Breisgau, DE","1","0","1","deutsch","englisch, finnisch","1","odd","Köln","885812","871826","NA","887996","885808","NA","583421","885569","583421","583421","763185","790897","966050","964546","966987","836559","794585","871826","603332","732465","870146","794375","885811","794588","NA","966050","966050","936826","936822","964542","NAP perception","17","33680","25","yes","1024"
"65.3846153846","yes","65.3846153846","1388.80769231","1388.80769231","white","no","xpyriment","I have read and understood the information shown above","legacy","legacy","0","uniform","0","0","0","undefined","undefined","0","f","1","0","NA","0","0","0","0","0","0","0","0","0","35","35","35","0","0","0","0","0","1","0","0","0","1","35","35","35","35","35","Wed Jun 28 14:43:58 2017","Forced-choice identification task with a practice and an experimental phase","yes","NAP-FC_GER_AA_ver-2.osexp","/Users/aviadalbert/Documents/Academisch/UoC/Dissertation/Experiment/OpenSesame/NAP-FC/NAP-FC_GER_AA/GER_AA_ver-2","yes","no","sans","no","20","no","black","no","Next","yes","768","legacy","25","9","0","/Users/aviadalbert/Documents/Academisch/UoC/Dissertation/Experiment/OpenSesame/NAP-FC/NAP-FC_GER_AA/GER_AA_ver-2/subject-1.csv","xpyriment","Jazzy James","3.1.6","yes","yes","5950408a6c613b0229e3e810","59504237594d9002288b1720","no","no","0","j","f","space","NA","return","return","j","2429","2183","13679","NA","27708","3419","2429","2","legacy","1024","1","44100","-16","experiment","lmal","28","Freiburg im Breisgau, DE","1","0","1","deutsch","englisch, finnisch","1","odd","Köln","885812","871826","NA","887996","885808","NA","583421","885569","583421","583421","763185","790897","968774","967269","971204","836559","794585","871826","603332","732465","870146","794375","885811","794588","NA","968773","968773","936826","936822","967265","NAP perception","17","36109","26","yes","1024"
"66.6666666667","yes","66.6666666667","1363.7037037","1363.7037037","white","no","xpyriment","I have read and understood the information shown above","legacy","legacy","0","uniform","1","0","0","undefined","undefined","1","f","1","0","NA","0","0","0","0","0","0","0","0","0","36","36","36","0","0","0","0","0","1","0","0","0","1","36","36","36","36","36","Wed Jun 28 14:43:58 2017","Forced-choice identification task with a practice and an experimental phase","yes","NAP-FC_GER_AA_ver-2.osexp","/Users/aviadalbert/Documents/Academisch/UoC/Dissertation/Experiment/OpenSesame/NAP-FC/NAP-FC_GER_AA/GER_AA_ver-2","yes","no","sans","no","20","no","black","no","Next","yes","768","legacy","26","9","0","/Users/aviadalbert/Documents/Academisch/UoC/Dissertation/Experiment/OpenSesame/NAP-FC/NAP-FC_GER_AA/GER_AA_ver-2/subject-1.csv","xpyriment","Jazzy James","3.1.6","yes","yes","5950408a6c613b0229e3e810","59504237594d9002288b1720","no","no","0","f","f","space","NA","return","return","f","711","2183","13679","NA","27708","3419","711","2","legacy","1024","1","44100","-16","experiment","ʃmal","28","Freiburg im Breisgau, DE","1","0","1","deutsch","englisch, finnisch","1","odd","Köln","885812","871826","NA","887996","885808","NA","583421","885569","583421","583421","763185","790897","972983","971480","973695","836559","794585","871826","603332","732465","870146","794375","885811","794588","NA","972983","972983","936826","936822","971476","NAP perception","18","36820","27","yes","1024"
"67.8571428571","yes","67.8571428571","1344.67857143","1344.67857143","white","no","xpyriment","I have read and understood the information shown above","legacy","legacy","0","uniform","1","0","0","undefined","undefined","1","f","1","0","NA","0","0","0","0","0","0","0","0","0","37","37","37","0","0","0","0","0","1","0","0","0","1","37","37","37","37","37","Wed Jun 28 14:43:58 2017","Forced-choice identification task with a practice and an experimental phase","yes","NAP-FC_GER_AA_ver-2.osexp","/Users/aviadalbert/Documents/Academisch/UoC/Dissertation/Experiment/OpenSesame/NAP-FC/NAP-FC_GER_AA/GER_AA_ver-2","yes","no","sans","no","20","no","black","no","Next","yes","768","legacy","27","9","0","/Users/aviadalbert/Documents/Academisch/UoC/Dissertation/Experiment/OpenSesame/NAP-FC/NAP-FC_GER_AA/GER_AA_ver-2/subject-1.csv","xpyriment","Jazzy James","3.1.6","yes","yes","5950408a6c613b0229e3e810","59504237594d9002288b1720","no","no","0","f","f","space","NA","return","return","f","831","2183","13679","NA","27708","3419","831","2","legacy","1024","1","44100","-16","experiment","ʃfal","28","Freiburg im Breisgau, DE","1","0","1","deutsch","englisch, finnisch","1","odd","Köln","885812","871826","NA","887996","885808","NA","583421","885569","583421","583421","763185","790897","975462","973958","976294","836559","794585","871826","603332","732465","870146","794375","885811","794588","NA","975462","975462","936826","936822","973954","NAP perception","19","37651","28","yes","1024"
"68.9655172414","yes","68.9655172414","1343.55172414","1343.55172414","white","no","xpyriment","I have read and understood the information shown above","legacy","legacy","0","uniform","1","0","0","undefined","undefined","1","f","1","0","NA","0","0","0","0","0","0","0","0","0","38","38","38","0","0","0","0","0","1","0","0","0","1","38","38","38","38","38","Wed Jun 28 14:43:58 2017","Forced-choice identification task with a practice and an experimental phase","yes","NAP-FC_GER_AA_ver-2.osexp","/Users/aviadalbert/Documents/Academisch/UoC/Dissertation/Experiment/OpenSesame/NAP-FC/NAP-FC_GER_AA/GER_AA_ver-2","yes","no","sans","no","20","no","black","no","Next","yes","768","legacy","28","9","0","/Users/aviadalbert/Documents/Academisch/UoC/Dissertation/Experiment/OpenSesame/NAP-FC/NAP-FC_GER_AA/GER_AA_ver-2/subject-1.csv","xpyriment","Jazzy James","3.1.6","yes","yes","5950408a6c613b0229e3e810","59504237594d9002288b1720","no","no","0","f","f","space","NA","return","return","f","1312","2183","13679","NA","27708","3419","1312","2","legacy","1024","1","44100","-16","experiment","mlal","28","Freiburg im Breisgau, DE","1","0","1","deutsch","englisch, finnisch","1","odd","Köln","885812","871826","NA","887996","885808","NA","583421","885569","583421","583421","763185","790897","978054","976551","979368","836559","794585","871826","603332","732465","870146","794375","885811","794588","NA","978054","978054","936826","936822","976547","NAP perception","20","38963","29","yes","1024"
"70","yes","70","1353.8","1353.8","white","no","xpyriment","I have read and understood the information shown above","legacy","legacy","0","uniform","1","0","0","undefined","undefined","1","j","1","0","NA","0","0","0","0","0","0","0","0","0","39","39","39","0","0","0","0","0","1","0","0","0","1","39","39","39","39","39","Wed Jun 28 14:43:58 2017","Forced-choice identification task with a practice and an experimental phase","yes","NAP-FC_GER_AA_ver-2.osexp","/Users/aviadalbert/Documents/Academisch/UoC/Dissertation/Experiment/OpenSesame/NAP-FC/NAP-FC_GER_AA/GER_AA_ver-2","yes","no","sans","no","20","no","black","no","Next","yes","768","legacy","29","9","0","/Users/aviadalbert/Documents/Academisch/UoC/Dissertation/Experiment/OpenSesame/NAP-FC/NAP-FC_GER_AA/GER_AA_ver-2/subject-1.csv","xpyriment","Jazzy James","3.1.6","yes","yes","5950408a6c613b0229e3e810","59504237594d9002288b1720","no","no","0","j","f","space","NA","return","return","j","1651","2183","13679","NA","27708","3419","1651","2","legacy","1024","1","44100","-16","experiment","wenal","28","Freiburg im Breisgau, DE","1","0","1","deutsch","englisch, finnisch","1","odd","Köln","885812","871826","NA","887996","885808","NA","583421","885569","583421","583421","763185","790897","981157","979653","982810","836559","794585","871826","603332","732465","870146","794375","885811","794588","NA","981157","981157","936826","936822","979650","NAP perception","21","40614","30","yes","1024"
"70.9677419355","yes","70.9677419355","1359.35483871","1359.35483871","white","no","xpyriment","I have read and understood the information shown above","legacy","legacy","0","uniform","1","0","0","undefined","undefined","1","j","1","0","NA","0","0","0","0","0","0","0","0","0","40","40","40","0","0","0","0","0","1","0","0","0","1","40","40","40","40","40","Wed Jun 28 14:43:58 2017","Forced-choice identification task with a practice and an experimental phase","yes","NAP-FC_GER_AA_ver-2.osexp","/Users/aviadalbert/Documents/Academisch/UoC/Dissertation/Experiment/OpenSesame/NAP-FC/NAP-FC_GER_AA/GER_AA_ver-2","yes","no","sans","no","20","no","black","no","Next","yes","768","legacy","30","9","0","/Users/aviadalbert/Documents/Academisch/UoC/Dissertation/Experiment/OpenSesame/NAP-FC/NAP-FC_GER_AA/GER_AA_ver-2/subject-1.csv","xpyriment","Jazzy James","3.1.6","yes","yes","5950408a6c613b0229e3e810","59504237594d9002288b1720","no","no","0","j","f","space","NA","return","return","j","1526","2183","13679","NA","27708","3419","1526","2","legacy","1024","1","44100","-16","experiment","nemal","28","Freiburg im Breisgau, DE","1","0","1","deutsch","englisch, finnisch","1","odd","Köln","885812","871826","NA","887996","885808","NA","583421","885569","583421","583421","763185","790897","984581","983073","986108","836559","794585","871826","603332","732465","870146","794375","885811","794588","NA","984580","984581","936826","936822","983069","NAP perception","22","42140","31","yes","1024"
"71.875","yes","71.875","1341.84375","1341.84375","white","no","xpyriment","I have read and understood the information shown above","legacy","legacy","0","uniform","1","0","0","undefined","undefined","1","f","1","0","NA","0","0","0","0","0","0","0","0","0","41","41","41","0","0","0","0","0","1","0","0","0","1","41","41","41","41","41","Wed Jun 28 14:43:58 2017","Forced-choice identification task with a practice and an experimental phase","yes","NAP-FC_GER_AA_ver-2.osexp","/Users/aviadalbert/Documents/Academisch/UoC/Dissertation/Experiment/OpenSesame/NAP-FC/NAP-FC_GER_AA/GER_AA_ver-2","yes","no","sans","no","20","no","black","no","Next","yes","768","legacy","31","9","0","/Users/aviadalbert/Documents/Academisch/UoC/Dissertation/Experiment/OpenSesame/NAP-FC/NAP-FC_GER_AA/GER_AA_ver-2/subject-1.csv","xpyriment","Jazzy James","3.1.6","yes","yes","5950408a6c613b0229e3e810","59504237594d9002288b1720","no","no","0","f","f","space","NA","return","return","f","799","2183","13679","NA","27708","3419","799","2","legacy","1024","1","44100","-16","experiment","vnal","28","Freiburg im Breisgau, DE","1","0","1","deutsch","englisch, finnisch","1","odd","Köln","885812","871826","NA","887996","885808","NA","583421","885569","583421","583421","763185","790897","987898","986395","988698","836559","794585","871826","603332","732465","870146","794375","885811","794588","NA","987898","987898","936826","936822","986391","NAP perception","23","42939","32","yes","1024"
"69.696969697","yes","69.696969697","1392.09090909","1392.09090909","white","no","xpyriment","I have read and understood the information shown above","legacy","legacy","0","uniform","0","0","0","undefined","undefined","0","f","1","0","NA","0","0","0","0","0","0","0","0","0","42","42","42","0","0","0","0","0","1","0","0","0","1","42","42","42","42","42","Wed Jun 28 14:43:58 2017","Forced-choice identification task with a practice and an experimental phase","yes","NAP-FC_GER_AA_ver-2.osexp","/Users/aviadalbert/Documents/Academisch/UoC/Dissertation/Experiment/OpenSesame/NAP-FC/NAP-FC_GER_AA/GER_AA_ver-2","yes","no","sans","no","20","no","black","no","Next","yes","768","legacy","32","9","0","/Users/aviadalbert/Documents/Academisch/UoC/Dissertation/Experiment/OpenSesame/NAP-FC/NAP-FC_GER_AA/GER_AA_ver-2/subject-1.csv","xpyriment","Jazzy James","3.1.6","yes","yes","5950408a6c613b0229e3e810","59504237594d9002288b1720","no","no","0","None","f","space","NA","return","return","None","3000","2183","13679","NA","27708","3419","3000","2","legacy","1024","1","44100","-16","experiment","jval","28","Freiburg im Breisgau, DE","1","0","1","deutsch","englisch, finnisch","1","odd","Köln","885812","871826","NA","887996","885808","NA","583421","885569","583421","583421","763185","790897","990472","988969","994476","836559","794585","871826","603332","732465","870146","794375","885811","794588","NA","990472","990472","993476","993472","988965","NAP perception","23","45939","33","yes","1024"
"67.6470588235","yes","67.6470588235","1384.29411765","1384.29411765","white","no","xpyriment","I have read and understood the information shown above","legacy","legacy","0","uniform","0","0","0","undefined","undefined","0","f","1","0","NA","0","0","0","0","0","0","0","0","0","43","43","43","0","0","0","0","0","1","0","0","0","1","43","43","43","43","43","Wed Jun 28 14:43:58 2017","Forced-choice identification task with a practice and an experimental phase","yes","NAP-FC_GER_AA_ver-2.osexp","/Users/aviadalbert/Documents/Academisch/UoC/Dissertation/Experiment/OpenSesame/NAP-FC/NAP-FC_GER_AA/GER_AA_ver-2","yes","no","sans","no","20","no","black","no","Next","yes","768","legacy","33","9","0","/Users/aviadalbert/Documents/Academisch/UoC/Dissertation/Experiment/OpenSesame/NAP-FC/NAP-FC_GER_AA/GER_AA_ver-2/subject-1.csv","xpyriment","Jazzy James","3.1.6","yes","yes","5950408a6c613b0229e3e810","59504237594d9002288b1720","no","no","0","j","f","space","NA","return","return","j","1127","2183","13679","NA","27708","3419","1127","2","legacy","1024","1","44100","-16","experiment","wzal","28","Freiburg im Breisgau, DE","1","0","1","deutsch","englisch, finnisch","1","odd","Köln","885812","871826","NA","887996","885808","NA","583421","885569","583421","583421","763185","790897","996260","994757","997389","836559","794585","871826","603332","732465","870146","794375","885811","794588","NA","996260","996260","993476","993472","994752","NAP perception","23","47066","34","yes","1024"
"65.7142857143","yes","65.7142857143","1374.31428571","1374.31428571","white","no","xpyriment","I have read and understood the information shown above","legacy","legacy","0","uniform","0","0","0","undefined","undefined","0","f","1","0","NA","0","0","0","0","0","0","0","0","0","44","44","44","0","0","0","0","0","1","0","0","0","1","44","44","44","44","44","Wed Jun 28 14:43:58 2017","Forced-choice identification task with a practice and an experimental phase","yes","NAP-FC_GER_AA_ver-2.osexp","/Users/aviadalbert/Documents/Academisch/UoC/Dissertation/Experiment/OpenSesame/NAP-FC/NAP-FC_GER_AA/GER_AA_ver-2","yes","no","sans","no","20","no","black","no","Next","yes","768","legacy","34","9","0","/Users/aviadalbert/Documents/Academisch/UoC/Dissertation/Experiment/OpenSesame/NAP-FC/NAP-FC_GER_AA/GER_AA_ver-2/subject-1.csv","xpyriment","Jazzy James","3.1.6","yes","yes","5950408a6c613b0229e3e810","59504237594d9002288b1720","no","no","0","j","f","space","NA","return","return","j","1035","2183","13679","NA","27708","3419","1035","2","legacy","1024","1","44100","-16","experiment","wlal","28","Freiburg im Breisgau, DE","1","0","1","deutsch","englisch, finnisch","1","odd","Köln","885812","871826","NA","887996","885808","NA","583421","885569","583421","583421","763185","790897","999172","997669","1000208","836559","794585","871826","603332","732465","870146","794375","885811","794588","NA","999172","999172","993476","993472","997665","NAP perception","23","48101","35","yes","1024"
"63.8888888889","yes","63.8888888889","1373.05555556","1373.05555556","white","no","xpyriment","I have read and understood the information shown above","legacy","legacy","0","uniform","0","0","0","undefined","undefined","0","f","1","0","NA","0","0","0","0","0","0","0","0","0","45","45","45","0","0","0","0","0","1","0","0","0","1","45","45","45","45","45","Wed Jun 28 14:43:58 2017","Forced-choice identification task with a practice and an experimental phase","yes","NAP-FC_GER_AA_ver-2.osexp","/Users/aviadalbert/Documents/Academisch/UoC/Dissertation/Experiment/OpenSesame/NAP-FC/NAP-FC_GER_AA/GER_AA_ver-2","yes","no","sans","no","20","no","black","no","Next","yes","768","legacy","35","9","0","/Users/aviadalbert/Documents/Academisch/UoC/Dissertation/Experiment/OpenSesame/NAP-FC/NAP-FC_GER_AA/GER_AA_ver-2/subject-1.csv","xpyriment","Jazzy James","3.1.6","yes","yes","5950408a6c613b0229e3e810","59504237594d9002288b1720","no","no","0","j","f","space","NA","return","return","j","1329","2183","13679","NA","27708","3419","1329","2","legacy","1024","1","44100","-16","experiment","lfal","28","Freiburg im Breisgau, DE","1","0","1","deutsch","englisch, finnisch","1","odd","Köln","885812","871826","NA","887996","885808","NA","583421","885569","583421","583421","763185","790897","1001981","1000475","1003311","836559","794585","871826","603332","732465","870146","794375","885811","794588","NA","1001981","1001981","993476","993472","1000471","NAP perception","23","49430","36","yes","1024"
"64.8648648649","yes","64.8648648649","1355.43243243","1355.43243243","white","no","xpyriment","I have read and understood the information shown above","legacy","legacy","0","uniform","1","0","0","undefined","undefined","1","f","1","0","NA","0","0","0","0","0","0","0","0","0","46","46","46","0","0","0","0","0","1","0","0","0","1","46","46","46","46","46","Wed Jun 28 14:43:58 2017","Forced-choice identification task with a practice and an experimental phase","yes","NAP-FC_GER_AA_ver-2.osexp","/Users/aviadalbert/Documents/Academisch/UoC/Dissertation/Experiment/OpenSesame/NAP-FC/NAP-FC_GER_AA/GER_AA_ver-2","yes","no","sans","no","20","no","black","no","Next","yes","768","legacy","36","9","0","/Users/aviadalbert/Documents/Academisch/UoC/Dissertation/Experiment/OpenSesame/NAP-FC/NAP-FC_GER_AA/GER_AA_ver-2/subject-1.csv","xpyriment","Jazzy James","3.1.6","yes","yes","5950408a6c613b0229e3e810","59504237594d9002288b1720","no","no","0","f","f","space","NA","return","return","f","721","2183","13679","NA","27708","3419","721","2","legacy","1024","1","44100","-16","experiment","ftal","28","Freiburg im Breisgau, DE","1","0","1","deutsch","englisch, finnisch","1","odd","Köln","885812","871826","NA","887996","885808","NA","583421","885569","583421","583421","763185","790897","1005094","1003590","1005816","836559","794585","871826","603332","732465","870146","794375","885811","794588","NA","1005094","1005094","993476","993472","1003586","NAP perception","24","50151","37","yes","1024"
"65.7894736842","yes","65.7894736842","1372.28947368","1372.28947368","white","no","xpyriment","I have read and understood the information shown above","legacy","legacy","0","uniform","1","0","0","undefined","undefined","1","j","1","0","NA","0","0","0","0","0","0","0","0","0","47","47","47","0","0","0","0","0","1","0","0","0","1","47","47","47","47","47","Wed Jun 28 14:43:58 2017","Forced-choice identification task with a practice and an experimental phase","yes","NAP-FC_GER_AA_ver-2.osexp","/Users/aviadalbert/Documents/Academisch/UoC/Dissertation/Experiment/OpenSesame/NAP-FC/NAP-FC_GER_AA/GER_AA_ver-2","yes","no","sans","no","20","no","black","no","Next","yes","768","legacy","37","9","0","/Users/aviadalbert/Documents/Academisch/UoC/Dissertation/Experiment/OpenSesame/NAP-FC/NAP-FC_GER_AA/GER_AA_ver-2/subject-1.csv","xpyriment","Jazzy James","3.1.6","yes","yes","5950408a6c613b0229e3e810","59504237594d9002288b1720","no","no","0","j","f","space","NA","return","return","j","1996","2183","13679","NA","27708","3419","1996","2","legacy","1024","1","44100","-16","experiment","efsal","28","Freiburg im Breisgau, DE","1","0","1","deutsch","englisch, finnisch","1","odd","Köln","885812","871826","NA","887996","885808","NA","583421","885569","583421","583421","763185","790897","1007590","1006085","1009588","836559","794585","871826","603332","732465","870146","794375","885811","794588","NA","1007589","1007589","993476","993472","1006081","NAP perception","25","52147","38","yes","1024"
"66.6666666667","yes","66.6666666667","1376.48717949","1376.48717949","white","no","xpyriment","I have read and understood the information shown above","legacy","legacy","0","uniform","1","0","0","undefined","undefined","1","f","1","0","NA","0","0","0","0","0","0","0","0","0","48","48","48","0","0","0","0","0","1","0","0","0","1","48","48","48","48","48","Wed Jun 28 14:43:58 2017","Forced-choice identification task with a practice and an experimental phase","yes","NAP-FC_GER_AA_ver-2.osexp","/Users/aviadalbert/Documents/Academisch/UoC/Dissertation/Experiment/OpenSesame/NAP-FC/NAP-FC_GER_AA/GER_AA_ver-2","yes","no","sans","no","20","no","black","no","Next","yes","768","legacy","38","9","0","/Users/aviadalbert/Documents/Academisch/UoC/Dissertation/Experiment/OpenSesame/NAP-FC/NAP-FC_GER_AA/GER_AA_ver-2/subject-1.csv","xpyriment","Jazzy James","3.1.6","yes","yes","5950408a6c613b0229e3e810","59504237594d9002288b1720","no","no","0","f","f","space","NA","return","return","f","1536","2183","13679","NA","27708","3419","1536","2","legacy","1024","1","44100","-16","experiment","mzal","28","Freiburg im Breisgau, DE","1","0","1","deutsch","englisch, finnisch","1","odd","Köln","885812","871826","NA","887996","885808","NA","583421","885569","583421","583421","763185","790897","1011359","1009852","1012897","836559","794585","871826","603332","732465","870146","794375","885811","794588","NA","1011359","1011359","993476","993472","1009848","NAP perception","26","53683","39","yes","1024"
"67.5","yes","67.5","1395.1","1395.1","white","no","xpyriment","I have read and understood the information shown above","legacy","legacy","0","uniform","1","0","0","undefined","undefined","1","f","1","0","NA","0","0","0","0","0","0","0","0","0","49","49","49","0","0","0","0","0","1","0","0","0","1","49","49","49","49","49","Wed Jun 28 14:43:58 2017","Forced-choice identification task with a practice and an experimental phase","yes","NAP-FC_GER_AA_ver-2.osexp","/Users/aviadalbert/Documents/Academisch/UoC/Dissertation/Experiment/OpenSesame/NAP-FC/NAP-FC_GER_AA/GER_AA_ver-2","yes","no","sans","no","20","no","black","no","Next","yes","768","legacy","39","9","0","/Users/aviadalbert/Documents/Academisch/UoC/Dissertation/Experiment/OpenSesame/NAP-FC/NAP-FC_GER_AA/GER_AA_ver-2/subject-1.csv","xpyriment","Jazzy James","3.1.6","yes","yes","5950408a6c613b0229e3e810","59504237594d9002288b1720","no","no","0","f","f","space","NA","return","return","f","2121","2183","13679","NA","27708","3419","2121","2","legacy","1024","1","44100","-16","experiment","wsal","28","Freiburg im Breisgau, DE","1","0","1","deutsch","englisch, finnisch","1","odd","Köln","885812","871826","NA","887996","885808","NA","583421","885569","583421","583421","763185","790897","1014672","1013169","1016794","836559","794585","871826","603332","732465","870146","794375","885811","794588","NA","1014672","1014672","993476","993472","1013165","NAP perception","27","55804","40","yes","1024"
"68.2926829268","yes","68.2926829268","1391.6097561","1391.6097561","white","no","xpyriment","I have read and understood the information shown above","legacy","legacy","0","uniform","1","0","0","undefined","undefined","1","j","1","0","NA","0","0","0","0","0","0","0","0","0","50","50","50","0","0","0","0","0","1","0","0","0","1","50","50","50","50","50","Wed Jun 28 14:43:58 2017","Forced-choice identification task with a practice and an experimental phase","yes","NAP-FC_GER_AA_ver-2.osexp","/Users/aviadalbert/Documents/Academisch/UoC/Dissertation/Experiment/OpenSesame/NAP-FC/NAP-FC_GER_AA/GER_AA_ver-2","yes","no","sans","no","20","no","black","no","Next","yes","768","legacy","40","9","0","/Users/aviadalbert/Documents/Academisch/UoC/Dissertation/Experiment/OpenSesame/NAP-FC/NAP-FC_GER_AA/GER_AA_ver-2/subject-1.csv","xpyriment","Jazzy James","3.1.6","yes","yes","5950408a6c613b0229e3e810","59504237594d9002288b1720","no","no","0","j","f","space","NA","return","return","j","1252","2183","13679","NA","27708","3419","1252","2","legacy","1024","1","44100","-16","experiment","enval","28","Freiburg im Breisgau, DE","1","0","1","deutsch","englisch, finnisch","1","odd","Köln","885812","871826","NA","887996","885808","NA","583421","885569","583421","583421","763185","790897","1018575","1017069","1019829","836559","794585","871826","603332","732465","870146","794375","885811","794588","NA","1018575","1018575","993476","993472","1017065","NAP perception","28","57056","41","yes","1024"
"69.0476190476","yes","69.0476190476","1394.76190476","1394.76190476","white","no","xpyriment","I have read and understood the information shown above","legacy","legacy","0","uniform","1","0","0","undefined","undefined","1","j","1","0","NA","0","0","0","0","0","0","0","0","0","51","51","51","0","0","0","0","0","1","0","0","0","1","51","51","51","51","51","Wed Jun 28 14:43:58 2017","Forced-choice identification task with a practice and an experimental phase","yes","NAP-FC_GER_AA_ver-2.osexp","/Users/aviadalbert/Documents/Academisch/UoC/Dissertation/Experiment/OpenSesame/NAP-FC/NAP-FC_GER_AA/GER_AA_ver-2","yes","no","sans","no","20","no","black","no","Next","yes","768","legacy","41","9","0","/Users/aviadalbert/Documents/Academisch/UoC/Dissertation/Experiment/OpenSesame/NAP-FC/NAP-FC_GER_AA/GER_AA_ver-2/subject-1.csv","xpyriment","Jazzy James","3.1.6","yes","yes","5950408a6c613b0229e3e810","59504237594d9002288b1720","no","no","0","j","f","space","NA","return","return","j","1524","2183","13679","NA","27708","3419","1524","2","legacy","1024","1","44100","-16","experiment","melal","28","Freiburg im Breisgau, DE","1","0","1","deutsch","englisch, finnisch","1","odd","Köln","885812","871826","NA","887996","885808","NA","583421","885569","583421","583421","763185","790897","1021605","1020102","1023131","836559","794585","871826","603332","732465","870146","794375","885811","794588","NA","1021605","1021605","993476","993472","1020098","NAP perception","29","58580","42","yes","1024"
"67.4418604651","yes","67.4418604651","1422.69767442","1422.69767442","white","no","xpyriment","I have read and understood the information shown above","legacy","legacy","0","uniform","0","0","0","undefined","undefined","0","j","1","0","NA","0","0","0","0","0","0","0","0","0","52","52","52","0","0","0","0","0","1","0","0","0","1","52","52","52","52","52","Wed Jun 28 14:43:58 2017","Forced-choice identification task with a practice and an experimental phase","yes","NAP-FC_GER_AA_ver-2.osexp","/Users/aviadalbert/Documents/Academisch/UoC/Dissertation/Experiment/OpenSesame/NAP-FC/NAP-FC_GER_AA/GER_AA_ver-2","yes","no","sans","no","20","no","black","no","Next","yes","768","legacy","42","9","0","/Users/aviadalbert/Documents/Academisch/UoC/Dissertation/Experiment/OpenSesame/NAP-FC/NAP-FC_GER_AA/GER_AA_ver-2/subject-1.csv","xpyriment","Jazzy James","3.1.6","yes","yes","5950408a6c613b0229e3e810","59504237594d9002288b1720","no","no","0","f","f","space","NA","return","return","f","2596","2183","13679","NA","27708","3419","2596","2","legacy","1024","1","44100","-16","experiment","sefal","28","Freiburg im Breisgau, DE","1","0","1","deutsch","englisch, finnisch","1","odd","Köln","885812","871826","NA","887996","885808","NA","583421","885569","583421","583421","763185","790897","1024909","1023406","1027507","836559","794585","871826","603332","732465","870146","794375","885811","794588","NA","1024909","1024909","993476","993472","1023402","NAP perception","29","61176","43","yes","1024"
"65.9090909091","yes","65.9090909091","1422.95454545","1422.95454545","white","no","xpyriment","I have read and understood the information shown above","legacy","legacy","0","uniform","0","0","0","undefined","undefined","0","f","1","0","NA","0","0","0","0","0","0","0","0","0","53","53","53","0","0","0","0","0","1","0","0","0","1","53","53","53","53","53","Wed Jun 28 14:43:58 2017","Forced-choice identification task with a practice and an experimental phase","yes","NAP-FC_GER_AA_ver-2.osexp","/Users/aviadalbert/Documents/Academisch/UoC/Dissertation/Experiment/OpenSesame/NAP-FC/NAP-FC_GER_AA/GER_AA_ver-2","yes","no","sans","no","20","no","black","no","Next","yes","768","legacy","43","9","0","/Users/aviadalbert/Documents/Academisch/UoC/Dissertation/Experiment/OpenSesame/NAP-FC/NAP-FC_GER_AA/GER_AA_ver-2/subject-1.csv","xpyriment","Jazzy James","3.1.6","yes","yes","5950408a6c613b0229e3e810","59504237594d9002288b1720","no","no","0","j","f","space","NA","return","return","j","1434","2183","13679","NA","27708","3419","1434","2","legacy","1024","1","44100","-16","experiment","mtal","28","Freiburg im Breisgau, DE","1","0","1","deutsch","englisch, finnisch","1","odd","Köln","885812","871826","NA","887996","885808","NA","583421","885569","583421","583421","763185","790897","1029275","1027772","1030711","836559","794585","871826","603332","732465","870146","794375","885811","794588","NA","1029275","1029275","993476","993472","1027767","NAP perception","29","62610","44","yes","1024"
"66.6666666667","yes","66.6666666667","1438.04444444","1438.04444444","white","no","xpyriment","I have read and understood the information shown above","legacy","legacy","0","uniform","1","0","0","undefined","undefined","1","j","1","0","NA","0","0","0","0","0","0","0","0","0","54","54","54","0","0","0","0","0","1","0","0","0","1","54","54","54","54","54","Wed Jun 28 14:43:58 2017","Forced-choice identification task with a practice and an experimental phase","yes","NAP-FC_GER_AA_ver-2.osexp","/Users/aviadalbert/Documents/Academisch/UoC/Dissertation/Experiment/OpenSesame/NAP-FC/NAP-FC_GER_AA/GER_AA_ver-2","yes","no","sans","no","20","no","black","no","Next","yes","768","legacy","44","9","0","/Users/aviadalbert/Documents/Academisch/UoC/Dissertation/Experiment/OpenSesame/NAP-FC/NAP-FC_GER_AA/GER_AA_ver-2/subject-1.csv","xpyriment","Jazzy James","3.1.6","yes","yes","5950408a6c613b0229e3e810","59504237594d9002288b1720","no","no","0","j","f","space","NA","return","return","j","2102","2183","13679","NA","27708","3419","2102","2","legacy","1024","1","44100","-16","experiment","fetal","28","Freiburg im Breisgau, DE","1","0","1","deutsch","englisch, finnisch","1","odd","Köln","885812","871826","NA","887996","885808","NA","583421","885569","583421","583421","763185","790897","1032473","1030970","1034577","836559","794585","871826","603332","732465","870146","794375","885811","794588","NA","1032473","1032473","993476","993472","1030966","NAP perception","30","64712","45","yes","1024"
"67.3913043478","yes","67.3913043478","1429.67391304","1429.67391304","white","no","xpyriment","I have read and understood the information shown above","legacy","legacy","0","uniform","1","0","0","undefined","undefined","1","j","1","0","NA","0","0","0","0","0","0","0","0","0","55","55","55","0","0","0","0","0","1","0","0","0","1","55","55","55","55","55","Wed Jun 28 14:43:58 2017","Forced-choice identification task with a practice and an experimental phase","yes","NAP-FC_GER_AA_ver-2.osexp","/Users/aviadalbert/Documents/Academisch/UoC/Dissertation/Experiment/OpenSesame/NAP-FC/NAP-FC_GER_AA/GER_AA_ver-2","yes","no","sans","no","20","no","black","no","Next","yes","768","legacy","45","9","0","/Users/aviadalbert/Documents/Academisch/UoC/Dissertation/Experiment/OpenSesame/NAP-FC/NAP-FC_GER_AA/GER_AA_ver-2/subject-1.csv","xpyriment","Jazzy James","3.1.6","yes","yes","5950408a6c613b0229e3e810","59504237594d9002288b1720","no","no","0","j","f","space","NA","return","return","j","1053","2183","13679","NA","27708","3419","1053","2","legacy","1024","1","44100","-16","experiment","venal","28","Freiburg im Breisgau, DE","1","0","1","deutsch","englisch, finnisch","1","odd","Köln","885812","871826","NA","887996","885808","NA","583421","885569","583421","583421","763185","790897","1036347","1034844","1037402","836559","794585","871826","603332","732465","870146","794375","885811","794588","NA","1036347","1036347","993476","993472","1034840","NAP perception","31","65765","46","yes","1024"
"68.085106383","yes","68.085106383","1440.29787234","1440.29787234","white","no","xpyriment","I have read and understood the information shown above","legacy","legacy","0","uniform","1","0","0","undefined","undefined","1","j","1","0","NA","0","0","0","0","0","0","0","0","0","56","56","56","0","0","0","0","0","1","0","0","0","1","56","56","56","56","56","Wed Jun 28 14:43:58 2017","Forced-choice identification task with a practice and an experimental phase","yes","NAP-FC_GER_AA_ver-2.osexp","/Users/aviadalbert/Documents/Academisch/UoC/Dissertation/Experiment/OpenSesame/NAP-FC/NAP-FC_GER_AA/GER_AA_ver-2","yes","no","sans","no","20","no","black","no","Next","yes","768","legacy","46","9","0","/Users/aviadalbert/Documents/Academisch/UoC/Dissertation/Experiment/OpenSesame/NAP-FC/NAP-FC_GER_AA/GER_AA_ver-2/subject-1.csv","xpyriment","Jazzy James","3.1.6","yes","yes","5950408a6c613b0229e3e810","59504237594d9002288b1720","no","no","0","j","f","space","NA","return","return","j","1929","2183","13679","NA","27708","3419","1929","2","legacy","1024","1","44100","-16","experiment","mezal","28","Freiburg im Breisgau, DE","1","0","1","deutsch","englisch, finnisch","1","odd","Köln","885812","871826","NA","887996","885808","NA","583421","885569","583421","583421","763185","790897","1039178","1037672","1041110","836559","794585","871826","603332","732465","870146","794375","885811","794588","NA","1039178","1039178","993476","993472","1037669","NAP perception","32","67694","47","yes","1024"
"68.75","yes","68.75","1440.83333333","1440.83333333","white","no","xpyriment","I have read and understood the information shown above","legacy","legacy","0","uniform","1","0","0","undefined","undefined","1","j","1","0","NA","0","0","0","0","0","0","0","0","0","57","57","57","0","0","0","0","0","1","0","0","0","1","57","57","57","57","57","Wed Jun 28 14:43:58 2017","Forced-choice identification task with a practice and an experimental phase","yes","NAP-FC_GER_AA_ver-2.osexp","/Users/aviadalbert/Documents/Academisch/UoC/Dissertation/Experiment/OpenSesame/NAP-FC/NAP-FC_GER_AA/GER_AA_ver-2","yes","no","sans","no","20","no","black","no","Next","yes","768","legacy","47","9","0","/Users/aviadalbert/Documents/Academisch/UoC/Dissertation/Experiment/OpenSesame/NAP-FC/NAP-FC_GER_AA/GER_AA_ver-2/subject-1.csv","xpyriment","Jazzy James","3.1.6","yes","yes","5950408a6c613b0229e3e810","59504237594d9002288b1720","no","no","0","j","f","space","NA","return","return","j","1466","2183","13679","NA","27708","3419","1466","2","legacy","1024","1","44100","-16","experiment","esmal","28","Freiburg im Breisgau, DE","1","0","1","deutsch","englisch, finnisch","1","odd","Köln","885812","871826","NA","887996","885808","NA","583421","885569","583421","583421","763185","790897","1042885","1041382","1044353","836559","794585","871826","603332","732465","870146","794375","885811","794588","NA","1042885","1042885","993476","993472","1041378","NAP perception","33","69160","48","yes","1024"
"69.387755102","yes","69.387755102","1442.24489796","1442.24489796","white","no","xpyriment","I have read and understood the information shown above","legacy","legacy","0","uniform","1","0","0","undefined","undefined","1","f","1","0","NA","0","0","0","0","0","0","0","0","0","58","58","58","0","0","0","0","0","1","0","0","0","1","58","58","58","58","58","Wed Jun 28 14:43:58 2017","Forced-choice identification task with a practice and an experimental phase","yes","NAP-FC_GER_AA_ver-2.osexp","/Users/aviadalbert/Documents/Academisch/UoC/Dissertation/Experiment/OpenSesame/NAP-FC/NAP-FC_GER_AA/GER_AA_ver-2","yes","no","sans","no","20","no","black","no","Next","yes","768","legacy","48","9","0","/Users/aviadalbert/Documents/Academisch/UoC/Dissertation/Experiment/OpenSesame/NAP-FC/NAP-FC_GER_AA/GER_AA_ver-2/subject-1.csv","xpyriment","Jazzy James","3.1.6","yes","yes","5950408a6c613b0229e3e810","59504237594d9002288b1720","no","no","0","f","f","space","NA","return","return","f","1510","2183","13679","NA","27708","3419","1510","2","legacy","1024","1","44100","-16","experiment","nfal","28","Freiburg im Breisgau, DE","1","0","1","deutsch","englisch, finnisch","1","odd","Köln","885812","871826","NA","887996","885808","NA","583421","885569","583421","583421","763185","790897","1046132","1044625","1047643","836559","794585","871826","603332","732465","870146","794375","885811","794588","NA","1046132","1046132","993476","993472","1044621","NAP perception","34","70670","49","yes","1024"
"70","yes","70","1432.88","1432.88","white","no","xpyriment","I have read and understood the information shown above","legacy","legacy","0","uniform","1","0","0","undefined","undefined","1","f","1","0","NA","0","0","0","0","0","0","0","0","0","59","59","59","0","0","0","0","0","1","0","0","0","1","59","59","59","59","59","Wed Jun 28 14:43:58 2017","Forced-choice identification task with a practice and an experimental phase","yes","NAP-FC_GER_AA_ver-2.osexp","/Users/aviadalbert/Documents/Academisch/UoC/Dissertation/Experiment/OpenSesame/NAP-FC/NAP-FC_GER_AA/GER_AA_ver-2","yes","no","sans","no","20","no","black","no","Next","yes","768","legacy","49","9","0","/Users/aviadalbert/Documents/Academisch/UoC/Dissertation/Experiment/OpenSesame/NAP-FC/NAP-FC_GER_AA/GER_AA_ver-2/subject-1.csv","xpyriment","Jazzy James","3.1.6","yes","yes","5950408a6c613b0229e3e810","59504237594d9002288b1720","no","no","0","f","f","space","NA","return","return","f","974","2183","13679","NA","27708","3419","974","2","legacy","1024","1","44100","-16","experiment","ʃpal","28","Freiburg im Breisgau, DE","1","0","1","deutsch","englisch, finnisch","1","odd","Köln","885812","871826","NA","887996","885808","NA","583421","885569","583421","583421","763185","790897","1049417","1047910","1050392","836559","794585","871826","603332","732465","870146","794375","885811","794588","NA","1049417","1049417","993476","993472","1047906","NAP perception","35","71644","50","yes","1024"
"70.5882352941","yes","70.5882352941","1435.15686275","1435.15686275","white","no","xpyriment","I have read and understood the information shown above","legacy","legacy","0","uniform","1","0","0","undefined","undefined","1","f","1","0","NA","0","0","0","0","0","0","0","0","0","60","60","60","0","0","0","0","0","1","0","0","0","1","60","60","60","60","60","Wed Jun 28 14:43:58 2017","Forced-choice identification task with a practice and an experimental phase","yes","NAP-FC_GER_AA_ver-2.osexp","/Users/aviadalbert/Documents/Academisch/UoC/Dissertation/Experiment/OpenSesame/NAP-FC/NAP-FC_GER_AA/GER_AA_ver-2","yes","no","sans","no","20","no","black","no","Next","yes","768","legacy","50","9","0","/Users/aviadalbert/Documents/Academisch/UoC/Dissertation/Experiment/OpenSesame/NAP-FC/NAP-FC_GER_AA/GER_AA_ver-2/subject-1.csv","xpyriment","Jazzy James","3.1.6","yes","yes","5950408a6c613b0229e3e810","59504237594d9002288b1720","no","no","0","f","f","space","NA","return","return","f","1549","2183","13679","NA","27708","3419","1549","2","legacy","1024","1","44100","-16","experiment","mnal","28","Freiburg im Breisgau, DE","1","0","1","deutsch","englisch, finnisch","1","odd","Köln","885812","871826","NA","887996","885808","NA","583421","885569","583421","583421","763185","790897","1052172","1050668","1053723","836559","794585","871826","603332","732465","870146","794375","885811","794588","NA","1052172","1052172","993476","993472","1050664","NAP perception","36","73193","51","yes","1024"
"69.2307692308","yes","69.2307692308","1452.48076923","1452.48076923","white","no","xpyriment","I have read and understood the information shown above","legacy","legacy","0","uniform","0","0","0","undefined","undefined","0","f","1","0","NA","0","0","0","0","0","0","0","0","0","61","61","61","0","0","0","0","0","1","0","0","0","1","61","61","61","61","61","Wed Jun 28 14:43:58 2017","Forced-choice identification task with a practice and an experimental phase","yes","NAP-FC_GER_AA_ver-2.osexp","/Users/aviadalbert/Documents/Academisch/UoC/Dissertation/Experiment/OpenSesame/NAP-FC/NAP-FC_GER_AA/GER_AA_ver-2","yes","no","sans","no","20","no","black","no","Next","yes","768","legacy","51","9","0","/Users/aviadalbert/Documents/Academisch/UoC/Dissertation/Experiment/OpenSesame/NAP-FC/NAP-FC_GER_AA/GER_AA_ver-2/subject-1.csv","xpyriment","Jazzy James","3.1.6","yes","yes","5950408a6c613b0229e3e810","59504237594d9002288b1720","no","no","0","j","f","space","NA","return","return","j","2336","2183","13679","NA","27708","3419","2336","2","legacy","1024","1","44100","-16","experiment","npal","28","Freiburg im Breisgau, DE","1","0","1","deutsch","englisch, finnisch","1","odd","Köln","885812","871826","NA","887996","885808","NA","583421","885569","583421","583421","763185","790897","1055502","1053996","1057839","836559","794585","871826","603332","732465","870146","794375","885811","794588","NA","1055502","1055502","993476","993472","1053992","NAP perception","36","75529","52","yes","1024"
"69.8113207547","yes","69.8113207547","1442.83018868","1442.83018868","white","no","xpyriment","I have read and understood the information shown above","legacy","legacy","0","uniform","1","0","0","undefined","undefined","1","f","1","0","NA","0","0","0","0","0","0","0","0","0","62","62","62","0","0","0","0","0","1","0","0","0","1","62","62","62","62","62","Wed Jun 28 14:43:58 2017","Forced-choice identification task with a practice and an experimental phase","yes","NAP-FC_GER_AA_ver-2.osexp","/Users/aviadalbert/Documents/Academisch/UoC/Dissertation/Experiment/OpenSesame/NAP-FC/NAP-FC_GER_AA/GER_AA_ver-2","yes","no","sans","no","20","no","black","no","Next","yes","768","legacy","52","9","0","/Users/aviadalbert/Documents/Academisch/UoC/Dissertation/Experiment/OpenSesame/NAP-FC/NAP-FC_GER_AA/GER_AA_ver-2/subject-1.csv","xpyriment","Jazzy James","3.1.6","yes","yes","5950408a6c613b0229e3e810","59504237594d9002288b1720","no","no","0","f","f","space","NA","return","return","f","941","2183","13679","NA","27708","3419","941","2","legacy","1024","1","44100","-16","experiment","zval","28","Freiburg im Breisgau, DE","1","0","1","deutsch","englisch, finnisch","1","odd","Köln","885812","871826","NA","887996","885808","NA","583421","885569","583421","583421","763185","790897","1059616","1058112","1060559","836559","794585","871826","603332","732465","870146","794375","885811","794588","NA","1059616","1059616","993476","993472","1058108","NAP perception","37","76470","53","yes","1024"
"70.3703703704","yes","70.3703703704","1432.92592593","1432.92592593","white","no","xpyriment","I have read and understood the information shown above","legacy","legacy","0","uniform","1","0","0","undefined","undefined","1","j","1","0","NA","0","0","0","0","0","0","0","0","0","63","63","63","0","0","0","0","0","1","0","0","0","1","63","63","63","63","63","Wed Jun 28 14:43:58 2017","Forced-choice identification task with a practice and an experimental phase","yes","NAP-FC_GER_AA_ver-2.osexp","/Users/aviadalbert/Documents/Academisch/UoC/Dissertation/Experiment/OpenSesame/NAP-FC/NAP-FC_GER_AA/GER_AA_ver-2","yes","no","sans","no","20","no","black","no","Next","yes","768","legacy","53","9","0","/Users/aviadalbert/Documents/Academisch/UoC/Dissertation/Experiment/OpenSesame/NAP-FC/NAP-FC_GER_AA/GER_AA_ver-2/subject-1.csv","xpyriment","Jazzy James","3.1.6","yes","yes","5950408a6c613b0229e3e810","59504237594d9002288b1720","no","no","0","j","f","space","NA","return","return","j","908","2183","13679","NA","27708","3419","908","2","legacy","1024","1","44100","-16","experiment","lekal","28","Freiburg im Breisgau, DE","1","0","1","deutsch","englisch, finnisch","1","odd","Köln","885812","871826","NA","887996","885808","NA","583421","885569","583421","583421","763185","790897","1062332","1060825","1063241","836559","794585","871826","603332","732465","870146","794375","885811","794588","NA","1062332","1062332","993476","993472","1060821","NAP perception","38","77378","54","yes","1024"
"70.9090909091","yes","70.9090909091","1428.83636364","1428.83636364","white","no","xpyriment","I have read and understood the information shown above","legacy","legacy","0","uniform","1","0","0","undefined","undefined","1","j","1","0","NA","0","0","0","0","0","0","0","0","0","64","64","64","0","0","0","0","0","1","0","0","0","1","64","64","64","64","64","Wed Jun 28 14:43:58 2017","Forced-choice identification task with a practice and an experimental phase","yes","NAP-FC_GER_AA_ver-2.osexp","/Users/aviadalbert/Documents/Academisch/UoC/Dissertation/Experiment/OpenSesame/NAP-FC/NAP-FC_GER_AA/GER_AA_ver-2","yes","no","sans","no","20","no","black","no","Next","yes","768","legacy","54","9","0","/Users/aviadalbert/Documents/Academisch/UoC/Dissertation/Experiment/OpenSesame/NAP-FC/NAP-FC_GER_AA/GER_AA_ver-2/subject-1.csv","xpyriment","Jazzy James","3.1.6","yes","yes","5950408a6c613b0229e3e810","59504237594d9002288b1720","no","no","0","j","f","space","NA","return","return","j","1208","2183","13679","NA","27708","3419","1208","2","legacy","1024","1","44100","-16","experiment","jemal","28","Freiburg im Breisgau, DE","1","0","1","deutsch","englisch, finnisch","1","odd","Köln","885812","871826","NA","887996","885808","NA","583421","885569","583421","583421","763185","790897","1065011","1063508","1066221","836559","794585","871826","603332","732465","870146","794375","885811","794588","NA","1065011","1065011","993476","993472","1063504","NAP perception","39","78586","55","yes","1024"
"71.4285714286","yes","71.4285714286","1420.125","1420.125","white","no","xpyriment","I have read and understood the information shown above","legacy","legacy","0","uniform","1","0","0","undefined","undefined","1","j","1","0","NA","0","0","0","0","0","0","0","0","0","65","65","65","0","0","0","0","0","1","0","0","0","1","65","65","65","65","65","Wed Jun 28 14:43:58 2017","Forced-choice identification task with a practice and an experimental phase","yes","NAP-FC_GER_AA_ver-2.osexp","/Users/aviadalbert/Documents/Academisch/UoC/Dissertation/Experiment/OpenSesame/NAP-FC/NAP-FC_GER_AA/GER_AA_ver-2","yes","no","sans","no","20","no","black","no","Next","yes","768","legacy","55","9","0","/Users/aviadalbert/Documents/Academisch/UoC/Dissertation/Experiment/OpenSesame/NAP-FC/NAP-FC_GER_AA/GER_AA_ver-2/subject-1.csv","xpyriment","Jazzy James","3.1.6","yes","yes","5950408a6c613b0229e3e810","59504237594d9002288b1720","no","no","0","j","f","space","NA","return","return","j","941","2183","13679","NA","27708","3419","941","2","legacy","1024","1","44100","-16","experiment","nefal","28","Freiburg im Breisgau, DE","1","0","1","deutsch","englisch, finnisch","1","odd","Köln","885812","871826","NA","887996","885808","NA","583421","885569","583421","583421","763185","790897","1067987","1066483","1068930","836559","794585","871826","603332","732465","870146","794375","885811","794588","NA","1067987","1067987","993476","993472","1066479","NAP perception","40","79527","56","yes","1024"
