"acc","accept_status","accuracy","average_response_time","avg_rt","background","bidi","canvas_backend","checkbox_status","clock_backend","color_backend","compensation","coordinates","correct","correct_block_activation","correct_block_exit","correct_instructions_1","correct_instructions_2","correct_keyboard_response","correct_response","count_block_activation","count_block_exit","count_block_info_QA","count_e_block_loop","count_e_block_sequence","count_end_of_experiment","count_experiment","count_experimental_loop","count_form_consent","count_info_forms","count_instructions_1","count_instructions_2","count_keyboard_response","count_listen_message","count_logger","count_p_block_loop","count_p_block_sequence","count_p_feedback","count_personal_details_form_1","count_personal_details_form_2","count_post_loop_blank","count_practice_loop","count_pre_e_block_message","count_pre_p_block_message","count_reset_feedback","count_stimulus_image","count_stimulus_sound","count_timeout_message","count_timeout_sound","count_trial_sequence","datetime","description","disable_garbage_collection","experiment_file","experiment_path","expyriment_opengl","font_bold","font_family","font_italic","font_size","font_underline","foreground","form_clicks","form_response","fullscreen","height","keyboard_backend","live_row","live_row_p_block_loop","live_row_practice_loop","logfile","mouse_backend","opensesame_codename","opensesame_version","osf_always_upload_data","osf_always_upload_experiment","osf_datanode_id","osf_id","practice","pygame_doublebuf","repeat_cycle","response","response_block_activation","response_block_exit","response_block_info_QA","response_instructions_1","response_instructions_2","response_keyboard_response","response_time","response_time_block_activation","response_time_block_exit","response_time_block_info_QA","response_time_instructions_1","response_time_instructions_2","response_time_keyboard_response","round_decimals","sampler_backend","sound_buf_size","sound_channels","sound_freq","sound_sample_size","start","stimulus","subject_age","subject_birth","subject_education","subject_gender","subject_handedness","subject_language_native","subject_language_other","subject_nr","subject_parity","subject_residence","time_block_activation","time_block_exit","time_block_info_QA","time_e_block_loop","time_e_block_sequence","time_end_of_experiment","time_experiment","time_experimental_loop","time_form_consent","time_info_forms","time_instructions_1","time_instructions_2","time_keyboard_response","time_listen_message","time_logger","time_p_block_loop","time_p_block_sequence","time_p_feedback","time_personal_details_form_1","time_personal_details_form_2","time_post_loop_blank","time_practice_loop","time_pre_e_block_message","time_pre_p_block_message","time_reset_feedback","time_stimulus_image","time_stimulus_sound","time_timeout_message","time_timeout_sound","time_trial_sequence","title","total_correct","total_response_time","total_responses","uniform_coordinates","width"
"100","yes","100","2025","2025","white","no","xpyriment","I have read and understood the information shown above","legacy","legacy","0","uniform","1","0","NA","undefined","undefined","1","f","0","0","NA","NA","NA","NA","0","0","0","0","0","0","0","0","0","0","0","NA","0","0","0","0","NA","0","0","0","0","0","0","0","Wed Jun 28 15:28:56 2017","Forced-choice identification task with a practice and an experimental phase","yes","NAP-FC_GER_AA_ver-2.osexp","/Users/aviadalbert/Documents/Academisch/UoC/Dissertation/Experiment/OpenSesame/NAP-FC/NAP-FC_GER_AA/GER_AA_ver-2","yes","no","sans","no","20","no","black","no","Next","yes","768","legacy","0","0","0","/Users/aviadalbert/Documents/Academisch/UoC/Dissertation/Experiment/OpenSesame/NAP-FC/NAP-FC_GER_AA/GER_AA_ver-2/subject-3.csv","xpyriment","Jazzy James","3.1.6","yes","yes","5950408a6c613b0229e3e810","59504237594d9002288b1720","yes","no","0","f","f","NA","NA","space","space","f","2025","9735","NA","NA","14904","10879","2025","2","legacy","1024","1","44100","-16","experiment","flal","25","Donaueschingen, Ger","1","0","1","german","english, spanish, french, latin","3","odd","Cologne","2606415","NA","NA","NA","NA","NA","1324347","NA","1324347","1324347","2580341","2595249","2617869","2616364","2619895","2616151","2606411","NA","2457055","2563972","NA","2606190","NA","2606414","NA","2617869","2617869","NA","NA","2616361","NAP perception","1","2025","1","yes","1024"
"100","yes","100","1540.5","1540.5","white","no","xpyriment","I have read and understood the information shown above","legacy","legacy","0","uniform","1","0","NA","undefined","undefined","1","j","0","0","NA","NA","NA","NA","0","0","0","0","0","0","1","1","1","0","0","NA","0","0","0","0","NA","0","0","1","1","1","1","1","Wed Jun 28 15:28:56 2017","Forced-choice identification task with a practice and an experimental phase","yes","NAP-FC_GER_AA_ver-2.osexp","/Users/aviadalbert/Documents/Academisch/UoC/Dissertation/Experiment/OpenSesame/NAP-FC/NAP-FC_GER_AA/GER_AA_ver-2","yes","no","sans","no","20","no","black","no","Next","yes","768","legacy","1","1","0","/Users/aviadalbert/Documents/Academisch/UoC/Dissertation/Experiment/OpenSesame/NAP-FC/NAP-FC_GER_AA/GER_AA_ver-2/subject-3.csv","xpyriment","Jazzy James","3.1.6","yes","yes","5950408a6c613b0229e3e810","59504237594d9002288b1720","yes","no","0","j","f","NA","NA","space","space","j","1056","9735","NA","NA","14904","10879","1056","2","legacy","1024","1","44100","-16","experiment","lepal","25","Donaueschingen, Ger","1","0","1","german","english, spanish, french, latin","3","odd","Cologne","2606415","NA","NA","NA","NA","NA","1324347","NA","1324347","1324347","2580341","2595249","2621675","2620171","2622732","2616151","2606411","NA","2457055","2563972","NA","2606190","NA","2606414","NA","2621675","2621675","NA","NA","2620167","NAP perception","2","3081","2","yes","1024"
"100","yes","100","1508.66666667","1508.66666667","white","no","xpyriment","I have read and understood the information shown above","legacy","legacy","0","uniform","1","0","NA","undefined","undefined","1","j","0","0","NA","NA","NA","NA","0","0","0","0","0","0","2","2","2","0","0","NA","0","0","0","0","NA","0","0","2","2","2","2","2","Wed Jun 28 15:28:56 2017","Forced-choice identification task with a practice and an experimental phase","yes","NAP-FC_GER_AA_ver-2.osexp","/Users/aviadalbert/Documents/Academisch/UoC/Dissertation/Experiment/OpenSesame/NAP-FC/NAP-FC_GER_AA/GER_AA_ver-2","yes","no","sans","no","20","no","black","no","Next","yes","768","legacy","2","2","0","/Users/aviadalbert/Documents/Academisch/UoC/Dissertation/Experiment/OpenSesame/NAP-FC/NAP-FC_GER_AA/GER_AA_ver-2/subject-3.csv","xpyriment","Jazzy James","3.1.6","yes","yes","5950408a6c613b0229e3e810","59504237594d9002288b1720","yes","no","0","j","f","NA","NA","space","space","j","1445","9735","NA","NA","14904","10879","1445","2","legacy","1024","1","44100","-16","experiment","emtal","25","Donaueschingen, Ger","1","0","1","german","english, spanish, french, latin","3","odd","Cologne","2606415","NA","NA","NA","NA","NA","1324347","NA","1324347","1324347","2580341","2595249","2624508","2623001","2625954","2616151","2606411","NA","2457055","2563972","NA","2606190","NA","2606414","NA","2624507","2624508","NA","NA","2622998","NAP perception","3","4526","3","yes","1024"
"100","yes","100","1563.25","1563.25","white","no","xpyriment","I have read and understood the information shown above","legacy","legacy","0","uniform","1","0","NA","undefined","undefined","1","f","0","0","NA","NA","NA","NA","0","0","0","0","0","0","3","3","3","0","0","NA","0","0","0","0","NA","0","0","3","3","3","3","3","Wed Jun 28 15:28:56 2017","Forced-choice identification task with a practice and an experimental phase","yes","NAP-FC_GER_AA_ver-2.osexp","/Users/aviadalbert/Documents/Academisch/UoC/Dissertation/Experiment/OpenSesame/NAP-FC/NAP-FC_GER_AA/GER_AA_ver-2","yes","no","sans","no","20","no","black","no","Next","yes","768","legacy","3","3","0","/Users/aviadalbert/Documents/Academisch/UoC/Dissertation/Experiment/OpenSesame/NAP-FC/NAP-FC_GER_AA/GER_AA_ver-2/subject-3.csv","xpyriment","Jazzy James","3.1.6","yes","yes","5950408a6c613b0229e3e810","59504237594d9002288b1720","yes","no","0","f","f","NA","NA","space","space","f","1727","9735","NA","NA","14904","10879","1727","2","legacy","1024","1","44100","-16","experiment","ﾊパal","25","Donaueschingen, Ger","1","0","1","german","english, spanish, french, latin","3","odd","Cologne","2606415","NA","NA","NA","NA","NA","1324347","NA","1324347","1324347","2580341","2595249","2627730","2626226","2629459","2616151","2606411","NA","2457055","2563972","NA","2606190","NA","2606414","NA","2627730","2627730","NA","NA","2626222","NAP perception","4","6253","4","yes","1024"
"100","yes","100","1481.8","1481.8","white","no","xpyriment","I have read and understood the information shown above","legacy","legacy","0","uniform","1","0","NA","undefined","undefined","1","j","0","0","NA","NA","NA","NA","0","0","0","0","0","0","4","4","4","0","0","NA","0","0","0","0","NA","0","0","4","4","4","4","4","Wed Jun 28 15:28:56 2017","Forced-choice identification task with a practice and an experimental phase","yes","NAP-FC_GER_AA_ver-2.osexp","/Users/aviadalbert/Documents/Academisch/UoC/Dissertation/Experiment/OpenSesame/NAP-FC/NAP-FC_GER_AA/GER_AA_ver-2","yes","no","sans","no","20","no","black","no","Next","yes","768","legacy","4","4","0","/Users/aviadalbert/Documents/Academisch/UoC/Dissertation/Experiment/OpenSesame/NAP-FC/NAP-FC_GER_AA/GER_AA_ver-2/subject-3.csv","xpyriment","Jazzy James","3.1.6","yes","yes","5950408a6c613b0229e3e810","59504237594d9002288b1720","yes","no","0","j","f","NA","NA","space","space","j","1156","9735","NA","NA","14904","10879","1156","2","legacy","1024","1","44100","-16","experiment","nefal","25","Donaueschingen, Ger","1","0","1","german","english, spanish, french, latin","3","odd","Cologne","2606415","NA","NA","NA","NA","NA","1324347","NA","1324347","1324347","2580341","2595249","2631241","2629735","2632398","2616151","2606411","NA","2457055","2563972","NA","2606190","NA","2606414","NA","2631240","2631241","NA","NA","2629731","NAP perception","5","7409","5","yes","1024"
"100","yes","100","1415.33333333","1415.33333333","white","no","xpyriment","I have read and understood the information shown above","legacy","legacy","0","uniform","1","0","NA","undefined","undefined","1","f","0","0","NA","NA","NA","NA","0","0","0","0","0","0","5","5","5","0","0","NA","0","0","0","0","NA","0","0","5","5","5","5","5","Wed Jun 28 15:28:56 2017","Forced-choice identification task with a practice and an experimental phase","yes","NAP-FC_GER_AA_ver-2.osexp","/Users/aviadalbert/Documents/Academisch/UoC/Dissertation/Experiment/OpenSesame/NAP-FC/NAP-FC_GER_AA/GER_AA_ver-2","yes","no","sans","no","20","no","black","no","Next","yes","768","legacy","5","5","0","/Users/aviadalbert/Documents/Academisch/UoC/Dissertation/Experiment/OpenSesame/NAP-FC/NAP-FC_GER_AA/GER_AA_ver-2/subject-3.csv","xpyriment","Jazzy James","3.1.6","yes","yes","5950408a6c613b0229e3e810","59504237594d9002288b1720","yes","no","0","f","f","NA","NA","space","space","f","1083","9735","NA","NA","14904","10879","1083","2","legacy","1024","1","44100","-16","experiment","sfal","25","Donaueschingen, Ger","1","0","1","german","english, spanish, french, latin","3","odd","Cologne","2606415","NA","NA","NA","NA","NA","1324347","NA","1324347","1324347","2580341","2595249","2634179","2632675","2635263","2616151","2606411","NA","2457055","2563972","NA","2606190","NA","2606414","NA","2634179","2634179","NA","NA","2632671","NAP perception","6","8492","6","yes","1024"
"85.7142857143","yes","85.7142857143","1418.71428571","1418.71428571","white","no","xpyriment","I have read and understood the information shown above","legacy","legacy","0","uniform","0","0","NA","undefined","undefined","0","f","0","0","NA","NA","NA","NA","0","0","0","0","0","0","6","6","6","0","0","NA","0","0","0","0","NA","0","0","6","6","6","6","6","Wed Jun 28 15:28:56 2017","Forced-choice identification task with a practice and an experimental phase","yes","NAP-FC_GER_AA_ver-2.osexp","/Users/aviadalbert/Documents/Academisch/UoC/Dissertation/Experiment/OpenSesame/NAP-FC/NAP-FC_GER_AA/GER_AA_ver-2","yes","no","sans","no","20","no","black","no","Next","yes","768","legacy","6","6","0","/Users/aviadalbert/Documents/Academisch/UoC/Dissertation/Experiment/OpenSesame/NAP-FC/NAP-FC_GER_AA/GER_AA_ver-2/subject-3.csv","xpyriment","Jazzy James","3.1.6","yes","yes","5950408a6c613b0229e3e810","59504237594d9002288b1720","yes","no","0","j","f","NA","NA","space","space","j","1439","9735","NA","NA","14904","10879","1439","2","legacy","1024","1","44100","-16","experiment","zmal","25","Donaueschingen, Ger","1","0","1","german","english, spanish, french, latin","3","odd","Cologne","2606415","NA","NA","NA","NA","NA","1324347","NA","1324347","1324347","2580341","2595249","2637041","2635535","2638481","2616151","2606411","NA","2457055","2563972","NA","2606190","NA","2606414","NA","2637041","2637041","NA","NA","2635531","NAP perception","6","9931","7","yes","1024"
"87.5","yes","87.5","1348.25","1348.25","white","no","xpyriment","I have read and understood the information shown above","legacy","legacy","0","uniform","1","0","NA","undefined","undefined","1","j","0","0","NA","NA","NA","NA","0","0","0","0","0","0","7","7","7","0","0","NA","0","0","0","0","NA","0","0","7","7","7","7","7","Wed Jun 28 15:28:56 2017","Forced-choice identification task with a practice and an experimental phase","yes","NAP-FC_GER_AA_ver-2.osexp","/Users/aviadalbert/Documents/Academisch/UoC/Dissertation/Experiment/OpenSesame/NAP-FC/NAP-FC_GER_AA/GER_AA_ver-2","yes","no","sans","no","20","no","black","no","Next","yes","768","legacy","7","7","0","/Users/aviadalbert/Documents/Academisch/UoC/Dissertation/Experiment/OpenSesame/NAP-FC/NAP-FC_GER_AA/GER_AA_ver-2/subject-3.csv","xpyriment","Jazzy James","3.1.6","yes","yes","5950408a6c613b0229e3e810","59504237594d9002288b1720","yes","no","0","j","f","NA","NA","space","space","j","855","9735","NA","NA","14904","10879","855","2","legacy","1024","1","44100","-16","experiment","jeval","25","Donaueschingen, Ger","1","0","1","german","english, spanish, french, latin","3","odd","Cologne","2606415","NA","NA","NA","NA","NA","1324347","NA","1324347","1324347","2580341","2595249","2640266","2638762","2641122","2616151","2606411","NA","2457055","2563972","NA","2606190","NA","2606414","NA","2640266","2640266","NA","NA","2638758","NAP perception","7","10786","8","yes","1024"
"88.8888888889","yes","88.8888888889","1302.66666667","1302.66666667","white","no","xpyriment","I have read and understood the information shown above","legacy","legacy","0","uniform","1","0","NA","undefined","undefined","1","j","0","0","NA","NA","NA","NA","0","0","0","0","0","0","8","8","8","0","0","NA","0","0","0","0","NA","0","0","8","8","8","8","8","Wed Jun 28 15:28:56 2017","Forced-choice identification task with a practice and an experimental phase","yes","NAP-FC_GER_AA_ver-2.osexp","/Users/aviadalbert/Documents/Academisch/UoC/Dissertation/Experiment/OpenSesame/NAP-FC/NAP-FC_GER_AA/GER_AA_ver-2","yes","no","sans","no","20","no","black","no","Next","yes","768","legacy","8","8","0","/Users/aviadalbert/Documents/Academisch/UoC/Dissertation/Experiment/OpenSesame/NAP-FC/NAP-FC_GER_AA/GER_AA_ver-2/subject-3.csv","xpyriment","Jazzy James","3.1.6","yes","yes","5950408a6c613b0229e3e810","59504237594d9002288b1720","yes","no","0","j","f","NA","NA","space","space","j","938","9735","NA","NA","14904","10879","938","2","legacy","1024","1","44100","-16","experiment","enval","25","Donaueschingen, Ger","1","0","1","german","english, spanish, french, latin","3","odd","Cologne","2606415","NA","NA","NA","NA","NA","1324347","NA","1324347","1324347","2580341","2595249","2642903","2641399","2643842","2616151","2606411","NA","2457055","2563972","NA","2606190","NA","2606414","NA","2642903","2642903","NA","NA","2641395","NAP perception","8","11724","9","yes","1024"
"90","yes","90","1300.2","1300.2","white","no","xpyriment","I have read and understood the information shown above","legacy","legacy","0","uniform","1","0","NA","undefined","undefined","1","f","0","0","NA","NA","NA","NA","0","0","0","0","0","0","9","9","9","0","0","NA","0","0","0","0","NA","0","0","9","9","9","9","9","Wed Jun 28 15:28:56 2017","Forced-choice identification task with a practice and an experimental phase","yes","NAP-FC_GER_AA_ver-2.osexp","/Users/aviadalbert/Documents/Academisch/UoC/Dissertation/Experiment/OpenSesame/NAP-FC/NAP-FC_GER_AA/GER_AA_ver-2","yes","no","sans","no","20","no","black","no","Next","yes","768","legacy","9","9","0","/Users/aviadalbert/Documents/Academisch/UoC/Dissertation/Experiment/OpenSesame/NAP-FC/NAP-FC_GER_AA/GER_AA_ver-2/subject-3.csv","xpyriment","Jazzy James","3.1.6","yes","yes","5950408a6c613b0229e3e810","59504237594d9002288b1720","yes","no","0","f","f","NA","NA","space","space","f","1278","9735","NA","NA","14904","10879","1278","2","legacy","1024","1","44100","-16","experiment","vlal","25","Donaueschingen, Ger","1","0","1","german","english, spanish, french, latin","3","odd","Cologne","2606415","NA","NA","NA","NA","NA","1324347","NA","1324347","1324347","2580341","2595249","2645611","2644108","2646891","2616151","2606411","NA","2457055","2563972","NA","2606190","NA","2606414","NA","2645611","2645611","NA","NA","2644103","NAP perception","9","13002","10","yes","1024"
"100","yes","100","1320","1320","white","no","xpyriment","I have read and understood the information shown above","legacy","legacy","0","uniform","1","0","0","undefined","undefined","1","f","1","0","NA","0","0","0","0","0","0","0","0","0","10","10","10","0","0","0","0","0","1","0","0","0","1","10","10","10","10","10","Wed Jun 28 15:28:56 2017","Forced-choice identification task with a practice and an experimental phase","yes","NAP-FC_GER_AA_ver-2.osexp","/Users/aviadalbert/Documents/Academisch/UoC/Dissertation/Experiment/OpenSesame/NAP-FC/NAP-FC_GER_AA/GER_AA_ver-2","yes","no","sans","no","20","no","black","no","Next","yes","768","legacy","0","9","0","/Users/aviadalbert/Documents/Academisch/UoC/Dissertation/Experiment/OpenSesame/NAP-FC/NAP-FC_GER_AA/GER_AA_ver-2/subject-3.csv","xpyriment","Jazzy James","3.1.6","yes","yes","5950408a6c613b0229e3e810","59504237594d9002288b1720","no","no","0","f","f","space","NA","space","space","f","1320","2648","6903","NA","14904","10879","1320","2","legacy","1024","1","44100","-16","experiment","ﾊパal","25","Donaueschingen, Ger","1","0","1","german","english, spanish, french, latin","3","odd","Cologne","2655824","2648629","NA","2658473","2655820","NA","1324347","2655592","1324347","1324347","2580341","2595249","2660187","2658684","2661508","2616151","2606411","2648629","2457055","2563972","2646955","2606190","2655824","2606414","NA","2660187","2660187","NA","NA","2658680","NAP perception","1","1320","1","yes","1024"
"100","yes","100","1127.5","1127.5","white","no","xpyriment","I have read and understood the information shown above","legacy","legacy","0","uniform","1","0","0","undefined","undefined","1","f","1","0","NA","0","0","0","0","0","0","0","0","0","11","11","11","0","0","0","0","0","1","0","0","0","1","11","11","11","11","11","Wed Jun 28 15:28:56 2017","Forced-choice identification task with a practice and an experimental phase","yes","NAP-FC_GER_AA_ver-2.osexp","/Users/aviadalbert/Documents/Academisch/UoC/Dissertation/Experiment/OpenSesame/NAP-FC/NAP-FC_GER_AA/GER_AA_ver-2","yes","no","sans","no","20","no","black","no","Next","yes","768","legacy","1","9","0","/Users/aviadalbert/Documents/Academisch/UoC/Dissertation/Experiment/OpenSesame/NAP-FC/NAP-FC_GER_AA/GER_AA_ver-2/subject-3.csv","xpyriment","Jazzy James","3.1.6","yes","yes","5950408a6c613b0229e3e810","59504237594d9002288b1720","no","no","0","f","f","space","NA","space","space","f","935","2648","6903","NA","14904","10879","935","2","legacy","1024","1","44100","-16","experiment","flal","25","Donaueschingen, Ger","1","0","1","german","english, spanish, french, latin","3","odd","Cologne","2655824","2648629","NA","2658473","2655820","NA","1324347","2655592","1324347","1324347","2580341","2595249","2663286","2661780","2664223","2616151","2606411","2648629","2457055","2563972","2646955","2606190","2655824","2606414","NA","2663286","2663286","NA","NA","2661776","NAP perception","2","2255","2","yes","1024"
"100","yes","100","1000.66666667","1000.66666667","white","no","xpyriment","I have read and understood the information shown above","legacy","legacy","0","uniform","1","0","0","undefined","undefined","1","j","1","0","NA","0","0","0","0","0","0","0","0","0","12","12","12","0","0","0","0","0","1","0","0","0","1","12","12","12","12","12","Wed Jun 28 15:28:56 2017","Forced-choice identification task with a practice and an experimental phase","yes","NAP-FC_GER_AA_ver-2.osexp","/Users/aviadalbert/Documents/Academisch/UoC/Dissertation/Experiment/OpenSesame/NAP-FC/NAP-FC_GER_AA/GER_AA_ver-2","yes","no","sans","no","20","no","black","no","Next","yes","768","legacy","2","9","0","/Users/aviadalbert/Documents/Academisch/UoC/Dissertation/Experiment/OpenSesame/NAP-FC/NAP-FC_GER_AA/GER_AA_ver-2/subject-3.csv","xpyriment","Jazzy James","3.1.6","yes","yes","5950408a6c613b0229e3e810","59504237594d9002288b1720","no","no","0","j","f","space","NA","space","space","j","747","2648","6903","NA","14904","10879","747","2","legacy","1024","1","44100","-16","experiment","nefal","25","Donaueschingen, Ger","1","0","1","german","english, spanish, french, latin","3","odd","Cologne","2655824","2648629","NA","2658473","2655820","NA","1324347","2655592","1324347","1324347","2580341","2595249","2666003","2664499","2666751","2616151","2606411","2648629","2457055","2563972","2646955","2606190","2655824","2606414","NA","2666003","2666003","NA","NA","2664495","NAP perception","3","3002","3","yes","1024"
"100","yes","100","1023","1023","white","no","xpyriment","I have read and understood the information shown above","legacy","legacy","0","uniform","1","0","0","undefined","undefined","1","j","1","0","NA","0","0","0","0","0","0","0","0","0","13","13","13","0","0","0","0","0","1","0","0","0","1","13","13","13","13","13","Wed Jun 28 15:28:56 2017","Forced-choice identification task with a practice and an experimental phase","yes","NAP-FC_GER_AA_ver-2.osexp","/Users/aviadalbert/Documents/Academisch/UoC/Dissertation/Experiment/OpenSesame/NAP-FC/NAP-FC_GER_AA/GER_AA_ver-2","yes","no","sans","no","20","no","black","no","Next","yes","768","legacy","3","9","0","/Users/aviadalbert/Documents/Academisch/UoC/Dissertation/Experiment/OpenSesame/NAP-FC/NAP-FC_GER_AA/GER_AA_ver-2/subject-3.csv","xpyriment","Jazzy James","3.1.6","yes","yes","5950408a6c613b0229e3e810","59504237594d9002288b1720","no","no","0","j","f","space","NA","space","space","j","1090","2648","6903","NA","14904","10879","1090","2","legacy","1024","1","44100","-16","experiment","wetal","25","Donaueschingen, Ger","1","0","1","german","english, spanish, french, latin","3","odd","Cologne","2655824","2648629","NA","2658473","2655820","NA","1324347","2655592","1324347","1324347","2580341","2595249","2668526","2667023","2669618","2616151","2606411","2648629","2457055","2563972","2646955","2606190","2655824","2606414","NA","2668526","2668526","NA","NA","2667019","NAP perception","4","4092","4","yes","1024"
"100","yes","100","1006.4","1006.4","white","no","xpyriment","I have read and understood the information shown above","legacy","legacy","0","uniform","1","0","0","undefined","undefined","1","j","1","0","NA","0","0","0","0","0","0","0","0","0","14","14","14","0","0","0","0","0","1","0","0","0","1","14","14","14","14","14","Wed Jun 28 15:28:56 2017","Forced-choice identification task with a practice and an experimental phase","yes","NAP-FC_GER_AA_ver-2.osexp","/Users/aviadalbert/Documents/Academisch/UoC/Dissertation/Experiment/OpenSesame/NAP-FC/NAP-FC_GER_AA/GER_AA_ver-2","yes","no","sans","no","20","no","black","no","Next","yes","768","legacy","4","9","0","/Users/aviadalbert/Documents/Academisch/UoC/Dissertation/Experiment/OpenSesame/NAP-FC/NAP-FC_GER_AA/GER_AA_ver-2/subject-3.csv","xpyriment","Jazzy James","3.1.6","yes","yes","5950408a6c613b0229e3e810","59504237594d9002288b1720","no","no","0","j","f","space","NA","space","space","j","940","2648","6903","NA","14904","10879","940","2","legacy","1024","1","44100","-16","experiment","elpal","25","Donaueschingen, Ger","1","0","1","german","english, spanish, french, latin","3","odd","Cologne","2655824","2648629","NA","2658473","2655820","NA","1324347","2655592","1324347","1324347","2580341","2595249","2671402","2669897","2672343","2616151","2606411","2648629","2457055","2563972","2646955","2606190","2655824","2606414","NA","2671402","2671402","NA","NA","2669893","NAP perception","5","5032","5","yes","1024"
"83.3333333333","yes","83.3333333333","979.666666667","979.666666667","white","no","xpyriment","I have read and understood the information shown above","legacy","legacy","0","uniform","0","0","0","undefined","undefined","0","f","1","0","NA","0","0","0","0","0","0","0","0","0","15","15","15","0","0","0","0","0","1","0","0","0","1","15","15","15","15","15","Wed Jun 28 15:28:56 2017","Forced-choice identification task with a practice and an experimental phase","yes","NAP-FC_GER_AA_ver-2.osexp","/Users/aviadalbert/Documents/Academisch/UoC/Dissertation/Experiment/OpenSesame/NAP-FC/NAP-FC_GER_AA/GER_AA_ver-2","yes","no","sans","no","20","no","black","no","Next","yes","768","legacy","5","9","0","/Users/aviadalbert/Documents/Academisch/UoC/Dissertation/Experiment/OpenSesame/NAP-FC/NAP-FC_GER_AA/GER_AA_ver-2/subject-3.csv","xpyriment","Jazzy James","3.1.6","yes","yes","5950408a6c613b0229e3e810","59504237594d9002288b1720","no","no","0","j","f","space","NA","space","space","j","846","2648","6903","NA","14904","10879","846","2","legacy","1024","1","44100","-16","experiment","wzal","25","Donaueschingen, Ger","1","0","1","german","english, spanish, french, latin","3","odd","Cologne","2655824","2648629","NA","2658473","2655820","NA","1324347","2655592","1324347","1324347","2580341","2595249","2674132","2672625","2674979","2616151","2606411","2648629","2457055","2563972","2646955","2606190","2655824","2606414","NA","2674132","2674132","NA","NA","2672621","NAP perception","5","5878","6","yes","1024"
"71.4285714286","yes","71.4285714286","985.142857143","985.142857143","white","no","xpyriment","I have read and understood the information shown above","legacy","legacy","0","uniform","0","0","0","undefined","undefined","0","f","1","0","NA","0","0","0","0","0","0","0","0","0","16","16","16","0","0","0","0","0","1","0","0","0","1","16","16","16","16","16","Wed Jun 28 15:28:56 2017","Forced-choice identification task with a practice and an experimental phase","yes","NAP-FC_GER_AA_ver-2.osexp","/Users/aviadalbert/Documents/Academisch/UoC/Dissertation/Experiment/OpenSesame/NAP-FC/NAP-FC_GER_AA/GER_AA_ver-2","yes","no","sans","no","20","no","black","no","Next","yes","768","legacy","6","9","0","/Users/aviadalbert/Documents/Academisch/UoC/Dissertation/Experiment/OpenSesame/NAP-FC/NAP-FC_GER_AA/GER_AA_ver-2/subject-3.csv","xpyriment","Jazzy James","3.1.6","yes","yes","5950408a6c613b0229e3e810","59504237594d9002288b1720","no","no","0","j","f","space","NA","space","space","j","1018","2648","6903","NA","14904","10879","1018","2","legacy","1024","1","44100","-16","experiment","lval","25","Donaueschingen, Ger","1","0","1","german","english, spanish, french, latin","3","odd","Cologne","2655824","2648629","NA","2658473","2655820","NA","1324347","2655592","1324347","1324347","2580341","2595249","2676755","2675251","2677774","2616151","2606411","2648629","2457055","2563972","2646955","2606190","2655824","2606414","NA","2676754","2676755","NA","NA","2675247","NAP perception","5","6896","7","yes","1024"
"62.5","yes","62.5","984.25","984.25","white","no","xpyriment","I have read and understood the information shown above","legacy","legacy","0","uniform","0","0","0","undefined","undefined","0","f","1","0","NA","0","0","0","0","0","0","0","0","0","17","17","17","0","0","0","0","0","1","0","0","0","1","17","17","17","17","17","Wed Jun 28 15:28:56 2017","Forced-choice identification task with a practice and an experimental phase","yes","NAP-FC_GER_AA_ver-2.osexp","/Users/aviadalbert/Documents/Academisch/UoC/Dissertation/Experiment/OpenSesame/NAP-FC/NAP-FC_GER_AA/GER_AA_ver-2","yes","no","sans","no","20","no","black","no","Next","yes","768","legacy","7","9","0","/Users/aviadalbert/Documents/Academisch/UoC/Dissertation/Experiment/OpenSesame/NAP-FC/NAP-FC_GER_AA/GER_AA_ver-2/subject-3.csv","xpyriment","Jazzy James","3.1.6","yes","yes","5950408a6c613b0229e3e810","59504237594d9002288b1720","no","no","0","j","f","space","NA","space","space","j","978","2648","6903","NA","14904","10879","978","2","legacy","1024","1","44100","-16","experiment","lfal","25","Donaueschingen, Ger","1","0","1","german","english, spanish, french, latin","3","odd","Cologne","2655824","2648629","NA","2658473","2655820","NA","1324347","2655592","1324347","1324347","2580341","2595249","2679558","2678051","2680537","2616151","2606411","2648629","2457055","2563972","2646955","2606190","2655824","2606414","NA","2679558","2679558","NA","NA","2678048","NAP perception","5","7874","8","yes","1024"
"66.6666666667","yes","66.6666666667","971","971","white","no","xpyriment","I have read and understood the information shown above","legacy","legacy","0","uniform","1","0","0","undefined","undefined","1","j","1","0","NA","0","0","0","0","0","0","0","0","0","18","18","18","0","0","0","0","0","1","0","0","0","1","18","18","18","18","18","Wed Jun 28 15:28:56 2017","Forced-choice identification task with a practice and an experimental phase","yes","NAP-FC_GER_AA_ver-2.osexp","/Users/aviadalbert/Documents/Academisch/UoC/Dissertation/Experiment/OpenSesame/NAP-FC/NAP-FC_GER_AA/GER_AA_ver-2","yes","no","sans","no","20","no","black","no","Next","yes","768","legacy","8","9","0","/Users/aviadalbert/Documents/Academisch/UoC/Dissertation/Experiment/OpenSesame/NAP-FC/NAP-FC_GER_AA/GER_AA_ver-2/subject-3.csv","xpyriment","Jazzy James","3.1.6","yes","yes","5950408a6c613b0229e3e810","59504237594d9002288b1720","no","no","0","j","f","space","NA","space","space","j","865","2648","6903","NA","14904","10879","865","2","legacy","1024","1","44100","-16","experiment","espal","25","Donaueschingen, Ger","1","0","1","german","english, spanish, french, latin","3","odd","Cologne","2655824","2648629","NA","2658473","2655820","NA","1324347","2655592","1324347","1324347","2580341","2595249","2682322","2680818","2683188","2616151","2606411","2648629","2457055","2563972","2646955","2606190","2655824","2606414","NA","2682322","2682322","NA","NA","2680814","NAP perception","6","8739","9","yes","1024"
"60","yes","60","962.2","962.2","white","no","xpyriment","I have read and understood the information shown above","legacy","legacy","0","uniform","0","0","0","undefined","undefined","0","f","1","0","NA","0","0","0","0","0","0","0","0","0","19","19","19","0","0","0","0","0","1","0","0","0","1","19","19","19","19","19","Wed Jun 28 15:28:56 2017","Forced-choice identification task with a practice and an experimental phase","yes","NAP-FC_GER_AA_ver-2.osexp","/Users/aviadalbert/Documents/Academisch/UoC/Dissertation/Experiment/OpenSesame/NAP-FC/NAP-FC_GER_AA/GER_AA_ver-2","yes","no","sans","no","20","no","black","no","Next","yes","768","legacy","9","9","0","/Users/aviadalbert/Documents/Academisch/UoC/Dissertation/Experiment/OpenSesame/NAP-FC/NAP-FC_GER_AA/GER_AA_ver-2/subject-3.csv","xpyriment","Jazzy James","3.1.6","yes","yes","5950408a6c613b0229e3e810","59504237594d9002288b1720","no","no","0","j","f","space","NA","space","space","j","883","2648","6903","NA","14904","10879","883","2","legacy","1024","1","44100","-16","experiment","lpal","25","Donaueschingen, Ger","1","0","1","german","english, spanish, french, latin","3","odd","Cologne","2655824","2648629","NA","2658473","2655820","NA","1324347","2655592","1324347","1324347","2580341","2595249","2684980","2683476","2685864","2616151","2606411","2648629","2457055","2563972","2646955","2606190","2655824","2606414","NA","2684980","2684980","NA","NA","2683472","NAP perception","6","9622","10","yes","1024"
"63.6363636364","yes","63.6363636364","971.272727273","971.272727273","white","no","xpyriment","I have read and understood the information shown above","legacy","legacy","0","uniform","1","0","0","undefined","undefined","1","f","1","0","NA","0","0","0","0","0","0","0","0","0","20","20","20","0","0","0","0","0","1","0","0","0","1","20","20","20","20","20","Wed Jun 28 15:28:56 2017","Forced-choice identification task with a practice and an experimental phase","yes","NAP-FC_GER_AA_ver-2.osexp","/Users/aviadalbert/Documents/Academisch/UoC/Dissertation/Experiment/OpenSesame/NAP-FC/NAP-FC_GER_AA/GER_AA_ver-2","yes","no","sans","no","20","no","black","no","Next","yes","768","legacy","10","9","0","/Users/aviadalbert/Documents/Academisch/UoC/Dissertation/Experiment/OpenSesame/NAP-FC/NAP-FC_GER_AA/GER_AA_ver-2/subject-3.csv","xpyriment","Jazzy James","3.1.6","yes","yes","5950408a6c613b0229e3e810","59504237594d9002288b1720","no","no","0","f","f","space","NA","space","space","f","1062","2648","6903","NA","14904","10879","1062","2","legacy","1024","1","44100","-16","experiment","vlal","25","Donaueschingen, Ger","1","0","1","german","english, spanish, french, latin","3","odd","Cologne","2655824","2648629","NA","2658473","2655820","NA","1324347","2655592","1324347","1324347","2580341","2595249","2687636","2686131","2688699","2616151","2606411","2648629","2457055","2563972","2646955","2606190","2655824","2606414","NA","2687635","2687635","NA","NA","2686127","NAP perception","7","10684","11","yes","1024"
"58.3333333333","yes","58.3333333333","1006.16666667","1006.16666667","white","no","xpyriment","I have read and understood the information shown above","legacy","legacy","0","uniform","0","0","0","undefined","undefined","0","f","1","0","NA","0","0","0","0","0","0","0","0","0","21","21","21","0","0","0","0","0","1","0","0","0","1","21","21","21","21","21","Wed Jun 28 15:28:56 2017","Forced-choice identification task with a practice and an experimental phase","yes","NAP-FC_GER_AA_ver-2.osexp","/Users/aviadalbert/Documents/Academisch/UoC/Dissertation/Experiment/OpenSesame/NAP-FC/NAP-FC_GER_AA/GER_AA_ver-2","yes","no","sans","no","20","no","black","no","Next","yes","768","legacy","11","9","0","/Users/aviadalbert/Documents/Academisch/UoC/Dissertation/Experiment/OpenSesame/NAP-FC/NAP-FC_GER_AA/GER_AA_ver-2/subject-3.csv","xpyriment","Jazzy James","3.1.6","yes","yes","5950408a6c613b0229e3e810","59504237594d9002288b1720","no","no","0","j","f","space","NA","space","space","j","1390","2648","6903","NA","14904","10879","1390","2","legacy","1024","1","44100","-16","experiment","mlal","25","Donaueschingen, Ger","1","0","1","german","english, spanish, french, latin","3","odd","Cologne","2655824","2648629","NA","2658473","2655820","NA","1324347","2655592","1324347","1324347","2580341","2595249","2690472","2688968","2691864","2616151","2606411","2648629","2457055","2563972","2646955","2606190","2655824","2606414","NA","2690472","2690472","NA","NA","2688964","NAP perception","7","12074","12","yes","1024"
"53.8461538462","yes","53.8461538462","1037.23076923","1037.23076923","white","no","xpyriment","I have read and understood the information shown above","legacy","legacy","0","uniform","0","0","0","undefined","undefined","0","f","1","0","NA","0","0","0","0","0","0","0","0","0","22","22","22","0","0","0","0","0","1","0","0","0","1","22","22","22","22","22","Wed Jun 28 15:28:56 2017","Forced-choice identification task with a practice and an experimental phase","yes","NAP-FC_GER_AA_ver-2.osexp","/Users/aviadalbert/Documents/Academisch/UoC/Dissertation/Experiment/OpenSesame/NAP-FC/NAP-FC_GER_AA/GER_AA_ver-2","yes","no","sans","no","20","no","black","no","Next","yes","768","legacy","12","9","0","/Users/aviadalbert/Documents/Academisch/UoC/Dissertation/Experiment/OpenSesame/NAP-FC/NAP-FC_GER_AA/GER_AA_ver-2/subject-3.csv","xpyriment","Jazzy James","3.1.6","yes","yes","5950408a6c613b0229e3e810","59504237594d9002288b1720","no","no","0","j","f","space","NA","space","space","j","1410","2648","6903","NA","14904","10879","1410","2","legacy","1024","1","44100","-16","experiment","mnal","25","Donaueschingen, Ger","1","0","1","german","english, spanish, french, latin","3","odd","Cologne","2655824","2648629","NA","2658473","2655820","NA","1324347","2655592","1324347","1324347","2580341","2595249","2693648","2692143","2695060","2616151","2606411","2648629","2457055","2563972","2646955","2606190","2655824","2606414","NA","2693647","2693648","NA","NA","2692139","NAP perception","7","13484","13","yes","1024"
"50","yes","50","1039.64285714","1039.64285714","white","no","xpyriment","I have read and understood the information shown above","legacy","legacy","0","uniform","0","0","0","undefined","undefined","0","f","1","0","NA","0","0","0","0","0","0","0","0","0","23","23","23","0","0","0","0","0","1","0","0","0","1","23","23","23","23","23","Wed Jun 28 15:28:56 2017","Forced-choice identification task with a practice and an experimental phase","yes","NAP-FC_GER_AA_ver-2.osexp","/Users/aviadalbert/Documents/Academisch/UoC/Dissertation/Experiment/OpenSesame/NAP-FC/NAP-FC_GER_AA/GER_AA_ver-2","yes","no","sans","no","20","no","black","no","Next","yes","768","legacy","13","9","0","/Users/aviadalbert/Documents/Academisch/UoC/Dissertation/Experiment/OpenSesame/NAP-FC/NAP-FC_GER_AA/GER_AA_ver-2/subject-3.csv","xpyriment","Jazzy James","3.1.6","yes","yes","5950408a6c613b0229e3e810","59504237594d9002288b1720","no","no","0","j","f","space","NA","space","space","j","1071","2648","6903","NA","14904","10879","1071","2","legacy","1024","1","44100","-16","experiment","wnal","25","Donaueschingen, Ger","1","0","1","german","english, spanish, french, latin","3","odd","Cologne","2655824","2648629","NA","2658473","2655820","NA","1324347","2655592","1324347","1324347","2580341","2595249","2696841","2695333","2697914","2616151","2606411","2648629","2457055","2563972","2646955","2606190","2655824","2606414","NA","2696840","2696840","NA","NA","2695329","NAP perception","7","14555","14","yes","1024"
"53.3333333333","yes","53.3333333333","1043","1043","white","no","xpyriment","I have read and understood the information shown above","legacy","legacy","0","uniform","1","0","0","undefined","undefined","1","j","1","0","NA","0","0","0","0","0","0","0","0","0","24","24","24","0","0","0","0","0","1","0","0","0","1","24","24","24","24","24","Wed Jun 28 15:28:56 2017","Forced-choice identification task with a practice and an experimental phase","yes","NAP-FC_GER_AA_ver-2.osexp","/Users/aviadalbert/Documents/Academisch/UoC/Dissertation/Experiment/OpenSesame/NAP-FC/NAP-FC_GER_AA/GER_AA_ver-2","yes","no","sans","no","20","no","black","no","Next","yes","768","legacy","14","9","0","/Users/aviadalbert/Documents/Academisch/UoC/Dissertation/Experiment/OpenSesame/NAP-FC/NAP-FC_GER_AA/GER_AA_ver-2/subject-3.csv","xpyriment","Jazzy James","3.1.6","yes","yes","5950408a6c613b0229e3e810","59504237594d9002288b1720","no","no","0","j","f","space","NA","space","space","j","1090","2648","6903","NA","14904","10879","1090","2","legacy","1024","1","44100","-16","experiment","nemal","25","Donaueschingen, Ger","1","0","1","german","english, spanish, french, latin","3","odd","Cologne","2655824","2648629","NA","2658473","2655820","NA","1324347","2655592","1324347","1324347","2580341","2595249","2699693","2698186","2700785","2616151","2606411","2648629","2457055","2563972","2646955","2606190","2655824","2606414","NA","2699693","2699693","NA","NA","2698182","NAP perception","8","15645","15","yes","1024"
"56.25","yes","56.25","1029.9375","1029.9375","white","no","xpyriment","I have read and understood the information shown above","legacy","legacy","0","uniform","1","0","0","undefined","undefined","1","j","1","0","NA","0","0","0","0","0","0","0","0","0","25","25","25","0","0","0","0","0","1","0","0","0","1","25","25","25","25","25","Wed Jun 28 15:28:56 2017","Forced-choice identification task with a practice and an experimental phase","yes","NAP-FC_GER_AA_ver-2.osexp","/Users/aviadalbert/Documents/Academisch/UoC/Dissertation/Experiment/OpenSesame/NAP-FC/NAP-FC_GER_AA/GER_AA_ver-2","yes","no","sans","no","20","no","black","no","Next","yes","768","legacy","15","9","0","/Users/aviadalbert/Documents/Academisch/UoC/Dissertation/Experiment/OpenSesame/NAP-FC/NAP-FC_GER_AA/GER_AA_ver-2/subject-3.csv","xpyriment","Jazzy James","3.1.6","yes","yes","5950408a6c613b0229e3e810","59504237594d9002288b1720","no","no","0","j","f","space","NA","space","space","j","834","2648","6903","NA","14904","10879","834","2","legacy","1024","1","44100","-16","experiment","efsal","25","Donaueschingen, Ger","1","0","1","german","english, spanish, french, latin","3","odd","Cologne","2655824","2648629","NA","2658473","2655820","NA","1324347","2655592","1324347","1324347","2580341","2595249","2702559","2701054","2703394","2616151","2606411","2648629","2457055","2563972","2646955","2606190","2655824","2606414","NA","2702559","2702559","NA","NA","2701050","NAP perception","9","16479","16","yes","1024"
"58.8235294118","yes","58.8235294118","1011.35294118","1011.35294118","white","no","xpyriment","I have read and understood the information shown above","legacy","legacy","0","uniform","1","0","0","undefined","undefined","1","j","1","0","NA","0","0","0","0","0","0","0","0","0","26","26","26","0","0","0","0","0","1","0","0","0","1","26","26","26","26","26","Wed Jun 28 15:28:56 2017","Forced-choice identification task with a practice and an experimental phase","yes","NAP-FC_GER_AA_ver-2.osexp","/Users/aviadalbert/Documents/Academisch/UoC/Dissertation/Experiment/OpenSesame/NAP-FC/NAP-FC_GER_AA/GER_AA_ver-2","yes","no","sans","no","20","no","black","no","Next","yes","768","legacy","16","9","0","/Users/aviadalbert/Documents/Academisch/UoC/Dissertation/Experiment/OpenSesame/NAP-FC/NAP-FC_GER_AA/GER_AA_ver-2/subject-3.csv","xpyriment","Jazzy James","3.1.6","yes","yes","5950408a6c613b0229e3e810","59504237594d9002288b1720","no","no","0","j","f","space","NA","space","space","j","714","2648","6903","NA","14904","10879","714","2","legacy","1024","1","44100","-16","experiment","emnal","25","Donaueschingen, Ger","1","0","1","german","english, spanish, french, latin","3","odd","Cologne","2655824","2648629","NA","2658473","2655820","NA","1324347","2655592","1324347","1324347","2580341","2595249","2705177","2703673","2705893","2616151","2606411","2648629","2457055","2563972","2646955","2606190","2655824","2606414","NA","2705177","2705177","NA","NA","2703669","NAP perception","10","17193","17","yes","1024"
"61.1111111111","yes","61.1111111111","999.888888889","999.888888889","white","no","xpyriment","I have read and understood the information shown above","legacy","legacy","0","uniform","1","0","0","undefined","undefined","1","j","1","0","NA","0","0","0","0","0","0","0","0","0","27","27","27","0","0","0","0","0","1","0","0","0","1","27","27","27","27","27","Wed Jun 28 15:28:56 2017","Forced-choice identification task with a practice and an experimental phase","yes","NAP-FC_GER_AA_ver-2.osexp","/Users/aviadalbert/Documents/Academisch/UoC/Dissertation/Experiment/OpenSesame/NAP-FC/NAP-FC_GER_AA/GER_AA_ver-2","yes","no","sans","no","20","no","black","no","Next","yes","768","legacy","17","9","0","/Users/aviadalbert/Documents/Academisch/UoC/Dissertation/Experiment/OpenSesame/NAP-FC/NAP-FC_GER_AA/GER_AA_ver-2/subject-3.csv","xpyriment","Jazzy James","3.1.6","yes","yes","5950408a6c613b0229e3e810","59504237594d9002288b1720","no","no","0","j","f","space","NA","space","space","j","805","2648","6903","NA","14904","10879","805","2","legacy","1024","1","44100","-16","experiment","emsal","25","Donaueschingen, Ger","1","0","1","german","english, spanish, french, latin","3","odd","Cologne","2655824","2648629","NA","2658473","2655820","NA","1324347","2655592","1324347","1324347","2580341","2595249","2707677","2706174","2708483","2616151","2606411","2648629","2457055","2563972","2646955","2606190","2655824","2606414","NA","2707677","2707677","NA","NA","2706170","NAP perception","11","17998","18","yes","1024"
"63.1578947368","yes","63.1578947368","1002.42105263","1002.42105263","white","no","xpyriment","I have read and understood the information shown above","legacy","legacy","0","uniform","1","0","0","undefined","undefined","1","j","1","0","NA","0","0","0","0","0","0","0","0","0","28","28","28","0","0","0","0","0","1","0","0","0","1","28","28","28","28","28","Wed Jun 28 15:28:56 2017","Forced-choice identification task with a practice and an experimental phase","yes","NAP-FC_GER_AA_ver-2.osexp","/Users/aviadalbert/Documents/Academisch/UoC/Dissertation/Experiment/OpenSesame/NAP-FC/NAP-FC_GER_AA/GER_AA_ver-2","yes","no","sans","no","20","no","black","no","Next","yes","768","legacy","18","9","0","/Users/aviadalbert/Documents/Academisch/UoC/Dissertation/Experiment/OpenSesame/NAP-FC/NAP-FC_GER_AA/GER_AA_ver-2/subject-3.csv","xpyriment","Jazzy James","3.1.6","yes","yes","5950408a6c613b0229e3e810","59504237594d9002288b1720","no","no","0","j","f","space","NA","space","space","j","1048","2648","6903","NA","14904","10879","1048","2","legacy","1024","1","44100","-16","experiment","wezal","25","Donaueschingen, Ger","1","0","1","german","english, spanish, french, latin","3","odd","Cologne","2655824","2648629","NA","2658473","2655820","NA","1324347","2655592","1324347","1324347","2580341","2595249","2710280","2708774","2711329","2616151","2606411","2648629","2457055","2563972","2646955","2606190","2655824","2606414","NA","2710280","2710280","NA","NA","2708770","NAP perception","12","19046","19","yes","1024"
"65","yes","65","1006","1006","white","no","xpyriment","I have read and understood the information shown above","legacy","legacy","0","uniform","1","0","0","undefined","undefined","1","j","1","0","NA","0","0","0","0","0","0","0","0","0","29","29","29","0","0","0","0","0","1","0","0","0","1","29","29","29","29","29","Wed Jun 28 15:28:56 2017","Forced-choice identification task with a practice and an experimental phase","yes","NAP-FC_GER_AA_ver-2.osexp","/Users/aviadalbert/Documents/Academisch/UoC/Dissertation/Experiment/OpenSesame/NAP-FC/NAP-FC_GER_AA/GER_AA_ver-2","yes","no","sans","no","20","no","black","no","Next","yes","768","legacy","19","9","0","/Users/aviadalbert/Documents/Academisch/UoC/Dissertation/Experiment/OpenSesame/NAP-FC/NAP-FC_GER_AA/GER_AA_ver-2/subject-3.csv","xpyriment","Jazzy James","3.1.6","yes","yes","5950408a6c613b0229e3e810","59504237594d9002288b1720","no","no","0","j","f","space","NA","space","space","j","1074","2648","6903","NA","14904","10879","1074","2","legacy","1024","1","44100","-16","experiment","ﾊテmal","25","Donaueschingen, Ger","1","0","1","german","english, spanish, french, latin","3","odd","Cologne","2655824","2648629","NA","2658473","2655820","NA","1324347","2655592","1324347","1324347","2580341","2595249","2713106","2711601","2714181","2616151","2606411","2648629","2457055","2563972","2646955","2606190","2655824","2606414","NA","2713105","2713105","NA","NA","2711597","NAP perception","13","20120","20","yes","1024"
"66.6666666667","yes","66.6666666667","998.523809524","998.523809524","white","no","xpyriment","I have read and understood the information shown above","legacy","legacy","0","uniform","1","0","0","undefined","undefined","1","j","1","0","NA","0","0","0","0","0","0","0","0","0","30","30","30","0","0","0","0","0","1","0","0","0","1","30","30","30","30","30","Wed Jun 28 15:28:56 2017","Forced-choice identification task with a practice and an experimental phase","yes","NAP-FC_GER_AA_ver-2.osexp","/Users/aviadalbert/Documents/Academisch/UoC/Dissertation/Experiment/OpenSesame/NAP-FC/NAP-FC_GER_AA/GER_AA_ver-2","yes","no","sans","no","20","no","black","no","Next","yes","768","legacy","20","9","0","/Users/aviadalbert/Documents/Academisch/UoC/Dissertation/Experiment/OpenSesame/NAP-FC/NAP-FC_GER_AA/GER_AA_ver-2/subject-3.csv","xpyriment","Jazzy James","3.1.6","yes","yes","5950408a6c613b0229e3e810","59504237594d9002288b1720","no","no","0","j","f","space","NA","space","space","j","849","2648","6903","NA","14904","10879","849","2","legacy","1024","1","44100","-16","experiment","eﾊデal","25","Donaueschingen, Ger","1","0","1","german","english, spanish, french, latin","3","odd","Cologne","2655824","2648629","NA","2658473","2655820","NA","1324347","2655592","1324347","1324347","2580341","2595249","2715961","2714454","2716811","2616151","2606411","2648629","2457055","2563972","2646955","2606190","2655824","2606414","NA","2715961","2715961","NA","NA","2714450","NAP perception","14","20969","21","yes","1024"
"68.1818181818","yes","68.1818181818","992.772727273","992.772727273","white","no","xpyriment","I have read and understood the information shown above","legacy","legacy","0","uniform","1","0","0","undefined","undefined","1","j","1","0","NA","0","0","0","0","0","0","0","0","0","31","31","31","0","0","0","0","0","1","0","0","0","1","31","31","31","31","31","Wed Jun 28 15:28:56 2017","Forced-choice identification task with a practice and an experimental phase","yes","NAP-FC_GER_AA_ver-2.osexp","/Users/aviadalbert/Documents/Academisch/UoC/Dissertation/Experiment/OpenSesame/NAP-FC/NAP-FC_GER_AA/GER_AA_ver-2","yes","no","sans","no","20","no","black","no","Next","yes","768","legacy","21","9","0","/Users/aviadalbert/Documents/Academisch/UoC/Dissertation/Experiment/OpenSesame/NAP-FC/NAP-FC_GER_AA/GER_AA_ver-2/subject-3.csv","xpyriment","Jazzy James","3.1.6","yes","yes","5950408a6c613b0229e3e810","59504237594d9002288b1720","no","no","0","j","f","space","NA","space","space","j","872","2648","6903","NA","14904","10879","872","2","legacy","1024","1","44100","-16","experiment","melal","25","Donaueschingen, Ger","1","0","1","german","english, spanish, french, latin","3","odd","Cologne","2655824","2648629","NA","2658473","2655820","NA","1324347","2655592","1324347","1324347","2580341","2595249","2718589","2717085","2719462","2616151","2606411","2648629","2457055","2563972","2646955","2606190","2655824","2606414","NA","2718589","2718589","NA","NA","2717081","NAP perception","15","21841","22","yes","1024"
"69.5652173913","yes","69.5652173913","986.260869565","986.260869565","white","no","xpyriment","I have read and understood the information shown above","legacy","legacy","0","uniform","1","0","0","undefined","undefined","1","f","1","0","NA","0","0","0","0","0","0","0","0","0","32","32","32","0","0","0","0","0","1","0","0","0","1","32","32","32","32","32","Wed Jun 28 15:28:56 2017","Forced-choice identification task with a practice and an experimental phase","yes","NAP-FC_GER_AA_ver-2.osexp","/Users/aviadalbert/Documents/Academisch/UoC/Dissertation/Experiment/OpenSesame/NAP-FC/NAP-FC_GER_AA/GER_AA_ver-2","yes","no","sans","no","20","no","black","no","Next","yes","768","legacy","22","9","0","/Users/aviadalbert/Documents/Academisch/UoC/Dissertation/Experiment/OpenSesame/NAP-FC/NAP-FC_GER_AA/GER_AA_ver-2/subject-3.csv","xpyriment","Jazzy James","3.1.6","yes","yes","5950408a6c613b0229e3e810","59504237594d9002288b1720","no","no","0","f","f","space","NA","space","space","f","843","2648","6903","NA","14904","10879","843","2","legacy","1024","1","44100","-16","experiment","spal","25","Donaueschingen, Ger","1","0","1","german","english, spanish, french, latin","3","odd","Cologne","2655824","2648629","NA","2658473","2655820","NA","1324347","2655592","1324347","1324347","2580341","2595249","2721233","2719729","2722077","2616151","2606411","2648629","2457055","2563972","2646955","2606190","2655824","2606414","NA","2721232","2721233","NA","NA","2719725","NAP perception","16","22684","23","yes","1024"
"70.8333333333","yes","70.8333333333","981.458333333","981.458333333","white","no","xpyriment","I have read and understood the information shown above","legacy","legacy","0","uniform","1","0","0","undefined","undefined","1","j","1","0","NA","0","0","0","0","0","0","0","0","0","33","33","33","0","0","0","0","0","1","0","0","0","1","33","33","33","33","33","Wed Jun 28 15:28:56 2017","Forced-choice identification task with a practice and an experimental phase","yes","NAP-FC_GER_AA_ver-2.osexp","/Users/aviadalbert/Documents/Academisch/UoC/Dissertation/Experiment/OpenSesame/NAP-FC/NAP-FC_GER_AA/GER_AA_ver-2","yes","no","sans","no","20","no","black","no","Next","yes","768","legacy","23","9","0","/Users/aviadalbert/Documents/Academisch/UoC/Dissertation/Experiment/OpenSesame/NAP-FC/NAP-FC_GER_AA/GER_AA_ver-2/subject-3.csv","xpyriment","Jazzy James","3.1.6","yes","yes","5950408a6c613b0229e3e810","59504237594d9002288b1720","no","no","0","j","f","space","NA","space","space","j","871","2648","6903","NA","14904","10879","871","2","legacy","1024","1","44100","-16","experiment","mezal","25","Donaueschingen, Ger","1","0","1","german","english, spanish, french, latin","3","odd","Cologne","2655824","2648629","NA","2658473","2655820","NA","1324347","2655592","1324347","1324347","2580341","2595249","2723866","2722359","2724739","2616151","2606411","2648629","2457055","2563972","2646955","2606190","2655824","2606414","NA","2723865","2723865","NA","NA","2722355","NAP perception","17","23555","24","yes","1024"
"72","yes","72","988.88","988.88","white","no","xpyriment","I have read and understood the information shown above","legacy","legacy","0","uniform","1","0","0","undefined","undefined","1","j","1","0","NA","0","0","0","0","0","0","0","0","0","34","34","34","0","0","0","0","0","1","0","0","0","1","34","34","34","34","34","Wed Jun 28 15:28:56 2017","Forced-choice identification task with a practice and an experimental phase","yes","NAP-FC_GER_AA_ver-2.osexp","/Users/aviadalbert/Documents/Academisch/UoC/Dissertation/Experiment/OpenSesame/NAP-FC/NAP-FC_GER_AA/GER_AA_ver-2","yes","no","sans","no","20","no","black","no","Next","yes","768","legacy","24","9","0","/Users/aviadalbert/Documents/Academisch/UoC/Dissertation/Experiment/OpenSesame/NAP-FC/NAP-FC_GER_AA/GER_AA_ver-2/subject-3.csv","xpyriment","Jazzy James","3.1.6","yes","yes","5950408a6c613b0229e3e810","59504237594d9002288b1720","no","no","0","j","f","space","NA","space","space","j","1167","2648","6903","NA","14904","10879","1167","2","legacy","1024","1","44100","-16","experiment","enpal","25","Donaueschingen, Ger","1","0","1","german","english, spanish, french, latin","3","odd","Cologne","2655824","2648629","NA","2658473","2655820","NA","1324347","2655592","1324347","1324347","2580341","2595249","2726522","2725018","2727691","2616151","2606411","2648629","2457055","2563972","2646955","2606190","2655824","2606414","NA","2726522","2726522","NA","NA","2725014","NAP perception","18","24722","25","yes","1024"
"73.0769230769","yes","73.0769230769","987.461538462","987.461538462","white","no","xpyriment","I have read and understood the information shown above","legacy","legacy","0","uniform","1","0","0","undefined","undefined","1","j","1","0","NA","0","0","0","0","0","0","0","0","0","35","35","35","0","0","0","0","0","1","0","0","0","1","35","35","35","35","35","Wed Jun 28 15:28:56 2017","Forced-choice identification task with a practice and an experimental phase","yes","NAP-FC_GER_AA_ver-2.osexp","/Users/aviadalbert/Documents/Academisch/UoC/Dissertation/Experiment/OpenSesame/NAP-FC/NAP-FC_GER_AA/GER_AA_ver-2","yes","no","sans","no","20","no","black","no","Next","yes","768","legacy","25","9","0","/Users/aviadalbert/Documents/Academisch/UoC/Dissertation/Experiment/OpenSesame/NAP-FC/NAP-FC_GER_AA/GER_AA_ver-2/subject-3.csv","xpyriment","Jazzy James","3.1.6","yes","yes","5950408a6c613b0229e3e810","59504237594d9002288b1720","no","no","0","j","f","space","NA","space","space","j","952","2648","6903","NA","14904","10879","952","2","legacy","1024","1","44100","-16","experiment","venal","25","Donaueschingen, Ger","1","0","1","german","english, spanish, french, latin","3","odd","Cologne","2655824","2648629","NA","2658473","2655820","NA","1324347","2655592","1324347","1324347","2580341","2595249","2729471","2727968","2730425","2616151","2606411","2648629","2457055","2563972","2646955","2606190","2655824","2606414","NA","2729471","2729471","NA","NA","2727964","NAP perception","19","25674","26","yes","1024"
"70.3703703704","yes","70.3703703704","986.074074074","986.074074074","white","no","xpyriment","I have read and understood the information shown above","legacy","legacy","0","uniform","0","0","0","undefined","undefined","0","f","1","0","NA","0","0","0","0","0","0","0","0","0","36","36","36","0","0","0","0","0","1","0","0","0","1","36","36","36","36","36","Wed Jun 28 15:28:56 2017","Forced-choice identification task with a practice and an experimental phase","yes","NAP-FC_GER_AA_ver-2.osexp","/Users/aviadalbert/Documents/Academisch/UoC/Dissertation/Experiment/OpenSesame/NAP-FC/NAP-FC_GER_AA/GER_AA_ver-2","yes","no","sans","no","20","no","black","no","Next","yes","768","legacy","26","9","0","/Users/aviadalbert/Documents/Academisch/UoC/Dissertation/Experiment/OpenSesame/NAP-FC/NAP-FC_GER_AA/GER_AA_ver-2/subject-3.csv","xpyriment","Jazzy James","3.1.6","yes","yes","5950408a6c613b0229e3e810","59504237594d9002288b1720","no","no","0","j","f","space","NA","space","space","j","950","2648","6903","NA","14904","10879","950","2","legacy","1024","1","44100","-16","experiment","jval","25","Donaueschingen, Ger","1","0","1","german","english, spanish, french, latin","3","odd","Cologne","2655824","2648629","NA","2658473","2655820","NA","1324347","2655592","1324347","1324347","2580341","2595249","2732217","2730714","2733169","2616151","2606411","2648629","2457055","2563972","2646955","2606190","2655824","2606414","NA","2732217","2732217","NA","NA","2730710","NAP perception","19","26624","27","yes","1024"
"71.4285714286","yes","71.4285714286","978.571428571","978.571428571","white","no","xpyriment","I have read and understood the information shown above","legacy","legacy","0","uniform","1","0","0","undefined","undefined","1","j","1","0","NA","0","0","0","0","0","0","0","0","0","37","37","37","0","0","0","0","0","1","0","0","0","1","37","37","37","37","37","Wed Jun 28 15:28:56 2017","Forced-choice identification task with a practice and an experimental phase","yes","NAP-FC_GER_AA_ver-2.osexp","/Users/aviadalbert/Documents/Academisch/UoC/Dissertation/Experiment/OpenSesame/NAP-FC/NAP-FC_GER_AA/GER_AA_ver-2","yes","no","sans","no","20","no","black","no","Next","yes","768","legacy","27","9","0","/Users/aviadalbert/Documents/Academisch/UoC/Dissertation/Experiment/OpenSesame/NAP-FC/NAP-FC_GER_AA/GER_AA_ver-2/subject-3.csv","xpyriment","Jazzy James","3.1.6","yes","yes","5950408a6c613b0229e3e810","59504237594d9002288b1720","no","no","0","j","f","space","NA","space","space","j","776","2648","6903","NA","14904","10879","776","2","legacy","1024","1","44100","-16","experiment","jepal","25","Donaueschingen, Ger","1","0","1","german","english, spanish, french, latin","3","odd","Cologne","2655824","2648629","NA","2658473","2655820","NA","1324347","2655592","1324347","1324347","2580341","2595249","2734957","2733449","2735735","2616151","2606411","2648629","2457055","2563972","2646955","2606190","2655824","2606414","NA","2734956","2734957","NA","NA","2733445","NAP perception","20","27400","28","yes","1024"
"72.4137931034","yes","72.4137931034","970.655172414","970.655172414","white","no","xpyriment","I have read and understood the information shown above","legacy","legacy","0","uniform","1","0","0","undefined","undefined","1","f","1","0","NA","0","0","0","0","0","0","0","0","0","38","38","38","0","0","0","0","0","1","0","0","0","1","38","38","38","38","38","Wed Jun 28 15:28:56 2017","Forced-choice identification task with a practice and an experimental phase","yes","NAP-FC_GER_AA_ver-2.osexp","/Users/aviadalbert/Documents/Academisch/UoC/Dissertation/Experiment/OpenSesame/NAP-FC/NAP-FC_GER_AA/GER_AA_ver-2","yes","no","sans","no","20","no","black","no","Next","yes","768","legacy","28","9","0","/Users/aviadalbert/Documents/Academisch/UoC/Dissertation/Experiment/OpenSesame/NAP-FC/NAP-FC_GER_AA/GER_AA_ver-2/subject-3.csv","xpyriment","Jazzy James","3.1.6","yes","yes","5950408a6c613b0229e3e810","59504237594d9002288b1720","no","no","0","f","f","space","NA","space","space","f","749","2648","6903","NA","14904","10879","749","2","legacy","1024","1","44100","-16","experiment","ﾊノal","25","Donaueschingen, Ger","1","0","1","german","english, spanish, french, latin","3","odd","Cologne","2655824","2648629","NA","2658473","2655820","NA","1324347","2655592","1324347","1324347","2580341","2595249","2737522","2736016","2738273","2616151","2606411","2648629","2457055","2563972","2646955","2606190","2655824","2606414","NA","2737522","2737522","NA","NA","2736012","NAP perception","21","28149","29","yes","1024"
"70","yes","70","984","984","white","no","xpyriment","I have read and understood the information shown above","legacy","legacy","0","uniform","0","0","0","undefined","undefined","0","f","1","0","NA","0","0","0","0","0","0","0","0","0","39","39","39","0","0","0","0","0","1","0","0","0","1","39","39","39","39","39","Wed Jun 28 15:28:56 2017","Forced-choice identification task with a practice and an experimental phase","yes","NAP-FC_GER_AA_ver-2.osexp","/Users/aviadalbert/Documents/Academisch/UoC/Dissertation/Experiment/OpenSesame/NAP-FC/NAP-FC_GER_AA/GER_AA_ver-2","yes","no","sans","no","20","no","black","no","Next","yes","768","legacy","29","9","0","/Users/aviadalbert/Documents/Academisch/UoC/Dissertation/Experiment/OpenSesame/NAP-FC/NAP-FC_GER_AA/GER_AA_ver-2/subject-3.csv","xpyriment","Jazzy James","3.1.6","yes","yes","5950408a6c613b0229e3e810","59504237594d9002288b1720","no","no","0","j","f","space","NA","space","space","j","1371","2648","6903","NA","14904","10879","1371","2","legacy","1024","1","44100","-16","experiment","mtal","25","Donaueschingen, Ger","1","0","1","german","english, spanish, french, latin","3","odd","Cologne","2655824","2648629","NA","2658473","2655820","NA","1324347","2655592","1324347","1324347","2580341","2595249","2740049","2738545","2741422","2616151","2606411","2648629","2457055","2563972","2646955","2606190","2655824","2606414","NA","2740049","2740049","NA","NA","2738541","NAP perception","21","29520","30","yes","1024"
"67.7419354839","yes","67.7419354839","987.580645161","987.580645161","white","no","xpyriment","I have read and understood the information shown above","legacy","legacy","0","uniform","0","0","0","undefined","undefined","0","f","1","0","NA","0","0","0","0","0","0","0","0","0","40","40","40","0","0","0","0","0","1","0","0","0","1","40","40","40","40","40","Wed Jun 28 15:28:56 2017","Forced-choice identification task with a practice and an experimental phase","yes","NAP-FC_GER_AA_ver-2.osexp","/Users/aviadalbert/Documents/Academisch/UoC/Dissertation/Experiment/OpenSesame/NAP-FC/NAP-FC_GER_AA/GER_AA_ver-2","yes","no","sans","no","20","no","black","no","Next","yes","768","legacy","30","9","0","/Users/aviadalbert/Documents/Academisch/UoC/Dissertation/Experiment/OpenSesame/NAP-FC/NAP-FC_GER_AA/GER_AA_ver-2/subject-3.csv","xpyriment","Jazzy James","3.1.6","yes","yes","5950408a6c613b0229e3e810","59504237594d9002288b1720","no","no","0","j","f","space","NA","space","space","j","1095","2648","6903","NA","14904","10879","1095","2","legacy","1024","1","44100","-16","experiment","mzal","25","Donaueschingen, Ger","1","0","1","german","english, spanish, french, latin","3","odd","Cologne","2655824","2648629","NA","2658473","2655820","NA","1324347","2655592","1324347","1324347","2580341","2595249","2743203","2741699","2744299","2616151","2606411","2648629","2457055","2563972","2646955","2606190","2655824","2606414","NA","2743203","2743203","NA","NA","2741695","NAP perception","21","30615","31","yes","1024"
"68.75","yes","68.75","990.3125","990.3125","white","no","xpyriment","I have read and understood the information shown above","legacy","legacy","0","uniform","1","0","0","undefined","undefined","1","j","1","0","NA","0","0","0","0","0","0","0","0","0","41","41","41","0","0","0","0","0","1","0","0","0","1","41","41","41","41","41","Wed Jun 28 15:28:56 2017","Forced-choice identification task with a practice and an experimental phase","yes","NAP-FC_GER_AA_ver-2.osexp","/Users/aviadalbert/Documents/Academisch/UoC/Dissertation/Experiment/OpenSesame/NAP-FC/NAP-FC_GER_AA/GER_AA_ver-2","yes","no","sans","no","20","no","black","no","Next","yes","768","legacy","31","9","0","/Users/aviadalbert/Documents/Academisch/UoC/Dissertation/Experiment/OpenSesame/NAP-FC/NAP-FC_GER_AA/GER_AA_ver-2/subject-3.csv","xpyriment","Jazzy James","3.1.6","yes","yes","5950408a6c613b0229e3e810","59504237594d9002288b1720","no","no","0","j","f","space","NA","space","space","j","1075","2648","6903","NA","14904","10879","1075","2","legacy","1024","1","44100","-16","experiment","fenal","25","Donaueschingen, Ger","1","0","1","german","english, spanish, french, latin","3","odd","Cologne","2655824","2648629","NA","2658473","2655820","NA","1324347","2655592","1324347","1324347","2580341","2595249","2746080","2744577","2747156","2616151","2606411","2648629","2457055","2563972","2646955","2606190","2655824","2606414","NA","2746080","2746080","NA","NA","2744573","NAP perception","22","31690","32","yes","1024"
"69.696969697","yes","69.696969697","981.212121212","981.212121212","white","no","xpyriment","I have read and understood the information shown above","legacy","legacy","0","uniform","1","0","0","undefined","undefined","1","f","1","0","NA","0","0","0","0","0","0","0","0","0","42","42","42","0","0","0","0","0","1","0","0","0","1","42","42","42","42","42","Wed Jun 28 15:28:56 2017","Forced-choice identification task with a practice and an experimental phase","yes","NAP-FC_GER_AA_ver-2.osexp","/Users/aviadalbert/Documents/Academisch/UoC/Dissertation/Experiment/OpenSesame/NAP-FC/NAP-FC_GER_AA/GER_AA_ver-2","yes","no","sans","no","20","no","black","no","Next","yes","768","legacy","32","9","0","/Users/aviadalbert/Documents/Academisch/UoC/Dissertation/Experiment/OpenSesame/NAP-FC/NAP-FC_GER_AA/GER_AA_ver-2/subject-3.csv","xpyriment","Jazzy James","3.1.6","yes","yes","5950408a6c613b0229e3e810","59504237594d9002288b1720","no","no","0","f","f","space","NA","space","space","f","690","2648","6903","NA","14904","10879","690","2","legacy","1024","1","44100","-16","experiment","fnal","25","Donaueschingen, Ger","1","0","1","german","english, spanish, french, latin","3","odd","Cologne","2655824","2648629","NA","2658473","2655820","NA","1324347","2655592","1324347","1324347","2580341","2595249","2748946","2747438","2749638","2616151","2606411","2648629","2457055","2563972","2646955","2606190","2655824","2606414","NA","2748946","2748946","NA","NA","2747434","NAP perception","23","32380","33","yes","1024"
"70.5882352941","yes","70.5882352941","995.117647059","995.117647059","white","no","xpyriment","I have read and understood the information shown above","legacy","legacy","0","uniform","1","0","0","undefined","undefined","1","j","1","0","NA","0","0","0","0","0","0","0","0","0","43","43","43","0","0","0","0","0","1","0","0","0","1","43","43","43","43","43","Wed Jun 28 15:28:56 2017","Forced-choice identification task with a practice and an experimental phase","yes","NAP-FC_GER_AA_ver-2.osexp","/Users/aviadalbert/Documents/Academisch/UoC/Dissertation/Experiment/OpenSesame/NAP-FC/NAP-FC_GER_AA/GER_AA_ver-2","yes","no","sans","no","20","no","black","no","Next","yes","768","legacy","33","9","0","/Users/aviadalbert/Documents/Academisch/UoC/Dissertation/Experiment/OpenSesame/NAP-FC/NAP-FC_GER_AA/GER_AA_ver-2/subject-3.csv","xpyriment","Jazzy James","3.1.6","yes","yes","5950408a6c613b0229e3e810","59504237594d9002288b1720","no","no","0","j","f","space","NA","space","space","j","1454","2648","6903","NA","14904","10879","1454","2","legacy","1024","1","44100","-16","experiment","metal","25","Donaueschingen, Ger","1","0","1","german","english, spanish, french, latin","3","odd","Cologne","2655824","2648629","NA","2658473","2655820","NA","1324347","2655592","1324347","1324347","2580341","2595249","2751423","2749920","2752878","2616151","2606411","2648629","2457055","2563972","2646955","2606190","2655824","2606414","NA","2751423","2751423","NA","NA","2749916","NAP perception","24","33834","34","yes","1024"
"68.5714285714","yes","68.5714285714","1009.62857143","1009.62857143","white","no","xpyriment","I have read and understood the information shown above","legacy","legacy","0","uniform","0","0","0","undefined","undefined","0","f","1","0","NA","0","0","0","0","0","0","0","0","0","44","44","44","0","0","0","0","0","1","0","0","0","1","44","44","44","44","44","Wed Jun 28 15:28:56 2017","Forced-choice identification task with a practice and an experimental phase","yes","NAP-FC_GER_AA_ver-2.osexp","/Users/aviadalbert/Documents/Academisch/UoC/Dissertation/Experiment/OpenSesame/NAP-FC/NAP-FC_GER_AA/GER_AA_ver-2","yes","no","sans","no","20","no","black","no","Next","yes","768","legacy","34","9","0","/Users/aviadalbert/Documents/Academisch/UoC/Dissertation/Experiment/OpenSesame/NAP-FC/NAP-FC_GER_AA/GER_AA_ver-2/subject-3.csv","xpyriment","Jazzy James","3.1.6","yes","yes","5950408a6c613b0229e3e810","59504237594d9002288b1720","no","no","0","j","f","space","NA","space","space","j","1503","2648","6903","NA","14904","10879","1503","2","legacy","1024","1","44100","-16","experiment","lkal","25","Donaueschingen, Ger","1","0","1","german","english, spanish, french, latin","3","odd","Cologne","2655824","2648629","NA","2658473","2655820","NA","1324347","2655592","1324347","1324347","2580341","2595249","2754651","2753148","2756155","2616151","2606411","2648629","2457055","2563972","2646955","2606190","2655824","2606414","NA","2754651","2754651","NA","NA","2753144","NAP perception","24","35337","35","yes","1024"
"69.4444444444","yes","69.4444444444","1012.58333333","1012.58333333","white","no","xpyriment","I have read and understood the information shown above","legacy","legacy","0","uniform","1","0","0","undefined","undefined","1","f","1","0","NA","0","0","0","0","0","0","0","0","0","45","45","45","0","0","0","0","0","1","0","0","0","1","45","45","45","45","45","Wed Jun 28 15:28:56 2017","Forced-choice identification task with a practice and an experimental phase","yes","NAP-FC_GER_AA_ver-2.osexp","/Users/aviadalbert/Documents/Academisch/UoC/Dissertation/Experiment/OpenSesame/NAP-FC/NAP-FC_GER_AA/GER_AA_ver-2","yes","no","sans","no","20","no","black","no","Next","yes","768","legacy","35","9","0","/Users/aviadalbert/Documents/Academisch/UoC/Dissertation/Experiment/OpenSesame/NAP-FC/NAP-FC_GER_AA/GER_AA_ver-2/subject-3.csv","xpyriment","Jazzy James","3.1.6","yes","yes","5950408a6c613b0229e3e810","59504237594d9002288b1720","no","no","0","f","f","space","NA","space","space","f","1116","2648","6903","NA","14904","10879","1116","2","legacy","1024","1","44100","-16","experiment","ﾊデal","25","Donaueschingen, Ger","1","0","1","german","english, spanish, french, latin","3","odd","Cologne","2655824","2648629","NA","2658473","2655820","NA","1324347","2655592","1324347","1324347","2580341","2595249","2757934","2756427","2759051","2616151","2606411","2648629","2457055","2563972","2646955","2606190","2655824","2606414","NA","2757934","2757934","NA","NA","2756423","NAP perception","25","36453","36","yes","1024"
"70.2702702703","yes","70.2702702703","1006.51351351","1006.51351351","white","no","xpyriment","I have read and understood the information shown above","legacy","legacy","0","uniform","1","0","0","undefined","undefined","1","j","1","0","NA","0","0","0","0","0","0","0","0","0","46","46","46","0","0","0","0","0","1","0","0","0","1","46","46","46","46","46","Wed Jun 28 15:28:56 2017","Forced-choice identification task with a practice and an experimental phase","yes","NAP-FC_GER_AA_ver-2.osexp","/Users/aviadalbert/Documents/Academisch/UoC/Dissertation/Experiment/OpenSesame/NAP-FC/NAP-FC_GER_AA/GER_AA_ver-2","yes","no","sans","no","20","no","black","no","Next","yes","768","legacy","36","9","0","/Users/aviadalbert/Documents/Academisch/UoC/Dissertation/Experiment/OpenSesame/NAP-FC/NAP-FC_GER_AA/GER_AA_ver-2/subject-3.csv","xpyriment","Jazzy James","3.1.6","yes","yes","5950408a6c613b0229e3e810","59504237594d9002288b1720","no","no","0","j","f","space","NA","space","space","j","788","2648","6903","NA","14904","10879","788","2","legacy","1024","1","44100","-16","experiment","elfal","25","Donaueschingen, Ger","1","0","1","german","english, spanish, french, latin","3","odd","Cologne","2655824","2648629","NA","2658473","2655820","NA","1324347","2655592","1324347","1324347","2580341","2595249","2760832","2759327","2761622","2616151","2606411","2648629","2457055","2563972","2646955","2606190","2655824","2606414","NA","2760832","2760832","NA","NA","2759323","NAP perception","26","37241","37","yes","1024"
"71.0526315789","yes","71.0526315789","1002.05263158","1002.05263158","white","no","xpyriment","I have read and understood the information shown above","legacy","legacy","0","uniform","1","0","0","undefined","undefined","1","f","1","0","NA","0","0","0","0","0","0","0","0","0","47","47","47","0","0","0","0","0","1","0","0","0","1","47","47","47","47","47","Wed Jun 28 15:28:56 2017","Forced-choice identification task with a practice and an experimental phase","yes","NAP-FC_GER_AA_ver-2.osexp","/Users/aviadalbert/Documents/Academisch/UoC/Dissertation/Experiment/OpenSesame/NAP-FC/NAP-FC_GER_AA/GER_AA_ver-2","yes","no","sans","no","20","no","black","no","Next","yes","768","legacy","37","9","0","/Users/aviadalbert/Documents/Academisch/UoC/Dissertation/Experiment/OpenSesame/NAP-FC/NAP-FC_GER_AA/GER_AA_ver-2/subject-3.csv","xpyriment","Jazzy James","3.1.6","yes","yes","5950408a6c613b0229e3e810","59504237594d9002288b1720","no","no","0","f","f","space","NA","space","space","f","837","2648","6903","NA","14904","10879","837","2","legacy","1024","1","44100","-16","experiment","sfal","25","Donaueschingen, Ger","1","0","1","german","english, spanish, french, latin","3","odd","Cologne","2655824","2648629","NA","2658473","2655820","NA","1324347","2655592","1324347","1324347","2580341","2595249","2763386","2761883","2764225","2616151","2606411","2648629","2457055","2563972","2646955","2606190","2655824","2606414","NA","2763386","2763386","NA","NA","2761879","NAP perception","27","38078","38","yes","1024"
"71.7948717949","yes","71.7948717949","1006.28205128","1006.28205128","white","no","xpyriment","I have read and understood the information shown above","legacy","legacy","0","uniform","1","0","0","undefined","undefined","1","j","1","0","NA","0","0","0","0","0","0","0","0","0","48","48","48","0","0","0","0","0","1","0","0","0","1","48","48","48","48","48","Wed Jun 28 15:28:56 2017","Forced-choice identification task with a practice and an experimental phase","yes","NAP-FC_GER_AA_ver-2.osexp","/Users/aviadalbert/Documents/Academisch/UoC/Dissertation/Experiment/OpenSesame/NAP-FC/NAP-FC_GER_AA/GER_AA_ver-2","yes","no","sans","no","20","no","black","no","Next","yes","768","legacy","38","9","0","/Users/aviadalbert/Documents/Academisch/UoC/Dissertation/Experiment/OpenSesame/NAP-FC/NAP-FC_GER_AA/GER_AA_ver-2/subject-3.csv","xpyriment","Jazzy James","3.1.6","yes","yes","5950408a6c613b0229e3e810","59504237594d9002288b1720","no","no","0","j","f","space","NA","space","space","j","1167","2648","6903","NA","14904","10879","1167","2","legacy","1024","1","44100","-16","experiment","jefal","25","Donaueschingen, Ger","1","0","1","german","english, spanish, french, latin","3","odd","Cologne","2655824","2648629","NA","2658473","2655820","NA","1324347","2655592","1324347","1324347","2580341","2595249","2766002","2764500","2767171","2616151","2606411","2648629","2457055","2563972","2646955","2606190","2655824","2606414","NA","2766002","2766002","NA","NA","2764496","NAP perception","28","39245","39","yes","1024"
"72.5","yes","72.5","1012.8","1012.8","white","no","xpyriment","I have read and understood the information shown above","legacy","legacy","0","uniform","1","0","0","undefined","undefined","1","j","1","0","NA","0","0","0","0","0","0","0","0","0","49","49","49","0","0","0","0","0","1","0","0","0","1","49","49","49","49","49","Wed Jun 28 15:28:56 2017","Forced-choice identification task with a practice and an experimental phase","yes","NAP-FC_GER_AA_ver-2.osexp","/Users/aviadalbert/Documents/Academisch/UoC/Dissertation/Experiment/OpenSesame/NAP-FC/NAP-FC_GER_AA/GER_AA_ver-2","yes","no","sans","no","20","no","black","no","Next","yes","768","legacy","39","9","0","/Users/aviadalbert/Documents/Academisch/UoC/Dissertation/Experiment/OpenSesame/NAP-FC/NAP-FC_GER_AA/GER_AA_ver-2/subject-3.csv","xpyriment","Jazzy James","3.1.6","yes","yes","5950408a6c613b0229e3e810","59504237594d9002288b1720","no","no","0","j","f","space","NA","space","space","j","1267","2648","6903","NA","14904","10879","1267","2","legacy","1024","1","44100","-16","experiment","eflal","25","Donaueschingen, Ger","1","0","1","german","english, spanish, french, latin","3","odd","Cologne","2655824","2648629","NA","2658473","2655820","NA","1324347","2655592","1324347","1324347","2580341","2595249","2768945","2767441","2770214","2616151","2606411","2648629","2457055","2563972","2646955","2606190","2655824","2606414","NA","2768945","2768945","NA","NA","2767437","NAP perception","29","40512","40","yes","1024"
"73.1707317073","yes","73.1707317073","1009.70731707","1009.70731707","white","no","xpyriment","I have read and understood the information shown above","legacy","legacy","0","uniform","1","0","0","undefined","undefined","1","j","1","0","NA","0","0","0","0","0","0","0","0","0","50","50","50","0","0","0","0","0","1","0","0","0","1","50","50","50","50","50","Wed Jun 28 15:28:56 2017","Forced-choice identification task with a practice and an experimental phase","yes","NAP-FC_GER_AA_ver-2.osexp","/Users/aviadalbert/Documents/Academisch/UoC/Dissertation/Experiment/OpenSesame/NAP-FC/NAP-FC_GER_AA/GER_AA_ver-2","yes","no","sans","no","20","no","black","no","Next","yes","768","legacy","40","9","0","/Users/aviadalbert/Documents/Academisch/UoC/Dissertation/Experiment/OpenSesame/NAP-FC/NAP-FC_GER_AA/GER_AA_ver-2/subject-3.csv","xpyriment","Jazzy James","3.1.6","yes","yes","5950408a6c613b0229e3e810","59504237594d9002288b1720","no","no","0","j","f","space","NA","space","space","j","886","2648","6903","NA","14904","10879","886","2","legacy","1024","1","44100","-16","experiment","esmal","25","Donaueschingen, Ger","1","0","1","german","english, spanish, french, latin","3","odd","Cologne","2655824","2648629","NA","2658473","2655820","NA","1324347","2655592","1324347","1324347","2580341","2595249","2771999","2770491","2772887","2616151","2606411","2648629","2457055","2563972","2646955","2606190","2655824","2606414","NA","2771998","2771998","NA","NA","2770487","NAP perception","30","41398","41","yes","1024"
"71.4285714286","yes","71.4285714286","1008.76190476","1008.76190476","white","no","xpyriment","I have read and understood the information shown above","legacy","legacy","0","uniform","0","0","0","undefined","undefined","0","f","1","0","NA","0","0","0","0","0","0","0","0","0","51","51","51","0","0","0","0","0","1","0","0","0","1","51","51","51","51","51","Wed Jun 28 15:28:56 2017","Forced-choice identification task with a practice and an experimental phase","yes","NAP-FC_GER_AA_ver-2.osexp","/Users/aviadalbert/Documents/Academisch/UoC/Dissertation/Experiment/OpenSesame/NAP-FC/NAP-FC_GER_AA/GER_AA_ver-2","yes","no","sans","no","20","no","black","no","Next","yes","768","legacy","41","9","0","/Users/aviadalbert/Documents/Academisch/UoC/Dissertation/Experiment/OpenSesame/NAP-FC/NAP-FC_GER_AA/GER_AA_ver-2/subject-3.csv","xpyriment","Jazzy James","3.1.6","yes","yes","5950408a6c613b0229e3e810","59504237594d9002288b1720","no","no","0","j","f","space","NA","space","space","j","970","2648","6903","NA","14904","10879","970","2","legacy","1024","1","44100","-16","experiment","msal","25","Donaueschingen, Ger","1","0","1","german","english, spanish, french, latin","3","odd","Cologne","2655824","2648629","NA","2658473","2655820","NA","1324347","2655592","1324347","1324347","2580341","2595249","2774652","2773146","2775624","2616151","2606411","2648629","2457055","2563972","2646955","2606190","2655824","2606414","NA","2774652","2774652","NA","NA","2773142","NAP perception","30","42368","42","yes","1024"
"72.0930232558","yes","72.0930232558","1008.51162791","1008.51162791","white","no","xpyriment","I have read and understood the information shown above","legacy","legacy","0","uniform","1","0","0","undefined","undefined","1","j","1","0","NA","0","0","0","0","0","0","0","0","0","52","52","52","0","0","0","0","0","1","0","0","0","1","52","52","52","52","52","Wed Jun 28 15:28:56 2017","Forced-choice identification task with a practice and an experimental phase","yes","NAP-FC_GER_AA_ver-2.osexp","/Users/aviadalbert/Documents/Academisch/UoC/Dissertation/Experiment/OpenSesame/NAP-FC/NAP-FC_GER_AA/GER_AA_ver-2","yes","no","sans","no","20","no","black","no","Next","yes","768","legacy","42","9","0","/Users/aviadalbert/Documents/Academisch/UoC/Dissertation/Experiment/OpenSesame/NAP-FC/NAP-FC_GER_AA/GER_AA_ver-2/subject-3.csv","xpyriment","Jazzy James","3.1.6","yes","yes","5950408a6c613b0229e3e810","59504237594d9002288b1720","no","no","0","j","f","space","NA","space","space","j","998","2648","6903","NA","14904","10879","998","2","legacy","1024","1","44100","-16","experiment","zeval","25","Donaueschingen, Ger","1","0","1","german","english, spanish, french, latin","3","odd","Cologne","2655824","2648629","NA","2658473","2655820","NA","1324347","2655592","1324347","1324347","2580341","2595249","2777411","2775905","2778411","2616151","2606411","2648629","2457055","2563972","2646955","2606190","2655824","2606414","NA","2777410","2777410","NA","NA","2775901","NAP perception","31","43366","43","yes","1024"
"72.7272727273","yes","72.7272727273","1010.86363636","1010.86363636","white","no","xpyriment","I have read and understood the information shown above","legacy","legacy","0","uniform","1","0","0","undefined","undefined","1","j","1","0","NA","0","0","0","0","0","0","0","0","0","53","53","53","0","0","0","0","0","1","0","0","0","1","53","53","53","53","53","Wed Jun 28 15:28:56 2017","Forced-choice identification task with a practice and an experimental phase","yes","NAP-FC_GER_AA_ver-2.osexp","/Users/aviadalbert/Documents/Academisch/UoC/Dissertation/Experiment/OpenSesame/NAP-FC/NAP-FC_GER_AA/GER_AA_ver-2","yes","no","sans","no","20","no","black","no","Next","yes","768","legacy","43","9","0","/Users/aviadalbert/Documents/Academisch/UoC/Dissertation/Experiment/OpenSesame/NAP-FC/NAP-FC_GER_AA/GER_AA_ver-2/subject-3.csv","xpyriment","Jazzy James","3.1.6","yes","yes","5950408a6c613b0229e3e810","59504237594d9002288b1720","no","no","0","j","f","space","NA","space","space","j","1112","2648","6903","NA","14904","10879","1112","2","legacy","1024","1","44100","-16","experiment","welal","25","Donaueschingen, Ger","1","0","1","german","english, spanish, french, latin","3","odd","Cologne","2655824","2648629","NA","2658473","2655820","NA","1324347","2655592","1324347","1324347","2580341","2595249","2780190","2778686","2781304","2616151","2606411","2648629","2457055","2563972","2646955","2606190","2655824","2606414","NA","2780190","2780190","NA","NA","2778682","NAP perception","32","44478","44","yes","1024"
"73.3333333333","yes","73.3333333333","1007.88888889","1007.88888889","white","no","xpyriment","I have read and understood the information shown above","legacy","legacy","0","uniform","1","0","0","undefined","undefined","1","j","1","0","NA","0","0","0","0","0","0","0","0","0","54","54","54","0","0","0","0","0","1","0","0","0","1","54","54","54","54","54","Wed Jun 28 15:28:56 2017","Forced-choice identification task with a practice and an experimental phase","yes","NAP-FC_GER_AA_ver-2.osexp","/Users/aviadalbert/Documents/Academisch/UoC/Dissertation/Experiment/OpenSesame/NAP-FC/NAP-FC_GER_AA/GER_AA_ver-2","yes","no","sans","no","20","no","black","no","Next","yes","768","legacy","44","9","0","/Users/aviadalbert/Documents/Academisch/UoC/Dissertation/Experiment/OpenSesame/NAP-FC/NAP-FC_GER_AA/GER_AA_ver-2/subject-3.csv","xpyriment","Jazzy James","3.1.6","yes","yes","5950408a6c613b0229e3e810","59504237594d9002288b1720","no","no","0","j","f","space","NA","space","space","j","877","2648","6903","NA","14904","10879","877","2","legacy","1024","1","44100","-16","experiment","jemal","25","Donaueschingen, Ger","1","0","1","german","english, spanish, french, latin","3","odd","Cologne","2655824","2648629","NA","2658473","2655820","NA","1324347","2655592","1324347","1324347","2580341","2595249","2783093","2781587","2783971","2616151","2606411","2648629","2457055","2563972","2646955","2606190","2655824","2606414","NA","2783093","2783093","NA","NA","2781583","NAP perception","33","45355","45","yes","1024"
"73.9130434783","yes","73.9130434783","1006.10869565","1006.10869565","white","no","xpyriment","I have read and understood the information shown above","legacy","legacy","0","uniform","1","0","0","undefined","undefined","1","f","1","0","NA","0","0","0","0","0","0","0","0","0","55","55","55","0","0","0","0","0","1","0","0","0","1","55","55","55","55","55","Wed Jun 28 15:28:56 2017","Forced-choice identification task with a practice and an experimental phase","yes","NAP-FC_GER_AA_ver-2.osexp","/Users/aviadalbert/Documents/Academisch/UoC/Dissertation/Experiment/OpenSesame/NAP-FC/NAP-FC_GER_AA/GER_AA_ver-2","yes","no","sans","no","20","no","black","no","Next","yes","768","legacy","45","9","0","/Users/aviadalbert/Documents/Academisch/UoC/Dissertation/Experiment/OpenSesame/NAP-FC/NAP-FC_GER_AA/GER_AA_ver-2/subject-3.csv","xpyriment","Jazzy James","3.1.6","yes","yes","5950408a6c613b0229e3e810","59504237594d9002288b1720","no","no","0","f","f","space","NA","space","space","f","926","2648","6903","NA","14904","10879","926","2","legacy","1024","1","44100","-16","experiment","zmal","25","Donaueschingen, Ger","1","0","1","german","english, spanish, french, latin","3","odd","Cologne","2655824","2648629","NA","2658473","2655820","NA","1324347","2655592","1324347","1324347","2580341","2595249","2785743","2784240","2786670","2616151","2606411","2648629","2457055","2563972","2646955","2606190","2655824","2606414","NA","2785743","2785743","NA","NA","2784236","NAP perception","34","46281","46","yes","1024"
"72.3404255319","yes","72.3404255319","1006.70212766","1006.70212766","white","no","xpyriment","I have read and understood the information shown above","legacy","legacy","0","uniform","0","0","0","undefined","undefined","0","f","1","0","NA","0","0","0","0","0","0","0","0","0","56","56","56","0","0","0","0","0","1","0","0","0","1","56","56","56","56","56","Wed Jun 28 15:28:56 2017","Forced-choice identification task with a practice and an experimental phase","yes","NAP-FC_GER_AA_ver-2.osexp","/Users/aviadalbert/Documents/Academisch/UoC/Dissertation/Experiment/OpenSesame/NAP-FC/NAP-FC_GER_AA/GER_AA_ver-2","yes","no","sans","no","20","no","black","no","Next","yes","768","legacy","46","9","0","/Users/aviadalbert/Documents/Academisch/UoC/Dissertation/Experiment/OpenSesame/NAP-FC/NAP-FC_GER_AA/GER_AA_ver-2/subject-3.csv","xpyriment","Jazzy James","3.1.6","yes","yes","5950408a6c613b0229e3e810","59504237594d9002288b1720","no","no","0","j","f","space","NA","space","space","j","1034","2648","6903","NA","14904","10879","1034","2","legacy","1024","1","44100","-16","experiment","wtal","25","Donaueschingen, Ger","1","0","1","german","english, spanish, french, latin","3","odd","Cologne","2655824","2648629","NA","2658473","2655820","NA","1324347","2655592","1324347","1324347","2580341","2595249","2788437","2786932","2789472","2616151","2606411","2648629","2457055","2563972","2646955","2606190","2655824","2606414","NA","2788437","2788437","NA","NA","2786928","NAP perception","34","47315","47","yes","1024"
"70.8333333333","yes","70.8333333333","1016.58333333","1016.58333333","white","no","xpyriment","I have read and understood the information shown above","legacy","legacy","0","uniform","0","0","0","undefined","undefined","0","f","1","0","NA","0","0","0","0","0","0","0","0","0","57","57","57","0","0","0","0","0","1","0","0","0","1","57","57","57","57","57","Wed Jun 28 15:28:56 2017","Forced-choice identification task with a practice and an experimental phase","yes","NAP-FC_GER_AA_ver-2.osexp","/Users/aviadalbert/Documents/Academisch/UoC/Dissertation/Experiment/OpenSesame/NAP-FC/NAP-FC_GER_AA/GER_AA_ver-2","yes","no","sans","no","20","no","black","no","Next","yes","768","legacy","47","9","0","/Users/aviadalbert/Documents/Academisch/UoC/Dissertation/Experiment/OpenSesame/NAP-FC/NAP-FC_GER_AA/GER_AA_ver-2/subject-3.csv","xpyriment","Jazzy James","3.1.6","yes","yes","5950408a6c613b0229e3e810","59504237594d9002288b1720","no","no","0","j","f","space","NA","space","space","j","1481","2648","6903","NA","14904","10879","1481","2","legacy","1024","1","44100","-16","experiment","npal","25","Donaueschingen, Ger","1","0","1","german","english, spanish, french, latin","3","odd","Cologne","2655824","2648629","NA","2658473","2655820","NA","1324347","2655592","1324347","1324347","2580341","2595249","2791245","2789742","2792728","2616151","2606411","2648629","2457055","2563972","2646955","2606190","2655824","2606414","NA","2791245","2791245","NA","NA","2789738","NAP perception","34","48796","48","yes","1024"
"71.4285714286","yes","71.4285714286","1018.18367347","1018.18367347","white","no","xpyriment","I have read and understood the information shown above","legacy","legacy","0","uniform","1","0","0","undefined","undefined","1","j","1","0","NA","0","0","0","0","0","0","0","0","0","58","58","58","0","0","0","0","0","1","0","0","0","1","58","58","58","58","58","Wed Jun 28 15:28:56 2017","Forced-choice identification task with a practice and an experimental phase","yes","NAP-FC_GER_AA_ver-2.osexp","/Users/aviadalbert/Documents/Academisch/UoC/Dissertation/Experiment/OpenSesame/NAP-FC/NAP-FC_GER_AA/GER_AA_ver-2","yes","no","sans","no","20","no","black","no","Next","yes","768","legacy","48","9","0","/Users/aviadalbert/Documents/Academisch/UoC/Dissertation/Experiment/OpenSesame/NAP-FC/NAP-FC_GER_AA/GER_AA_ver-2/subject-3.csv","xpyriment","Jazzy James","3.1.6","yes","yes","5950408a6c613b0229e3e810","59504237594d9002288b1720","no","no","0","j","f","space","NA","space","space","j","1095","2648","6903","NA","14904","10879","1095","2","legacy","1024","1","44100","-16","experiment","evlal","25","Donaueschingen, Ger","1","0","1","german","english, spanish, french, latin","3","odd","Cologne","2655824","2648629","NA","2658473","2655820","NA","1324347","2655592","1324347","1324347","2580341","2595249","2794506","2793000","2795602","2616151","2606411","2648629","2457055","2563972","2646955","2606190","2655824","2606414","NA","2794505","2794505","NA","NA","2792996","NAP perception","35","49891","49","yes","1024"
"72","yes","72","1026.02","1026.02","white","no","xpyriment","I have read and understood the information shown above","legacy","legacy","0","uniform","1","0","0","undefined","undefined","1","j","1","0","NA","0","0","0","0","0","0","0","0","0","59","59","59","0","0","0","0","0","1","0","0","0","1","59","59","59","59","59","Wed Jun 28 15:28:56 2017","Forced-choice identification task with a practice and an experimental phase","yes","NAP-FC_GER_AA_ver-2.osexp","/Users/aviadalbert/Documents/Academisch/UoC/Dissertation/Experiment/OpenSesame/NAP-FC/NAP-FC_GER_AA/GER_AA_ver-2","yes","no","sans","no","20","no","black","no","Next","yes","768","legacy","49","9","0","/Users/aviadalbert/Documents/Academisch/UoC/Dissertation/Experiment/OpenSesame/NAP-FC/NAP-FC_GER_AA/GER_AA_ver-2/subject-3.csv","xpyriment","Jazzy James","3.1.6","yes","yes","5950408a6c613b0229e3e810","59504237594d9002288b1720","no","no","0","j","f","space","NA","space","space","j","1410","2648","6903","NA","14904","10879","1410","2","legacy","1024","1","44100","-16","experiment","leval","25","Donaueschingen, Ger","1","0","1","german","english, spanish, french, latin","3","odd","Cologne","2655824","2648629","NA","2658473","2655820","NA","1324347","2655592","1324347","1324347","2580341","2595249","2797386","2795883","2798798","2616151","2606411","2648629","2457055","2563972","2646955","2606190","2655824","2606414","NA","2797386","2797386","NA","NA","2795879","NAP perception","36","51301","50","yes","1024"
"72.5490196078","yes","72.5490196078","1024.96078431","1024.96078431","white","no","xpyriment","I have read and understood the information shown above","legacy","legacy","0","uniform","1","0","0","undefined","undefined","1","j","1","0","NA","0","0","0","0","0","0","0","0","0","60","60","60","0","0","0","0","0","1","0","0","0","1","60","60","60","60","60","Wed Jun 28 15:28:56 2017","Forced-choice identification task with a practice and an experimental phase","yes","NAP-FC_GER_AA_ver-2.osexp","/Users/aviadalbert/Documents/Academisch/UoC/Dissertation/Experiment/OpenSesame/NAP-FC/NAP-FC_GER_AA/GER_AA_ver-2","yes","no","sans","no","20","no","black","no","Next","yes","768","legacy","50","9","0","/Users/aviadalbert/Documents/Academisch/UoC/Dissertation/Experiment/OpenSesame/NAP-FC/NAP-FC_GER_AA/GER_AA_ver-2/subject-3.csv","xpyriment","Jazzy James","3.1.6","yes","yes","5950408a6c613b0229e3e810","59504237594d9002288b1720","no","no","0","j","f","space","NA","space","space","j","972","2648","6903","NA","14904","10879","972","2","legacy","1024","1","44100","-16","experiment","enval","25","Donaueschingen, Ger","1","0","1","german","english, spanish, french, latin","3","odd","Cologne","2655824","2648629","NA","2658473","2655820","NA","1324347","2655592","1324347","1324347","2580341","2595249","2800574","2799069","2801548","2616151","2606411","2648629","2457055","2563972","2646955","2606190","2655824","2606414","NA","2800574","2800574","NA","NA","2799065","NAP perception","37","52273","51","yes","1024"
"73.0769230769","yes","73.0769230769","1031.75","1031.75","white","no","xpyriment","I have read and understood the information shown above","legacy","legacy","0","uniform","1","0","0","undefined","undefined","1","j","1","0","NA","0","0","0","0","0","0","0","0","0","61","61","61","0","0","0","0","0","1","0","0","0","1","61","61","61","61","61","Wed Jun 28 15:28:56 2017","Forced-choice identification task with a practice and an experimental phase","yes","NAP-FC_GER_AA_ver-2.osexp","/Users/aviadalbert/Documents/Academisch/UoC/Dissertation/Experiment/OpenSesame/NAP-FC/NAP-FC_GER_AA/GER_AA_ver-2","yes","no","sans","no","20","no","black","no","Next","yes","768","legacy","51","9","0","/Users/aviadalbert/Documents/Academisch/UoC/Dissertation/Experiment/OpenSesame/NAP-FC/NAP-FC_GER_AA/GER_AA_ver-2/subject-3.csv","xpyriment","Jazzy James","3.1.6","yes","yes","5950408a6c613b0229e3e810","59504237594d9002288b1720","no","no","0","j","f","space","NA","space","space","j","1378","2648","6903","NA","14904","10879","1378","2","legacy","1024","1","44100","-16","experiment","wesal","25","Donaueschingen, Ger","1","0","1","german","english, spanish, french, latin","3","odd","Cologne","2655824","2648629","NA","2658473","2655820","NA","1324347","2655592","1324347","1324347","2580341","2595249","2803330","2801827","2804710","2616151","2606411","2648629","2457055","2563972","2646955","2606190","2655824","2606414","NA","2803330","2803330","NA","NA","2801823","NAP perception","38","53651","52","yes","1024"
"73.5849056604","yes","73.5849056604","1035.32075472","1035.32075472","white","no","xpyriment","I have read and understood the information shown above","legacy","legacy","0","uniform","1","0","0","undefined","undefined","1","f","1","0","NA","0","0","0","0","0","0","0","0","0","62","62","62","0","0","0","0","0","1","0","0","0","1","62","62","62","62","62","Wed Jun 28 15:28:56 2017","Forced-choice identification task with a practice and an experimental phase","yes","NAP-FC_GER_AA_ver-2.osexp","/Users/aviadalbert/Documents/Academisch/UoC/Dissertation/Experiment/OpenSesame/NAP-FC/NAP-FC_GER_AA/GER_AA_ver-2","yes","no","sans","no","20","no","black","no","Next","yes","768","legacy","52","9","0","/Users/aviadalbert/Documents/Academisch/UoC/Dissertation/Experiment/OpenSesame/NAP-FC/NAP-FC_GER_AA/GER_AA_ver-2/subject-3.csv","xpyriment","Jazzy James","3.1.6","yes","yes","5950408a6c613b0229e3e810","59504237594d9002288b1720","no","no","0","f","f","space","NA","space","space","f","1221","2648","6903","NA","14904","10879","1221","2","legacy","1024","1","44100","-16","experiment","vnal","25","Donaueschingen, Ger","1","0","1","german","english, spanish, french, latin","3","odd","Cologne","2655824","2648629","NA","2658473","2655820","NA","1324347","2655592","1324347","1324347","2580341","2595249","2806493","2804988","2807716","2616151","2606411","2648629","2457055","2563972","2646955","2606190","2655824","2606414","NA","2806493","2806493","NA","NA","2804985","NAP perception","39","54872","53","yes","1024"
"74.0740740741","yes","74.0740740741","1032.66666667","1032.66666667","white","no","xpyriment","I have read and understood the information shown above","legacy","legacy","0","uniform","1","0","0","undefined","undefined","1","j","1","0","NA","0","0","0","0","0","0","0","0","0","63","63","63","0","0","0","0","0","1","0","0","0","1","63","63","63","63","63","Wed Jun 28 15:28:56 2017","Forced-choice identification task with a practice and an experimental phase","yes","NAP-FC_GER_AA_ver-2.osexp","/Users/aviadalbert/Documents/Academisch/UoC/Dissertation/Experiment/OpenSesame/NAP-FC/NAP-FC_GER_AA/GER_AA_ver-2","yes","no","sans","no","20","no","black","no","Next","yes","768","legacy","53","9","0","/Users/aviadalbert/Documents/Academisch/UoC/Dissertation/Experiment/OpenSesame/NAP-FC/NAP-FC_GER_AA/GER_AA_ver-2/subject-3.csv","xpyriment","Jazzy James","3.1.6","yes","yes","5950408a6c613b0229e3e810","59504237594d9002288b1720","no","no","0","j","f","space","NA","space","space","j","892","2648","6903","NA","14904","10879","892","2","legacy","1024","1","44100","-16","experiment","elmal","25","Donaueschingen, Ger","1","0","1","german","english, spanish, french, latin","3","odd","Cologne","2655824","2648629","NA","2658473","2655820","NA","1324347","2655592","1324347","1324347","2580341","2595249","2809499","2807995","2810393","2616151","2606411","2648629","2457055","2563972","2646955","2606190","2655824","2606414","NA","2809499","2809499","NA","NA","2807992","NAP perception","40","55764","54","yes","1024"
