"acc","accept_status","accuracy","average_response_time","avg_rt","background","bidi","canvas_backend","checkbox_status","clock_backend","color_backend","compensation","coordinates","correct","correct_block_activation","correct_block_exit","correct_instructions_1","correct_instructions_2","correct_keyboard_response","correct_response","count_block_activation","count_block_exit","count_block_info_QA","count_e_block_loop","count_e_block_sequence","count_end_of_experiment","count_experiment","count_experimental_loop","count_form_consent","count_info_forms","count_instructions_1","count_instructions_2","count_keyboard_response","count_listen_message","count_logger","count_p_block_loop","count_p_block_sequence","count_p_feedback","count_personal_details_form_1","count_personal_details_form_2","count_post_loop_blank","count_practice_loop","count_pre_e_block_message","count_pre_p_block_message","count_reset_feedback","count_stimulus_image","count_stimulus_sound","count_timeout_message","count_timeout_sound","count_trial_sequence","datetime","description","disable_garbage_collection","experiment_file","experiment_path","expyriment_opengl","font_bold","font_family","font_italic","font_size","font_underline","foreground","form_clicks","form_response","fullscreen","height","keyboard_backend","live_row","live_row_p_block_loop","live_row_practice_loop","logfile","mouse_backend","opensesame_codename","opensesame_version","osf_always_upload_data","osf_always_upload_experiment","osf_datanode_id","osf_id","practice","pygame_doublebuf","repeat_cycle","response","response_block_activation","response_block_exit","response_block_info_QA","response_instructions_1","response_instructions_2","response_keyboard_response","response_time","response_time_block_activation","response_time_block_exit","response_time_block_info_QA","response_time_instructions_1","response_time_instructions_2","response_time_keyboard_response","round_decimals","sampler_backend","sound_buf_size","sound_channels","sound_freq","sound_sample_size","start","stimulus","subject_age","subject_birth","subject_education","subject_gender","subject_handedness","subject_language_native","subject_language_other","subject_nr","subject_parity","subject_residence","time_block_activation","time_block_exit","time_block_info_QA","time_e_block_loop","time_e_block_sequence","time_end_of_experiment","time_experiment","time_experimental_loop","time_form_consent","time_info_forms","time_instructions_1","time_instructions_2","time_keyboard_response","time_listen_message","time_logger","time_p_block_loop","time_p_block_sequence","time_p_feedback","time_personal_details_form_1","time_personal_details_form_2","time_post_loop_blank","time_practice_loop","time_pre_e_block_message","time_pre_p_block_message","time_reset_feedback","time_stimulus_image","time_stimulus_sound","time_timeout_message","time_timeout_sound","time_trial_sequence","title","total_correct","total_response_time","total_responses","uniform_coordinates","width"
"100","yes","100","818","818","white","no","xpyriment","I have read and understood the information shown above","legacy","legacy","0","uniform","1","0","NA","undefined","undefined","1","f","0","0","NA","NA","NA","NA","0","0","0","0","0","0","0","0","0","0","0","NA","0","0","0","0","NA","0","0","0","0","0","0","0","Wed Jun 28 13:16:46 2017","Forced-choice identification task with a practice and an experimental phase","yes","NAP-FC_GER_AA_ver-2.osexp","/Users/aviadalbert/Documents/Academisch/UoC/Dissertation/Experiment/OpenSesame/NAP-FC/NAP-FC_GER_AA/GER_AA_ver-2","yes","no","sans","no","20","no","black","no","Next","yes","768","legacy","0","0","0","/Users/aviadalbert/Documents/Academisch/UoC/Dissertation/Experiment/OpenSesame/NAP-FC/NAP-FC_GER_AA/GER_AA_ver-2/subject-0.csv","xpyriment","Jazzy James","3.1.6","yes","yes","5950408a6c613b0229e3e810","59504237594d9002288b1720","yes","no","0","f","f","NA","NA","f","f","f","818","400","NA","NA","1327","483","818","2","legacy","1024","1","44100","-16","experiment","flal","","","None","None","None","","","0","even","","581411","NA","NA","NA","NA","NA","571080","NA","571081","571080","579300","580632","583524","582018","584343","581812","581407","NA","574666","577896","NA","581181","NA","581411","NA","583524","583524","NA","NA","582015","NAP perception","1","818","1","yes","1024"
"100","yes","100","677","677","white","no","xpyriment","I have read and understood the information shown above","legacy","legacy","0","uniform","1","0","NA","undefined","undefined","1","j","0","0","NA","NA","NA","NA","0","0","0","0","0","0","1","1","1","0","0","NA","0","0","0","0","NA","0","0","1","1","1","1","1","Wed Jun 28 13:16:46 2017","Forced-choice identification task with a practice and an experimental phase","yes","NAP-FC_GER_AA_ver-2.osexp","/Users/aviadalbert/Documents/Academisch/UoC/Dissertation/Experiment/OpenSesame/NAP-FC/NAP-FC_GER_AA/GER_AA_ver-2","yes","no","sans","no","20","no","black","no","Next","yes","768","legacy","1","1","0","/Users/aviadalbert/Documents/Academisch/UoC/Dissertation/Experiment/OpenSesame/NAP-FC/NAP-FC_GER_AA/GER_AA_ver-2/subject-0.csv","xpyriment","Jazzy James","3.1.6","yes","yes","5950408a6c613b0229e3e810","59504237594d9002288b1720","yes","no","0","j","f","NA","NA","f","f","j","536","400","NA","NA","1327","483","536","2","legacy","1024","1","44100","-16","experiment","lepal","","","None","None","None","","","0","even","","581411","NA","NA","NA","NA","NA","571080","NA","571081","571080","579300","580632","586144","584638","586681","581812","581407","NA","574666","577896","NA","581181","NA","581411","NA","586144","586144","NA","NA","584634","NAP perception","2","1354","2","yes","1024"
"100","yes","100","615","615","white","no","xpyriment","I have read and understood the information shown above","legacy","legacy","0","uniform","1","0","NA","undefined","undefined","1","j","0","0","NA","NA","NA","NA","0","0","0","0","0","0","2","2","2","0","0","NA","0","0","0","0","NA","0","0","2","2","2","2","2","Wed Jun 28 13:16:46 2017","Forced-choice identification task with a practice and an experimental phase","yes","NAP-FC_GER_AA_ver-2.osexp","/Users/aviadalbert/Documents/Academisch/UoC/Dissertation/Experiment/OpenSesame/NAP-FC/NAP-FC_GER_AA/GER_AA_ver-2","yes","no","sans","no","20","no","black","no","Next","yes","768","legacy","2","2","0","/Users/aviadalbert/Documents/Academisch/UoC/Dissertation/Experiment/OpenSesame/NAP-FC/NAP-FC_GER_AA/GER_AA_ver-2/subject-0.csv","xpyriment","Jazzy James","3.1.6","yes","yes","5950408a6c613b0229e3e810","59504237594d9002288b1720","yes","no","0","j","f","NA","NA","f","f","j","491","400","NA","NA","1327","483","491","2","legacy","1024","1","44100","-16","experiment","emtal","","","None","None","None","","","0","even","","581411","NA","NA","NA","NA","NA","571080","NA","571081","571080","579300","580632","588473","586968","588965","581812","581407","NA","574666","577896","NA","581181","NA","581411","NA","588472","588473","NA","NA","586964","NAP perception","3","1845","3","yes","1024"
"100","yes","100","577.75","577.75","white","no","xpyriment","I have read and understood the information shown above","legacy","legacy","0","uniform","1","0","NA","undefined","undefined","1","f","0","0","NA","NA","NA","NA","0","0","0","0","0","0","3","3","3","0","0","NA","0","0","0","0","NA","0","0","3","3","3","3","3","Wed Jun 28 13:16:46 2017","Forced-choice identification task with a practice and an experimental phase","yes","NAP-FC_GER_AA_ver-2.osexp","/Users/aviadalbert/Documents/Academisch/UoC/Dissertation/Experiment/OpenSesame/NAP-FC/NAP-FC_GER_AA/GER_AA_ver-2","yes","no","sans","no","20","no","black","no","Next","yes","768","legacy","3","3","0","/Users/aviadalbert/Documents/Academisch/UoC/Dissertation/Experiment/OpenSesame/NAP-FC/NAP-FC_GER_AA/GER_AA_ver-2/subject-0.csv","xpyriment","Jazzy James","3.1.6","yes","yes","5950408a6c613b0229e3e810","59504237594d9002288b1720","yes","no","0","f","f","NA","NA","f","f","f","466","400","NA","NA","1327","483","466","2","legacy","1024","1","44100","-16","experiment","ʃpal","","","None","None","None","","","0","even","","581411","NA","NA","NA","NA","NA","571080","NA","571081","571080","579300","580632","590746","589238","591213","581812","581407","NA","574666","577896","NA","581181","NA","581411","NA","590746","590746","NA","NA","589234","NAP perception","4","2311","4","yes","1024"
"100","yes","100","611.4","611.4","white","no","xpyriment","I have read and understood the information shown above","legacy","legacy","0","uniform","1","0","NA","undefined","undefined","1","j","0","0","NA","NA","NA","NA","0","0","0","0","0","0","4","4","4","0","0","NA","0","0","0","0","NA","0","0","4","4","4","4","4","Wed Jun 28 13:16:46 2017","Forced-choice identification task with a practice and an experimental phase","yes","NAP-FC_GER_AA_ver-2.osexp","/Users/aviadalbert/Documents/Academisch/UoC/Dissertation/Experiment/OpenSesame/NAP-FC/NAP-FC_GER_AA/GER_AA_ver-2","yes","no","sans","no","20","no","black","no","Next","yes","768","legacy","4","4","0","/Users/aviadalbert/Documents/Academisch/UoC/Dissertation/Experiment/OpenSesame/NAP-FC/NAP-FC_GER_AA/GER_AA_ver-2/subject-0.csv","xpyriment","Jazzy James","3.1.6","yes","yes","5950408a6c613b0229e3e810","59504237594d9002288b1720","yes","no","0","j","f","NA","NA","f","f","j","746","400","NA","NA","1327","483","746","2","legacy","1024","1","44100","-16","experiment","nefal","","","None","None","None","","","0","even","","581411","NA","NA","NA","NA","NA","571080","NA","571081","571080","579300","580632","593006","591501","593753","581812","581407","NA","574666","577896","NA","581181","NA","581411","NA","593006","593006","NA","NA","591497","NAP perception","5","3057","5","yes","1024"
"100","yes","100","610.333333333","610.333333333","white","no","xpyriment","I have read and understood the information shown above","legacy","legacy","0","uniform","1","0","NA","undefined","undefined","1","f","0","0","NA","NA","NA","NA","0","0","0","0","0","0","5","5","5","0","0","NA","0","0","0","0","NA","0","0","5","5","5","5","5","Wed Jun 28 13:16:46 2017","Forced-choice identification task with a practice and an experimental phase","yes","NAP-FC_GER_AA_ver-2.osexp","/Users/aviadalbert/Documents/Academisch/UoC/Dissertation/Experiment/OpenSesame/NAP-FC/NAP-FC_GER_AA/GER_AA_ver-2","yes","no","sans","no","20","no","black","no","Next","yes","768","legacy","5","5","0","/Users/aviadalbert/Documents/Academisch/UoC/Dissertation/Experiment/OpenSesame/NAP-FC/NAP-FC_GER_AA/GER_AA_ver-2/subject-0.csv","xpyriment","Jazzy James","3.1.6","yes","yes","5950408a6c613b0229e3e810","59504237594d9002288b1720","yes","no","0","f","f","NA","NA","f","f","f","605","400","NA","NA","1327","483","605","2","legacy","1024","1","44100","-16","experiment","sfal","","","None","None","None","","","0","even","","581411","NA","NA","NA","NA","NA","571080","NA","571081","571080","579300","580632","595544","594037","596150","581812","581407","NA","574666","577896","NA","581181","NA","581411","NA","595544","595544","NA","NA","594033","NAP perception","6","3662","6","yes","1024"
"85.7142857143","yes","85.7142857143","790.571428571","790.571428571","white","no","xpyriment","I have read and understood the information shown above","legacy","legacy","0","uniform","0","0","NA","undefined","undefined","0","f","0","0","NA","NA","NA","NA","0","0","0","0","0","0","6","6","6","0","0","NA","0","0","0","0","NA","0","0","6","6","6","6","6","Wed Jun 28 13:16:46 2017","Forced-choice identification task with a practice and an experimental phase","yes","NAP-FC_GER_AA_ver-2.osexp","/Users/aviadalbert/Documents/Academisch/UoC/Dissertation/Experiment/OpenSesame/NAP-FC/NAP-FC_GER_AA/GER_AA_ver-2","yes","no","sans","no","20","no","black","no","Next","yes","768","legacy","6","6","0","/Users/aviadalbert/Documents/Academisch/UoC/Dissertation/Experiment/OpenSesame/NAP-FC/NAP-FC_GER_AA/GER_AA_ver-2/subject-0.csv","xpyriment","Jazzy James","3.1.6","yes","yes","5950408a6c613b0229e3e810","59504237594d9002288b1720","yes","no","0","j","f","NA","NA","f","f","j","1872","400","NA","NA","1327","483","1872","2","legacy","1024","1","44100","-16","experiment","zmal","","","None","None","None","","","0","even","","581411","NA","NA","NA","NA","NA","571080","NA","571081","571080","579300","580632","597942","596435","599815","581812","581407","NA","574666","577896","NA","581181","NA","581411","NA","597941","597942","NA","NA","596431","NAP perception","6","5534","7","yes","1024"
"87.5","yes","87.5","755.75","755.75","white","no","xpyriment","I have read and understood the information shown above","legacy","legacy","0","uniform","1","0","NA","undefined","undefined","1","j","0","0","NA","NA","NA","NA","0","0","0","0","0","0","7","7","7","0","0","NA","0","0","0","0","NA","0","0","7","7","7","7","7","Wed Jun 28 13:16:46 2017","Forced-choice identification task with a practice and an experimental phase","yes","NAP-FC_GER_AA_ver-2.osexp","/Users/aviadalbert/Documents/Academisch/UoC/Dissertation/Experiment/OpenSesame/NAP-FC/NAP-FC_GER_AA/GER_AA_ver-2","yes","no","sans","no","20","no","black","no","Next","yes","768","legacy","7","7","0","/Users/aviadalbert/Documents/Academisch/UoC/Dissertation/Experiment/OpenSesame/NAP-FC/NAP-FC_GER_AA/GER_AA_ver-2/subject-0.csv","xpyriment","Jazzy James","3.1.6","yes","yes","5950408a6c613b0229e3e810","59504237594d9002288b1720","yes","no","0","j","f","NA","NA","f","f","j","512","400","NA","NA","1327","483","512","2","legacy","1024","1","44100","-16","experiment","jeval","","","None","None","None","","","0","even","","581411","NA","NA","NA","NA","NA","571080","NA","571081","571080","579300","580632","601600","600093","602113","581812","581407","NA","574666","577896","NA","581181","NA","581411","NA","601600","601600","NA","NA","600089","NAP perception","7","6046","8","yes","1024"
"88.8888888889","yes","88.8888888889","731.666666667","731.666666667","white","no","xpyriment","I have read and understood the information shown above","legacy","legacy","0","uniform","1","0","NA","undefined","undefined","1","j","0","0","NA","NA","NA","NA","0","0","0","0","0","0","8","8","8","0","0","NA","0","0","0","0","NA","0","0","8","8","8","8","8","Wed Jun 28 13:16:46 2017","Forced-choice identification task with a practice and an experimental phase","yes","NAP-FC_GER_AA_ver-2.osexp","/Users/aviadalbert/Documents/Academisch/UoC/Dissertation/Experiment/OpenSesame/NAP-FC/NAP-FC_GER_AA/GER_AA_ver-2","yes","no","sans","no","20","no","black","no","Next","yes","768","legacy","8","8","0","/Users/aviadalbert/Documents/Academisch/UoC/Dissertation/Experiment/OpenSesame/NAP-FC/NAP-FC_GER_AA/GER_AA_ver-2/subject-0.csv","xpyriment","Jazzy James","3.1.6","yes","yes","5950408a6c613b0229e3e810","59504237594d9002288b1720","yes","no","0","j","f","NA","NA","f","f","j","539","400","NA","NA","1327","483","539","2","legacy","1024","1","44100","-16","experiment","enval","","","None","None","None","","","0","even","","581411","NA","NA","NA","NA","NA","571080","NA","571081","571080","579300","580632","603904","602398","604444","581812","581407","NA","574666","577896","NA","581181","NA","581411","NA","603903","603903","NA","NA","602393","NAP perception","8","6585","9","yes","1024"
"90","yes","90","736.5","736.5","white","no","xpyriment","I have read and understood the information shown above","legacy","legacy","0","uniform","1","0","NA","undefined","undefined","1","f","0","0","NA","NA","NA","NA","0","0","0","0","0","0","9","9","9","0","0","NA","0","0","0","0","NA","0","0","9","9","9","9","9","Wed Jun 28 13:16:46 2017","Forced-choice identification task with a practice and an experimental phase","yes","NAP-FC_GER_AA_ver-2.osexp","/Users/aviadalbert/Documents/Academisch/UoC/Dissertation/Experiment/OpenSesame/NAP-FC/NAP-FC_GER_AA/GER_AA_ver-2","yes","no","sans","no","20","no","black","no","Next","yes","768","legacy","9","9","0","/Users/aviadalbert/Documents/Academisch/UoC/Dissertation/Experiment/OpenSesame/NAP-FC/NAP-FC_GER_AA/GER_AA_ver-2/subject-0.csv","xpyriment","Jazzy James","3.1.6","yes","yes","5950408a6c613b0229e3e810","59504237594d9002288b1720","yes","no","0","f","f","NA","NA","f","f","f","780","400","NA","NA","1327","483","780","2","legacy","1024","1","44100","-16","experiment","vlal","","","None","None","None","","","0","even","","581411","NA","NA","NA","NA","NA","571080","NA","571081","571080","579300","580632","606230","604725","607011","581812","581407","NA","574666","577896","NA","581181","NA","581411","NA","606230","606230","NA","NA","604721","NAP perception","9","7365","10","yes","1024"
"100","yes","100","665","665","white","no","xpyriment","I have read and understood the information shown above","legacy","legacy","0","uniform","1","0","0","undefined","undefined","1","f","1","0","NA","0","0","0","0","0","0","0","0","0","10","10","10","0","0","0","0","0","1","0","0","0","1","10","10","10","10","10","Wed Jun 28 13:16:46 2017","Forced-choice identification task with a practice and an experimental phase","yes","NAP-FC_GER_AA_ver-2.osexp","/Users/aviadalbert/Documents/Academisch/UoC/Dissertation/Experiment/OpenSesame/NAP-FC/NAP-FC_GER_AA/GER_AA_ver-2","yes","no","sans","no","20","no","black","no","Next","yes","768","legacy","0","9","0","/Users/aviadalbert/Documents/Academisch/UoC/Dissertation/Experiment/OpenSesame/NAP-FC/NAP-FC_GER_AA/GER_AA_ver-2/subject-0.csv","xpyriment","Jazzy James","3.1.6","yes","yes","5950408a6c613b0229e3e810","59504237594d9002288b1720","no","no","0","f","j","space","NA","f","f","f","665","794","2026","NA","1327","483","665","2","legacy","1024","1","44100","-16","experiment","ftal","","","None","None","None","","","0","even","","611110","608781","NA","611906","611106","NA","571080","610870","571081","571080","579300","580632","613635","612129","614301","581812","581407","608781","574666","577896","607077","581181","611109","581411","NA","613635","613635","NA","NA","612125","NAP perception","1","665","1","yes","1024"
"100","yes","100","773","773","white","no","xpyriment","I have read and understood the information shown above","legacy","legacy","0","uniform","1","0","0","undefined","undefined","1","f","1","0","NA","0","0","0","0","0","0","0","0","0","11","11","11","0","0","0","0","0","1","0","0","0","1","11","11","11","11","11","Wed Jun 28 13:16:46 2017","Forced-choice identification task with a practice and an experimental phase","yes","NAP-FC_GER_AA_ver-2.osexp","/Users/aviadalbert/Documents/Academisch/UoC/Dissertation/Experiment/OpenSesame/NAP-FC/NAP-FC_GER_AA/GER_AA_ver-2","yes","no","sans","no","20","no","black","no","Next","yes","768","legacy","1","9","0","/Users/aviadalbert/Documents/Academisch/UoC/Dissertation/Experiment/OpenSesame/NAP-FC/NAP-FC_GER_AA/GER_AA_ver-2/subject-0.csv","xpyriment","Jazzy James","3.1.6","yes","yes","5950408a6c613b0229e3e810","59504237594d9002288b1720","no","no","0","f","j","space","NA","f","f","f","881","794","2026","NA","1327","483","881","2","legacy","1024","1","44100","-16","experiment","vnal","","","None","None","None","","","0","even","","611110","608781","NA","611906","611106","NA","571080","610870","571081","571080","579300","580632","616087","614581","616970","581812","581407","608781","574666","577896","607077","581181","611109","581411","NA","616086","616086","NA","NA","614577","NAP perception","2","1546","2","yes","1024"
"100","yes","100","723","723","white","no","xpyriment","I have read and understood the information shown above","legacy","legacy","0","uniform","1","0","0","undefined","undefined","1","j","1","0","NA","0","0","0","0","0","0","0","0","0","12","12","12","0","0","0","0","0","1","0","0","0","1","12","12","12","12","12","Wed Jun 28 13:16:46 2017","Forced-choice identification task with a practice and an experimental phase","yes","NAP-FC_GER_AA_ver-2.osexp","/Users/aviadalbert/Documents/Academisch/UoC/Dissertation/Experiment/OpenSesame/NAP-FC/NAP-FC_GER_AA/GER_AA_ver-2","yes","no","sans","no","20","no","black","no","Next","yes","768","legacy","2","9","0","/Users/aviadalbert/Documents/Academisch/UoC/Dissertation/Experiment/OpenSesame/NAP-FC/NAP-FC_GER_AA/GER_AA_ver-2/subject-0.csv","xpyriment","Jazzy James","3.1.6","yes","yes","5950408a6c613b0229e3e810","59504237594d9002288b1720","no","no","0","j","j","space","NA","f","f","j","623","794","2026","NA","1327","483","623","2","legacy","1024","1","44100","-16","experiment","jepal","","","None","None","None","","","0","even","","611110","608781","NA","611906","611106","NA","571080","610870","571081","571080","579300","580632","618753","617246","619377","581812","581407","608781","574666","577896","607077","581181","611109","581411","NA","618752","618752","NA","NA","617242","NAP perception","3","2169","3","yes","1024"
"100","yes","100","789.75","789.75","white","no","xpyriment","I have read and understood the information shown above","legacy","legacy","0","uniform","1","0","0","undefined","undefined","1","j","1","0","NA","0","0","0","0","0","0","0","0","0","13","13","13","0","0","0","0","0","1","0","0","0","1","13","13","13","13","13","Wed Jun 28 13:16:46 2017","Forced-choice identification task with a practice and an experimental phase","yes","NAP-FC_GER_AA_ver-2.osexp","/Users/aviadalbert/Documents/Academisch/UoC/Dissertation/Experiment/OpenSesame/NAP-FC/NAP-FC_GER_AA/GER_AA_ver-2","yes","no","sans","no","20","no","black","no","Next","yes","768","legacy","3","9","0","/Users/aviadalbert/Documents/Academisch/UoC/Dissertation/Experiment/OpenSesame/NAP-FC/NAP-FC_GER_AA/GER_AA_ver-2/subject-0.csv","xpyriment","Jazzy James","3.1.6","yes","yes","5950408a6c613b0229e3e810","59504237594d9002288b1720","no","no","0","j","j","space","NA","f","f","j","990","794","2026","NA","1327","483","990","2","legacy","1024","1","44100","-16","experiment","nefal","","","None","None","None","","","0","even","","611110","608781","NA","611906","611106","NA","571080","610870","571081","571080","579300","580632","621163","619658","622154","581812","581407","608781","574666","577896","607077","581181","611109","581411","NA","621163","621163","NA","NA","619654","NAP perception","4","3159","4","yes","1024"
"100","yes","100","969.2","969.2","white","no","xpyriment","I have read and understood the information shown above","legacy","legacy","0","uniform","1","0","0","undefined","undefined","1","f","1","0","NA","0","0","0","0","0","0","0","0","0","14","14","14","0","0","0","0","0","1","0","0","0","1","14","14","14","14","14","Wed Jun 28 13:16:46 2017","Forced-choice identification task with a practice and an experimental phase","yes","NAP-FC_GER_AA_ver-2.osexp","/Users/aviadalbert/Documents/Academisch/UoC/Dissertation/Experiment/OpenSesame/NAP-FC/NAP-FC_GER_AA/GER_AA_ver-2","yes","no","sans","no","20","no","black","no","Next","yes","768","legacy","4","9","0","/Users/aviadalbert/Documents/Academisch/UoC/Dissertation/Experiment/OpenSesame/NAP-FC/NAP-FC_GER_AA/GER_AA_ver-2/subject-0.csv","xpyriment","Jazzy James","3.1.6","yes","yes","5950408a6c613b0229e3e810","59504237594d9002288b1720","no","no","0","f","j","space","NA","f","f","f","1687","794","2026","NA","1327","483","1687","2","legacy","1024","1","44100","-16","experiment","lpal","","","None","None","None","","","0","even","","611110","608781","NA","611906","611106","NA","571080","610870","571081","571080","579300","580632","623949","622442","625637","581812","581407","608781","574666","577896","607077","581181","611109","581411","NA","623949","623949","NA","NA","622438","NAP perception","5","4846","5","yes","1024"
"83.3333333333","yes","83.3333333333","933.666666667","933.666666667","white","no","xpyriment","I have read and understood the information shown above","legacy","legacy","0","uniform","0","0","0","undefined","undefined","0","f","1","0","NA","0","0","0","0","0","0","0","0","0","15","15","15","0","0","0","0","0","1","0","0","0","1","15","15","15","15","15","Wed Jun 28 13:16:46 2017","Forced-choice identification task with a practice and an experimental phase","yes","NAP-FC_GER_AA_ver-2.osexp","/Users/aviadalbert/Documents/Academisch/UoC/Dissertation/Experiment/OpenSesame/NAP-FC/NAP-FC_GER_AA/GER_AA_ver-2","yes","no","sans","no","20","no","black","no","Next","yes","768","legacy","5","9","0","/Users/aviadalbert/Documents/Academisch/UoC/Dissertation/Experiment/OpenSesame/NAP-FC/NAP-FC_GER_AA/GER_AA_ver-2/subject-0.csv","xpyriment","Jazzy James","3.1.6","yes","yes","5950408a6c613b0229e3e810","59504237594d9002288b1720","no","no","0","j","j","space","NA","f","f","j","756","794","2026","NA","1327","483","756","2","legacy","1024","1","44100","-16","experiment","fsal","","","None","None","None","","","0","even","","611110","608781","NA","611906","611106","NA","571080","610870","571081","571080","579300","580632","627430","625925","628187","581812","581407","608781","574666","577896","607077","581181","611109","581411","NA","627430","627430","NA","NA","625921","NAP perception","5","5602","6","yes","1024"
"85.7142857143","yes","85.7142857143","904.428571429","904.428571429","white","no","xpyriment","I have read and understood the information shown above","legacy","legacy","0","uniform","1","0","0","undefined","undefined","1","j","1","0","NA","0","0","0","0","0","0","0","0","0","16","16","16","0","0","0","0","0","1","0","0","0","1","16","16","16","16","16","Wed Jun 28 13:16:46 2017","Forced-choice identification task with a practice and an experimental phase","yes","NAP-FC_GER_AA_ver-2.osexp","/Users/aviadalbert/Documents/Academisch/UoC/Dissertation/Experiment/OpenSesame/NAP-FC/NAP-FC_GER_AA/GER_AA_ver-2","yes","no","sans","no","20","no","black","no","Next","yes","768","legacy","6","9","0","/Users/aviadalbert/Documents/Academisch/UoC/Dissertation/Experiment/OpenSesame/NAP-FC/NAP-FC_GER_AA/GER_AA_ver-2/subject-0.csv","xpyriment","Jazzy James","3.1.6","yes","yes","5950408a6c613b0229e3e810","59504237594d9002288b1720","no","no","0","j","j","space","NA","f","f","j","729","794","2026","NA","1327","483","729","2","legacy","1024","1","44100","-16","experiment","eflal","","","None","None","None","","","0","even","","611110","608781","NA","611906","611106","NA","571080","610870","571081","571080","579300","580632","629969","628462","630699","581812","581407","608781","574666","577896","607077","581181","611109","581411","NA","629969","629969","NA","NA","628458","NAP perception","6","6331","7","yes","1024"
"87.5","yes","87.5","859.5","859.5","white","no","xpyriment","I have read and understood the information shown above","legacy","legacy","0","uniform","1","0","0","undefined","undefined","1","f","1","0","NA","0","0","0","0","0","0","0","0","0","17","17","17","0","0","0","0","0","1","0","0","0","1","17","17","17","17","17","Wed Jun 28 13:16:46 2017","Forced-choice identification task with a practice and an experimental phase","yes","NAP-FC_GER_AA_ver-2.osexp","/Users/aviadalbert/Documents/Academisch/UoC/Dissertation/Experiment/OpenSesame/NAP-FC/NAP-FC_GER_AA/GER_AA_ver-2","yes","no","sans","no","20","no","black","no","Next","yes","768","legacy","7","9","0","/Users/aviadalbert/Documents/Academisch/UoC/Dissertation/Experiment/OpenSesame/NAP-FC/NAP-FC_GER_AA/GER_AA_ver-2/subject-0.csv","xpyriment","Jazzy James","3.1.6","yes","yes","5950408a6c613b0229e3e810","59504237594d9002288b1720","no","no","0","f","j","space","NA","f","f","f","545","794","2026","NA","1327","483","545","2","legacy","1024","1","44100","-16","experiment","smal","","","None","None","None","","","0","even","","611110","608781","NA","611906","611106","NA","571080","610870","571081","571080","579300","580632","632489","630982","633035","581812","581407","608781","574666","577896","607077","581181","611109","581411","NA","632488","632488","NA","NA","630978","NAP perception","7","6876","8","yes","1024"
"88.8888888889","yes","88.8888888889","883.555555556","883.555555556","white","no","xpyriment","I have read and understood the information shown above","legacy","legacy","0","uniform","1","0","0","undefined","undefined","1","f","1","0","NA","0","0","0","0","0","0","0","0","0","18","18","18","0","0","0","0","0","1","0","0","0","1","18","18","18","18","18","Wed Jun 28 13:16:46 2017","Forced-choice identification task with a practice and an experimental phase","yes","NAP-FC_GER_AA_ver-2.osexp","/Users/aviadalbert/Documents/Academisch/UoC/Dissertation/Experiment/OpenSesame/NAP-FC/NAP-FC_GER_AA/GER_AA_ver-2","yes","no","sans","no","20","no","black","no","Next","yes","768","legacy","8","9","0","/Users/aviadalbert/Documents/Academisch/UoC/Dissertation/Experiment/OpenSesame/NAP-FC/NAP-FC_GER_AA/GER_AA_ver-2/subject-0.csv","xpyriment","Jazzy James","3.1.6","yes","yes","5950408a6c613b0229e3e810","59504237594d9002288b1720","no","no","0","f","j","space","NA","f","f","f","1076","794","2026","NA","1327","483","1076","2","legacy","1024","1","44100","-16","experiment","zmal","","","None","None","None","","","0","even","","611110","608781","NA","611906","611106","NA","571080","610870","571081","571080","579300","580632","634819","633313","635896","581812","581407","608781","574666","577896","607077","581181","611109","581411","NA","634819","634819","NA","NA","633309","NAP perception","8","7952","9","yes","1024"
"90","yes","90","874.7","874.7","white","no","xpyriment","I have read and understood the information shown above","legacy","legacy","0","uniform","1","0","0","undefined","undefined","1","j","1","0","NA","0","0","0","0","0","0","0","0","0","19","19","19","0","0","0","0","0","1","0","0","0","1","19","19","19","19","19","Wed Jun 28 13:16:46 2017","Forced-choice identification task with a practice and an experimental phase","yes","NAP-FC_GER_AA_ver-2.osexp","/Users/aviadalbert/Documents/Academisch/UoC/Dissertation/Experiment/OpenSesame/NAP-FC/NAP-FC_GER_AA/GER_AA_ver-2","yes","no","sans","no","20","no","black","no","Next","yes","768","legacy","9","9","0","/Users/aviadalbert/Documents/Academisch/UoC/Dissertation/Experiment/OpenSesame/NAP-FC/NAP-FC_GER_AA/GER_AA_ver-2/subject-0.csv","xpyriment","Jazzy James","3.1.6","yes","yes","5950408a6c613b0229e3e810","59504237594d9002288b1720","no","no","0","j","j","space","NA","f","f","j","795","794","2026","NA","1327","483","795","2","legacy","1024","1","44100","-16","experiment","lekal","","","None","None","None","","","0","even","","611110","608781","NA","611906","611106","NA","571080","610870","571081","571080","579300","580632","637694","636187","638490","581812","581407","608781","574666","577896","607077","581181","611109","581411","NA","637694","637694","NA","NA","636182","NAP perception","9","8747","10","yes","1024"
"90.9090909091","yes","90.9090909091","857.454545455","857.454545455","white","no","xpyriment","I have read and understood the information shown above","legacy","legacy","0","uniform","1","0","0","undefined","undefined","1","j","1","0","NA","0","0","0","0","0","0","0","0","0","20","20","20","0","0","0","0","0","1","0","0","0","1","20","20","20","20","20","Wed Jun 28 13:16:46 2017","Forced-choice identification task with a practice and an experimental phase","yes","NAP-FC_GER_AA_ver-2.osexp","/Users/aviadalbert/Documents/Academisch/UoC/Dissertation/Experiment/OpenSesame/NAP-FC/NAP-FC_GER_AA/GER_AA_ver-2","yes","no","sans","no","20","no","black","no","Next","yes","768","legacy","10","9","0","/Users/aviadalbert/Documents/Academisch/UoC/Dissertation/Experiment/OpenSesame/NAP-FC/NAP-FC_GER_AA/GER_AA_ver-2/subject-0.csv","xpyriment","Jazzy James","3.1.6","yes","yes","5950408a6c613b0229e3e810","59504237594d9002288b1720","no","no","0","j","j","space","NA","f","f","j","685","794","2026","NA","1327","483","685","2","legacy","1024","1","44100","-16","experiment","melal","","","None","None","None","","","0","even","","611110","608781","NA","611906","611106","NA","571080","610870","571081","571080","579300","580632","640272","638768","640958","581812","581407","608781","574666","577896","607077","581181","611109","581411","NA","640272","640272","NA","NA","638765","NAP perception","10","9432","11","yes","1024"
"91.6666666667","yes","91.6666666667","838.083333333","838.083333333","white","no","xpyriment","I have read and understood the information shown above","legacy","legacy","0","uniform","1","0","0","undefined","undefined","1","j","1","0","NA","0","0","0","0","0","0","0","0","0","21","21","21","0","0","0","0","0","1","0","0","0","1","21","21","21","21","21","Wed Jun 28 13:16:46 2017","Forced-choice identification task with a practice and an experimental phase","yes","NAP-FC_GER_AA_ver-2.osexp","/Users/aviadalbert/Documents/Academisch/UoC/Dissertation/Experiment/OpenSesame/NAP-FC/NAP-FC_GER_AA/GER_AA_ver-2","yes","no","sans","no","20","no","black","no","Next","yes","768","legacy","11","9","0","/Users/aviadalbert/Documents/Academisch/UoC/Dissertation/Experiment/OpenSesame/NAP-FC/NAP-FC_GER_AA/GER_AA_ver-2/subject-0.csv","xpyriment","Jazzy James","3.1.6","yes","yes","5950408a6c613b0229e3e810","59504237594d9002288b1720","no","no","0","j","j","space","NA","f","f","j","625","794","2026","NA","1327","483","625","2","legacy","1024","1","44100","-16","experiment","fetal","","","None","None","None","","","0","even","","611110","608781","NA","611906","611106","NA","571080","610870","571081","571080","579300","580632","642752","641244","643378","581812","581407","608781","574666","577896","607077","581181","611109","581411","NA","642752","642752","NA","NA","641240","NAP perception","11","10057","12","yes","1024"
"92.3076923077","yes","92.3076923077","827.538461538","827.538461538","white","no","xpyriment","I have read and understood the information shown above","legacy","legacy","0","uniform","1","0","0","undefined","undefined","1","j","1","0","NA","0","0","0","0","0","0","0","0","0","22","22","22","0","0","0","0","0","1","0","0","0","1","22","22","22","22","22","Wed Jun 28 13:16:46 2017","Forced-choice identification task with a practice and an experimental phase","yes","NAP-FC_GER_AA_ver-2.osexp","/Users/aviadalbert/Documents/Academisch/UoC/Dissertation/Experiment/OpenSesame/NAP-FC/NAP-FC_GER_AA/GER_AA_ver-2","yes","no","sans","no","20","no","black","no","Next","yes","768","legacy","12","9","0","/Users/aviadalbert/Documents/Academisch/UoC/Dissertation/Experiment/OpenSesame/NAP-FC/NAP-FC_GER_AA/GER_AA_ver-2/subject-0.csv","xpyriment","Jazzy James","3.1.6","yes","yes","5950408a6c613b0229e3e810","59504237594d9002288b1720","no","no","0","j","j","space","NA","f","f","j","701","794","2026","NA","1327","483","701","2","legacy","1024","1","44100","-16","experiment","elfal","","","None","None","None","","","0","even","","611110","608781","NA","611906","611106","NA","571080","610870","571081","571080","579300","580632","645165","643659","645867","581812","581407","608781","574666","577896","607077","581181","611109","581411","NA","645165","645165","NA","NA","643655","NAP perception","12","10758","13","yes","1024"
"92.8571428571","yes","92.8571428571","815.857142857","815.857142857","white","no","xpyriment","I have read and understood the information shown above","legacy","legacy","0","uniform","1","0","0","undefined","undefined","1","j","1","0","NA","0","0","0","0","0","0","0","0","0","23","23","23","0","0","0","0","0","1","0","0","0","1","23","23","23","23","23","Wed Jun 28 13:16:46 2017","Forced-choice identification task with a practice and an experimental phase","yes","NAP-FC_GER_AA_ver-2.osexp","/Users/aviadalbert/Documents/Academisch/UoC/Dissertation/Experiment/OpenSesame/NAP-FC/NAP-FC_GER_AA/GER_AA_ver-2","yes","no","sans","no","20","no","black","no","Next","yes","768","legacy","13","9","0","/Users/aviadalbert/Documents/Academisch/UoC/Dissertation/Experiment/OpenSesame/NAP-FC/NAP-FC_GER_AA/GER_AA_ver-2/subject-0.csv","xpyriment","Jazzy James","3.1.6","yes","yes","5950408a6c613b0229e3e810","59504237594d9002288b1720","no","no","0","j","j","space","NA","f","f","j","664","794","2026","NA","1327","483","664","2","legacy","1024","1","44100","-16","experiment","esmal","","","None","None","None","","","0","even","","611110","608781","NA","611906","611106","NA","571080","610870","571081","571080","579300","580632","647660","646152","648325","581812","581407","608781","574666","577896","607077","581181","611109","581411","NA","647659","647659","NA","NA","646148","NAP perception","13","11422","14","yes","1024"
"93.3333333333","yes","93.3333333333","821.133333333","821.133333333","white","no","xpyriment","I have read and understood the information shown above","legacy","legacy","0","uniform","1","0","0","undefined","undefined","1","j","1","0","NA","0","0","0","0","0","0","0","0","0","24","24","24","0","0","0","0","0","1","0","0","0","1","24","24","24","24","24","Wed Jun 28 13:16:46 2017","Forced-choice identification task with a practice and an experimental phase","yes","NAP-FC_GER_AA_ver-2.osexp","/Users/aviadalbert/Documents/Academisch/UoC/Dissertation/Experiment/OpenSesame/NAP-FC/NAP-FC_GER_AA/GER_AA_ver-2","yes","no","sans","no","20","no","black","no","Next","yes","768","legacy","14","9","0","/Users/aviadalbert/Documents/Academisch/UoC/Dissertation/Experiment/OpenSesame/NAP-FC/NAP-FC_GER_AA/GER_AA_ver-2/subject-0.csv","xpyriment","Jazzy James","3.1.6","yes","yes","5950408a6c613b0229e3e810","59504237594d9002288b1720","no","no","0","j","j","space","NA","f","f","j","895","794","2026","NA","1327","483","895","2","legacy","1024","1","44100","-16","experiment","nemal","","","None","None","None","","","0","even","","611110","608781","NA","611906","611106","NA","571080","610870","571081","571080","579300","580632","650117","648612","651014","581812","581407","608781","574666","577896","607077","581181","611109","581411","NA","650117","650117","NA","NA","648608","NAP perception","14","12317","15","yes","1024"
"93.75","yes","93.75","805.9375","805.9375","white","no","xpyriment","I have read and understood the information shown above","legacy","legacy","0","uniform","1","0","0","undefined","undefined","1","f","1","0","NA","0","0","0","0","0","0","0","0","0","25","25","25","0","0","0","0","0","1","0","0","0","1","25","25","25","25","25","Wed Jun 28 13:16:46 2017","Forced-choice identification task with a practice and an experimental phase","yes","NAP-FC_GER_AA_ver-2.osexp","/Users/aviadalbert/Documents/Academisch/UoC/Dissertation/Experiment/OpenSesame/NAP-FC/NAP-FC_GER_AA/GER_AA_ver-2","yes","no","sans","no","20","no","black","no","Next","yes","768","legacy","15","9","0","/Users/aviadalbert/Documents/Academisch/UoC/Dissertation/Experiment/OpenSesame/NAP-FC/NAP-FC_GER_AA/GER_AA_ver-2/subject-0.csv","xpyriment","Jazzy James","3.1.6","yes","yes","5950408a6c613b0229e3e810","59504237594d9002288b1720","no","no","0","f","j","space","NA","f","f","f","578","794","2026","NA","1327","483","578","2","legacy","1024","1","44100","-16","experiment","vlal","","","None","None","None","","","0","even","","611110","608781","NA","611906","611106","NA","571080","610870","571081","571080","579300","580632","652801","651293","653380","581812","581407","608781","574666","577896","607077","581181","611109","581411","NA","652801","652801","NA","NA","651289","NAP perception","15","12895","16","yes","1024"
"94.1176470588","yes","94.1176470588","808","808","white","no","xpyriment","I have read and understood the information shown above","legacy","legacy","0","uniform","1","0","0","undefined","undefined","1","f","1","0","NA","0","0","0","0","0","0","0","0","0","26","26","26","0","0","0","0","0","1","0","0","0","1","26","26","26","26","26","Wed Jun 28 13:16:46 2017","Forced-choice identification task with a practice and an experimental phase","yes","NAP-FC_GER_AA_ver-2.osexp","/Users/aviadalbert/Documents/Academisch/UoC/Dissertation/Experiment/OpenSesame/NAP-FC/NAP-FC_GER_AA/GER_AA_ver-2","yes","no","sans","no","20","no","black","no","Next","yes","768","legacy","16","9","0","/Users/aviadalbert/Documents/Academisch/UoC/Dissertation/Experiment/OpenSesame/NAP-FC/NAP-FC_GER_AA/GER_AA_ver-2/subject-0.csv","xpyriment","Jazzy James","3.1.6","yes","yes","5950408a6c613b0229e3e810","59504237594d9002288b1720","no","no","0","f","j","space","NA","f","f","f","841","794","2026","NA","1327","483","841","2","legacy","1024","1","44100","-16","experiment","nmal","","","None","None","None","","","0","even","","611110","608781","NA","611906","611106","NA","571080","610870","571081","571080","579300","580632","655173","653668","656016","581812","581407","608781","574666","577896","607077","581181","611109","581411","NA","655173","655173","NA","NA","653664","NAP perception","16","13736","17","yes","1024"
"94.4444444444","yes","94.4444444444","837.888888889","837.888888889","white","no","xpyriment","I have read and understood the information shown above","legacy","legacy","0","uniform","1","0","0","undefined","undefined","1","j","1","0","NA","0","0","0","0","0","0","0","0","0","27","27","27","0","0","0","0","0","1","0","0","0","1","27","27","27","27","27","Wed Jun 28 13:16:46 2017","Forced-choice identification task with a practice and an experimental phase","yes","NAP-FC_GER_AA_ver-2.osexp","/Users/aviadalbert/Documents/Academisch/UoC/Dissertation/Experiment/OpenSesame/NAP-FC/NAP-FC_GER_AA/GER_AA_ver-2","yes","no","sans","no","20","no","black","no","Next","yes","768","legacy","17","9","0","/Users/aviadalbert/Documents/Academisch/UoC/Dissertation/Experiment/OpenSesame/NAP-FC/NAP-FC_GER_AA/GER_AA_ver-2/subject-0.csv","xpyriment","Jazzy James","3.1.6","yes","yes","5950408a6c613b0229e3e810","59504237594d9002288b1720","no","no","0","j","j","space","NA","f","f","j","1346","794","2026","NA","1327","483","1346","2","legacy","1024","1","44100","-16","experiment","evlal","","","None","None","None","","","0","even","","611110","608781","NA","611906","611106","NA","571080","610870","571081","571080","579300","580632","657808","656301","659156","581812","581407","608781","574666","577896","607077","581181","611109","581411","NA","657808","657808","NA","NA","656297","NAP perception","17","15082","18","yes","1024"
"94.7368421053","yes","94.7368421053","832.578947368","832.578947368","white","no","xpyriment","I have read and understood the information shown above","legacy","legacy","0","uniform","1","0","0","undefined","undefined","1","f","1","0","NA","0","0","0","0","0","0","0","0","0","28","28","28","0","0","0","0","0","1","0","0","0","1","28","28","28","28","28","Wed Jun 28 13:16:46 2017","Forced-choice identification task with a practice and an experimental phase","yes","NAP-FC_GER_AA_ver-2.osexp","/Users/aviadalbert/Documents/Academisch/UoC/Dissertation/Experiment/OpenSesame/NAP-FC/NAP-FC_GER_AA/GER_AA_ver-2","yes","no","sans","no","20","no","black","no","Next","yes","768","legacy","18","9","0","/Users/aviadalbert/Documents/Academisch/UoC/Dissertation/Experiment/OpenSesame/NAP-FC/NAP-FC_GER_AA/GER_AA_ver-2/subject-0.csv","xpyriment","Jazzy James","3.1.6","yes","yes","5950408a6c613b0229e3e810","59504237594d9002288b1720","no","no","0","f","j","space","NA","f","f","f","737","794","2026","NA","1327","483","737","2","legacy","1024","1","44100","-16","experiment","mnal","","","None","None","None","","","0","even","","611110","608781","NA","611906","611106","NA","571080","610870","571081","571080","579300","580632","660949","659441","661688","581812","581407","608781","574666","577896","607077","581181","611109","581411","NA","660948","660948","NA","NA","659437","NAP perception","18","15819","19","yes","1024"
"95","yes","95","829.55","829.55","white","no","xpyriment","I have read and understood the information shown above","legacy","legacy","0","uniform","1","0","0","undefined","undefined","1","j","1","0","NA","0","0","0","0","0","0","0","0","0","29","29","29","0","0","0","0","0","1","0","0","0","1","29","29","29","29","29","Wed Jun 28 13:16:46 2017","Forced-choice identification task with a practice and an experimental phase","yes","NAP-FC_GER_AA_ver-2.osexp","/Users/aviadalbert/Documents/Academisch/UoC/Dissertation/Experiment/OpenSesame/NAP-FC/NAP-FC_GER_AA/GER_AA_ver-2","yes","no","sans","no","20","no","black","no","Next","yes","768","legacy","19","9","0","/Users/aviadalbert/Documents/Academisch/UoC/Dissertation/Experiment/OpenSesame/NAP-FC/NAP-FC_GER_AA/GER_AA_ver-2/subject-0.csv","xpyriment","Jazzy James","3.1.6","yes","yes","5950408a6c613b0229e3e810","59504237594d9002288b1720","no","no","0","j","j","space","NA","f","f","j","772","794","2026","NA","1327","483","772","2","legacy","1024","1","44100","-16","experiment","ʃemal","","","None","None","None","","","0","even","","611110","608781","NA","611906","611106","NA","571080","610870","571081","571080","579300","580632","663474","661967","664248","581812","581407","608781","574666","577896","607077","581181","611109","581411","NA","663474","663474","NA","NA","661963","NAP perception","19","16591","20","yes","1024"
"95.2380952381","yes","95.2380952381","850.857142857","850.857142857","white","no","xpyriment","I have read and understood the information shown above","legacy","legacy","0","uniform","1","0","0","undefined","undefined","1","j","1","0","NA","0","0","0","0","0","0","0","0","0","30","30","30","0","0","0","0","0","1","0","0","0","1","30","30","30","30","30","Wed Jun 28 13:16:46 2017","Forced-choice identification task with a practice and an experimental phase","yes","NAP-FC_GER_AA_ver-2.osexp","/Users/aviadalbert/Documents/Academisch/UoC/Dissertation/Experiment/OpenSesame/NAP-FC/NAP-FC_GER_AA/GER_AA_ver-2","yes","no","sans","no","20","no","black","no","Next","yes","768","legacy","20","9","0","/Users/aviadalbert/Documents/Academisch/UoC/Dissertation/Experiment/OpenSesame/NAP-FC/NAP-FC_GER_AA/GER_AA_ver-2/subject-0.csv","xpyriment","Jazzy James","3.1.6","yes","yes","5950408a6c613b0229e3e810","59504237594d9002288b1720","no","no","0","j","j","space","NA","f","f","j","1277","794","2026","NA","1327","483","1277","2","legacy","1024","1","44100","-16","experiment","wetal","","","None","None","None","","","0","even","","611110","608781","NA","611906","611106","NA","571080","610870","571081","571080","579300","580632","666043","664539","667321","581812","581407","608781","574666","577896","607077","581181","611109","581411","NA","666043","666043","NA","NA","664536","NAP perception","20","17868","21","yes","1024"
"95.4545454545","yes","95.4545454545","844.636363636","844.636363636","white","no","xpyriment","I have read and understood the information shown above","legacy","legacy","0","uniform","1","0","0","undefined","undefined","1","f","1","0","NA","0","0","0","0","0","0","0","0","0","31","31","31","0","0","0","0","0","1","0","0","0","1","31","31","31","31","31","Wed Jun 28 13:16:46 2017","Forced-choice identification task with a practice and an experimental phase","yes","NAP-FC_GER_AA_ver-2.osexp","/Users/aviadalbert/Documents/Academisch/UoC/Dissertation/Experiment/OpenSesame/NAP-FC/NAP-FC_GER_AA/GER_AA_ver-2","yes","no","sans","no","20","no","black","no","Next","yes","768","legacy","21","9","0","/Users/aviadalbert/Documents/Academisch/UoC/Dissertation/Experiment/OpenSesame/NAP-FC/NAP-FC_GER_AA/GER_AA_ver-2/subject-0.csv","xpyriment","Jazzy James","3.1.6","yes","yes","5950408a6c613b0229e3e810","59504237594d9002288b1720","no","no","0","f","j","space","NA","f","f","f","714","794","2026","NA","1327","483","714","2","legacy","1024","1","44100","-16","experiment","mlal","","","None","None","None","","","0","even","","611110","608781","NA","611906","611106","NA","571080","610870","571081","571080","579300","580632","669109","667603","669825","581812","581407","608781","574666","577896","607077","581181","611109","581411","NA","669109","669109","NA","NA","667599","NAP perception","21","18582","22","yes","1024"
"95.652173913","yes","95.652173913","850.347826087","850.347826087","white","no","xpyriment","I have read and understood the information shown above","legacy","legacy","0","uniform","1","0","0","undefined","undefined","1","f","1","0","NA","0","0","0","0","0","0","0","0","0","32","32","32","0","0","0","0","0","1","0","0","0","1","32","32","32","32","32","Wed Jun 28 13:16:46 2017","Forced-choice identification task with a practice and an experimental phase","yes","NAP-FC_GER_AA_ver-2.osexp","/Users/aviadalbert/Documents/Academisch/UoC/Dissertation/Experiment/OpenSesame/NAP-FC/NAP-FC_GER_AA/GER_AA_ver-2","yes","no","sans","no","20","no","black","no","Next","yes","768","legacy","22","9","0","/Users/aviadalbert/Documents/Academisch/UoC/Dissertation/Experiment/OpenSesame/NAP-FC/NAP-FC_GER_AA/GER_AA_ver-2/subject-0.csv","xpyriment","Jazzy James","3.1.6","yes","yes","5950408a6c613b0229e3e810","59504237594d9002288b1720","no","no","0","f","j","space","NA","f","f","f","976","794","2026","NA","1327","483","976","2","legacy","1024","1","44100","-16","experiment","jmal","","","None","None","None","","","0","even","","611110","608781","NA","611906","611106","NA","571080","610870","571081","571080","579300","580632","671603","670096","672580","581812","581407","608781","574666","577896","607077","581181","611109","581411","NA","671603","671603","NA","NA","670092","NAP perception","22","19558","23","yes","1024"
"95.8333333333","yes","95.8333333333","838.833333333","838.833333333","white","no","xpyriment","I have read and understood the information shown above","legacy","legacy","0","uniform","1","0","0","undefined","undefined","1","j","1","0","NA","0","0","0","0","0","0","0","0","0","33","33","33","0","0","0","0","0","1","0","0","0","1","33","33","33","33","33","Wed Jun 28 13:16:46 2017","Forced-choice identification task with a practice and an experimental phase","yes","NAP-FC_GER_AA_ver-2.osexp","/Users/aviadalbert/Documents/Academisch/UoC/Dissertation/Experiment/OpenSesame/NAP-FC/NAP-FC_GER_AA/GER_AA_ver-2","yes","no","sans","no","20","no","black","no","Next","yes","768","legacy","23","9","0","/Users/aviadalbert/Documents/Academisch/UoC/Dissertation/Experiment/OpenSesame/NAP-FC/NAP-FC_GER_AA/GER_AA_ver-2/subject-0.csv","xpyriment","Jazzy James","3.1.6","yes","yes","5950408a6c613b0229e3e810","59504237594d9002288b1720","no","no","0","j","j","space","NA","f","f","j","574","794","2026","NA","1327","483","574","2","legacy","1024","1","44100","-16","experiment","ʃepal","","","None","None","None","","","0","even","","611110","608781","NA","611906","611106","NA","571080","610870","571081","571080","579300","580632","674376","672869","674952","581812","581407","608781","574666","577896","607077","581181","611109","581411","NA","674375","674375","NA","NA","672865","NAP perception","23","20132","24","yes","1024"
"96","yes","96","829.88","829.88","white","no","xpyriment","I have read and understood the information shown above","legacy","legacy","0","uniform","1","0","0","undefined","undefined","1","j","1","0","NA","0","0","0","0","0","0","0","0","0","34","34","34","0","0","0","0","0","1","0","0","0","1","34","34","34","34","34","Wed Jun 28 13:16:46 2017","Forced-choice identification task with a practice and an experimental phase","yes","NAP-FC_GER_AA_ver-2.osexp","/Users/aviadalbert/Documents/Academisch/UoC/Dissertation/Experiment/OpenSesame/NAP-FC/NAP-FC_GER_AA/GER_AA_ver-2","yes","no","sans","no","20","no","black","no","Next","yes","768","legacy","24","9","0","/Users/aviadalbert/Documents/Academisch/UoC/Dissertation/Experiment/OpenSesame/NAP-FC/NAP-FC_GER_AA/GER_AA_ver-2/subject-0.csv","xpyriment","Jazzy James","3.1.6","yes","yes","5950408a6c613b0229e3e810","59504237594d9002288b1720","no","no","0","j","j","space","NA","f","f","j","615","794","2026","NA","1327","483","615","2","legacy","1024","1","44100","-16","experiment","enpal","","","None","None","None","","","0","even","","611110","608781","NA","611906","611106","NA","571080","610870","571081","571080","579300","580632","676744","675236","677360","581812","581407","608781","574666","577896","607077","581181","611109","581411","NA","676744","676744","NA","NA","675233","NAP perception","24","20747","25","yes","1024"
"96.1538461538","yes","96.1538461538","820.076923077","820.076923077","white","no","xpyriment","I have read and understood the information shown above","legacy","legacy","0","uniform","1","0","0","undefined","undefined","1","j","1","0","NA","0","0","0","0","0","0","0","0","0","35","35","35","0","0","0","0","0","1","0","0","0","1","35","35","35","35","35","Wed Jun 28 13:16:46 2017","Forced-choice identification task with a practice and an experimental phase","yes","NAP-FC_GER_AA_ver-2.osexp","/Users/aviadalbert/Documents/Academisch/UoC/Dissertation/Experiment/OpenSesame/NAP-FC/NAP-FC_GER_AA/GER_AA_ver-2","yes","no","sans","no","20","no","black","no","Next","yes","768","legacy","25","9","0","/Users/aviadalbert/Documents/Academisch/UoC/Dissertation/Experiment/OpenSesame/NAP-FC/NAP-FC_GER_AA/GER_AA_ver-2/subject-0.csv","xpyriment","Jazzy James","3.1.6","yes","yes","5950408a6c613b0229e3e810","59504237594d9002288b1720","no","no","0","j","j","space","NA","f","f","j","575","794","2026","NA","1327","483","575","2","legacy","1024","1","44100","-16","experiment","eʃfal","","","None","None","None","","","0","even","","611110","608781","NA","611906","611106","NA","571080","610870","571081","571080","579300","580632","679146","677641","679722","581812","581407","608781","574666","577896","607077","581181","611109","581411","NA","679146","679146","NA","NA","677638","NAP perception","25","21322","26","yes","1024"
"96.2962962963","yes","96.2962962963","805.592592593","805.592592593","white","no","xpyriment","I have read and understood the information shown above","legacy","legacy","0","uniform","1","0","0","undefined","undefined","1","j","1","0","NA","0","0","0","0","0","0","0","0","0","36","36","36","0","0","0","0","0","1","0","0","0","1","36","36","36","36","36","Wed Jun 28 13:16:46 2017","Forced-choice identification task with a practice and an experimental phase","yes","NAP-FC_GER_AA_ver-2.osexp","/Users/aviadalbert/Documents/Academisch/UoC/Dissertation/Experiment/OpenSesame/NAP-FC/NAP-FC_GER_AA/GER_AA_ver-2","yes","no","sans","no","20","no","black","no","Next","yes","768","legacy","26","9","0","/Users/aviadalbert/Documents/Academisch/UoC/Dissertation/Experiment/OpenSesame/NAP-FC/NAP-FC_GER_AA/GER_AA_ver-2/subject-0.csv","xpyriment","Jazzy James","3.1.6","yes","yes","5950408a6c613b0229e3e810","59504237594d9002288b1720","no","no","0","j","j","space","NA","f","f","j","429","794","2026","NA","1327","483","429","2","legacy","1024","1","44100","-16","experiment","enval","","","None","None","None","","","0","even","","611110","608781","NA","611906","611106","NA","571080","610870","571081","571080","579300","580632","681510","680003","681941","581812","581407","608781","574666","577896","607077","581181","611109","581411","NA","681509","681509","NA","NA","680000","NAP perception","26","21751","27","yes","1024"
"96.4285714286","yes","96.4285714286","802.535714286","802.535714286","white","no","xpyriment","I have read and understood the information shown above","legacy","legacy","0","uniform","1","0","0","undefined","undefined","1","f","1","0","NA","0","0","0","0","0","0","0","0","0","37","37","37","0","0","0","0","0","1","0","0","0","1","37","37","37","37","37","Wed Jun 28 13:16:46 2017","Forced-choice identification task with a practice and an experimental phase","yes","NAP-FC_GER_AA_ver-2.osexp","/Users/aviadalbert/Documents/Academisch/UoC/Dissertation/Experiment/OpenSesame/NAP-FC/NAP-FC_GER_AA/GER_AA_ver-2","yes","no","sans","no","20","no","black","no","Next","yes","768","legacy","27","9","0","/Users/aviadalbert/Documents/Academisch/UoC/Dissertation/Experiment/OpenSesame/NAP-FC/NAP-FC_GER_AA/GER_AA_ver-2/subject-0.csv","xpyriment","Jazzy James","3.1.6","yes","yes","5950408a6c613b0229e3e810","59504237594d9002288b1720","no","no","0","f","j","space","NA","f","f","f","720","794","2026","NA","1327","483","720","2","legacy","1024","1","44100","-16","experiment","jpal","","","None","None","None","","","0","even","","611110","608781","NA","611906","611106","NA","571080","610870","571081","571080","579300","580632","683724","682217","684445","581812","581407","608781","574666","577896","607077","581181","611109","581411","NA","683724","683724","NA","NA","682213","NAP perception","27","22471","28","yes","1024"
"96.5517241379","yes","96.5517241379","792.551724138","792.551724138","white","no","xpyriment","I have read and understood the information shown above","legacy","legacy","0","uniform","1","0","0","undefined","undefined","1","f","1","0","NA","0","0","0","0","0","0","0","0","0","38","38","38","0","0","0","0","0","1","0","0","0","1","38","38","38","38","38","Wed Jun 28 13:16:46 2017","Forced-choice identification task with a practice and an experimental phase","yes","NAP-FC_GER_AA_ver-2.osexp","/Users/aviadalbert/Documents/Academisch/UoC/Dissertation/Experiment/OpenSesame/NAP-FC/NAP-FC_GER_AA/GER_AA_ver-2","yes","no","sans","no","20","no","black","no","Next","yes","768","legacy","28","9","0","/Users/aviadalbert/Documents/Academisch/UoC/Dissertation/Experiment/OpenSesame/NAP-FC/NAP-FC_GER_AA/GER_AA_ver-2/subject-0.csv","xpyriment","Jazzy James","3.1.6","yes","yes","5950408a6c613b0229e3e810","59504237594d9002288b1720","no","no","0","f","j","space","NA","f","f","f","513","794","2026","NA","1327","483","513","2","legacy","1024","1","44100","-16","experiment","jfal","","","None","None","None","","","0","even","","611110","608781","NA","611906","611106","NA","571080","610870","571081","571080","579300","580632","686231","684725","686746","581812","581407","608781","574666","577896","607077","581181","611109","581411","NA","686231","686231","NA","NA","684721","NAP perception","28","22984","29","yes","1024"
"96.6666666667","yes","96.6666666667","796.7","796.7","white","no","xpyriment","I have read and understood the information shown above","legacy","legacy","0","uniform","1","0","0","undefined","undefined","1","j","1","0","NA","0","0","0","0","0","0","0","0","0","39","39","39","0","0","0","0","0","1","0","0","0","1","39","39","39","39","39","Wed Jun 28 13:16:46 2017","Forced-choice identification task with a practice and an experimental phase","yes","NAP-FC_GER_AA_ver-2.osexp","/Users/aviadalbert/Documents/Academisch/UoC/Dissertation/Experiment/OpenSesame/NAP-FC/NAP-FC_GER_AA/GER_AA_ver-2","yes","no","sans","no","20","no","black","no","Next","yes","768","legacy","29","9","0","/Users/aviadalbert/Documents/Academisch/UoC/Dissertation/Experiment/OpenSesame/NAP-FC/NAP-FC_GER_AA/GER_AA_ver-2/subject-0.csv","xpyriment","Jazzy James","3.1.6","yes","yes","5950408a6c613b0229e3e810","59504237594d9002288b1720","no","no","0","j","j","space","NA","f","f","j","917","794","2026","NA","1327","483","917","2","legacy","1024","1","44100","-16","experiment","espal","","","None","None","None","","","0","even","","611110","608781","NA","611906","611106","NA","571080","610870","571081","571080","579300","580632","688540","687032","689458","581812","581407","608781","574666","577896","607077","581181","611109","581411","NA","688540","688540","NA","NA","687028","NAP perception","29","23901","30","yes","1024"
"96.7741935484","yes","96.7741935484","788.741935484","788.741935484","white","no","xpyriment","I have read and understood the information shown above","legacy","legacy","0","uniform","1","0","0","undefined","undefined","1","f","1","0","NA","0","0","0","0","0","0","0","0","0","40","40","40","0","0","0","0","0","1","0","0","0","1","40","40","40","40","40","Wed Jun 28 13:16:46 2017","Forced-choice identification task with a practice and an experimental phase","yes","NAP-FC_GER_AA_ver-2.osexp","/Users/aviadalbert/Documents/Academisch/UoC/Dissertation/Experiment/OpenSesame/NAP-FC/NAP-FC_GER_AA/GER_AA_ver-2","yes","no","sans","no","20","no","black","no","Next","yes","768","legacy","30","9","0","/Users/aviadalbert/Documents/Academisch/UoC/Dissertation/Experiment/OpenSesame/NAP-FC/NAP-FC_GER_AA/GER_AA_ver-2/subject-0.csv","xpyriment","Jazzy James","3.1.6","yes","yes","5950408a6c613b0229e3e810","59504237594d9002288b1720","no","no","0","f","j","space","NA","f","f","f","550","794","2026","NA","1327","483","550","2","legacy","1024","1","44100","-16","experiment","ʃfal","","","None","None","None","","","0","even","","611110","608781","NA","611906","611106","NA","571080","610870","571081","571080","579300","580632","691242","689736","691793","581812","581407","608781","574666","577896","607077","581181","611109","581411","NA","691241","691242","NA","NA","689732","NAP perception","30","24451","31","yes","1024"
"96.875","yes","96.875","782.96875","782.96875","white","no","xpyriment","I have read and understood the information shown above","legacy","legacy","0","uniform","1","0","0","undefined","undefined","1","f","1","0","NA","0","0","0","0","0","0","0","0","0","41","41","41","0","0","0","0","0","1","0","0","0","1","41","41","41","41","41","Wed Jun 28 13:16:46 2017","Forced-choice identification task with a practice and an experimental phase","yes","NAP-FC_GER_AA_ver-2.osexp","/Users/aviadalbert/Documents/Academisch/UoC/Dissertation/Experiment/OpenSesame/NAP-FC/NAP-FC_GER_AA/GER_AA_ver-2","yes","no","sans","no","20","no","black","no","Next","yes","768","legacy","31","9","0","/Users/aviadalbert/Documents/Academisch/UoC/Dissertation/Experiment/OpenSesame/NAP-FC/NAP-FC_GER_AA/GER_AA_ver-2/subject-0.csv","xpyriment","Jazzy James","3.1.6","yes","yes","5950408a6c613b0229e3e810","59504237594d9002288b1720","no","no","0","f","j","space","NA","f","f","f","604","794","2026","NA","1327","483","604","2","legacy","1024","1","44100","-16","experiment","flal","","","None","None","None","","","0","even","","611110","608781","NA","611906","611106","NA","571080","610870","571081","571080","579300","580632","693596","692089","694201","581812","581407","608781","574666","577896","607077","581181","611109","581411","NA","693596","693596","NA","NA","692085","NAP perception","31","25055","32","yes","1024"
"96.9696969697","yes","96.9696969697","787.212121212","787.212121212","white","no","xpyriment","I have read and understood the information shown above","legacy","legacy","0","uniform","1","0","0","undefined","undefined","1","f","1","0","NA","0","0","0","0","0","0","0","0","0","42","42","42","0","0","0","0","0","1","0","0","0","1","42","42","42","42","42","Wed Jun 28 13:16:46 2017","Forced-choice identification task with a practice and an experimental phase","yes","NAP-FC_GER_AA_ver-2.osexp","/Users/aviadalbert/Documents/Academisch/UoC/Dissertation/Experiment/OpenSesame/NAP-FC/NAP-FC_GER_AA/GER_AA_ver-2","yes","no","sans","no","20","no","black","no","Next","yes","768","legacy","32","9","0","/Users/aviadalbert/Documents/Academisch/UoC/Dissertation/Experiment/OpenSesame/NAP-FC/NAP-FC_GER_AA/GER_AA_ver-2/subject-0.csv","xpyriment","Jazzy James","3.1.6","yes","yes","5950408a6c613b0229e3e810","59504237594d9002288b1720","no","no","0","f","j","space","NA","f","f","f","923","794","2026","NA","1327","483","923","2","legacy","1024","1","44100","-16","experiment","lkal","","","None","None","None","","","0","even","","611110","608781","NA","611906","611106","NA","571080","610870","571081","571080","579300","580632","695985","694478","696909","581812","581407","608781","574666","577896","607077","581181","611109","581411","NA","695984","695984","NA","NA","694474","NAP perception","32","25978","33","yes","1024"
"97.0588235294","yes","97.0588235294","788.352941176","788.352941176","white","no","xpyriment","I have read and understood the information shown above","legacy","legacy","0","uniform","1","0","0","undefined","undefined","1","f","1","0","NA","0","0","0","0","0","0","0","0","0","43","43","43","0","0","0","0","0","1","0","0","0","1","43","43","43","43","43","Wed Jun 28 13:16:46 2017","Forced-choice identification task with a practice and an experimental phase","yes","NAP-FC_GER_AA_ver-2.osexp","/Users/aviadalbert/Documents/Academisch/UoC/Dissertation/Experiment/OpenSesame/NAP-FC/NAP-FC_GER_AA/GER_AA_ver-2","yes","no","sans","no","20","no","black","no","Next","yes","768","legacy","33","9","0","/Users/aviadalbert/Documents/Academisch/UoC/Dissertation/Experiment/OpenSesame/NAP-FC/NAP-FC_GER_AA/GER_AA_ver-2/subject-0.csv","xpyriment","Jazzy James","3.1.6","yes","yes","5950408a6c613b0229e3e810","59504237594d9002288b1720","no","no","0","f","j","space","NA","f","f","f","826","794","2026","NA","1327","483","826","2","legacy","1024","1","44100","-16","experiment","msal","","","None","None","None","","","0","even","","611110","608781","NA","611906","611106","NA","571080","610870","571081","571080","579300","580632","698708","697200","699536","581812","581407","608781","574666","577896","607077","581181","611109","581411","NA","698708","698708","NA","NA","697196","NAP perception","33","26804","34","yes","1024"
"97.1428571429","yes","97.1428571429","780.8","780.8","white","no","xpyriment","I have read and understood the information shown above","legacy","legacy","0","uniform","1","0","0","undefined","undefined","1","j","1","0","NA","0","0","0","0","0","0","0","0","0","44","44","44","0","0","0","0","0","1","0","0","0","1","44","44","44","44","44","Wed Jun 28 13:16:46 2017","Forced-choice identification task with a practice and an experimental phase","yes","NAP-FC_GER_AA_ver-2.osexp","/Users/aviadalbert/Documents/Academisch/UoC/Dissertation/Experiment/OpenSesame/NAP-FC/NAP-FC_GER_AA/GER_AA_ver-2","yes","no","sans","no","20","no","black","no","Next","yes","768","legacy","34","9","0","/Users/aviadalbert/Documents/Academisch/UoC/Dissertation/Experiment/OpenSesame/NAP-FC/NAP-FC_GER_AA/GER_AA_ver-2/subject-0.csv","xpyriment","Jazzy James","3.1.6","yes","yes","5950408a6c613b0229e3e810","59504237594d9002288b1720","no","no","0","j","j","space","NA","f","f","j","524","794","2026","NA","1327","483","524","2","legacy","1024","1","44100","-16","experiment","jemal","","","None","None","None","","","0","even","","611110","608781","NA","611906","611106","NA","571080","610870","571081","571080","579300","580632","701318","699813","701844","581812","581407","608781","574666","577896","607077","581181","611109","581411","NA","701318","701318","NA","NA","699809","NAP perception","34","27328","35","yes","1024"
"97.2222222222","yes","97.2222222222","779.944444444","779.944444444","white","no","xpyriment","I have read and understood the information shown above","legacy","legacy","0","uniform","1","0","0","undefined","undefined","1","j","1","0","NA","0","0","0","0","0","0","0","0","0","45","45","45","0","0","0","0","0","1","0","0","0","1","45","45","45","45","45","Wed Jun 28 13:16:46 2017","Forced-choice identification task with a practice and an experimental phase","yes","NAP-FC_GER_AA_ver-2.osexp","/Users/aviadalbert/Documents/Academisch/UoC/Dissertation/Experiment/OpenSesame/NAP-FC/NAP-FC_GER_AA/GER_AA_ver-2","yes","no","sans","no","20","no","black","no","Next","yes","768","legacy","35","9","0","/Users/aviadalbert/Documents/Academisch/UoC/Dissertation/Experiment/OpenSesame/NAP-FC/NAP-FC_GER_AA/GER_AA_ver-2/subject-0.csv","xpyriment","Jazzy James","3.1.6","yes","yes","5950408a6c613b0229e3e810","59504237594d9002288b1720","no","no","0","j","j","space","NA","f","f","j","750","794","2026","NA","1327","483","750","2","legacy","1024","1","44100","-16","experiment","venal","","","None","None","None","","","0","even","","611110","608781","NA","611906","611106","NA","571080","610870","571081","571080","579300","580632","703647","702139","704399","581812","581407","608781","574666","577896","607077","581181","611109","581411","NA","703647","703647","NA","NA","702135","NAP perception","35","28078","36","yes","1024"
"97.2972972973","yes","97.2972972973","786.567567568","786.567567568","white","no","xpyriment","I have read and understood the information shown above","legacy","legacy","0","uniform","1","0","0","undefined","undefined","1","f","1","0","NA","0","0","0","0","0","0","0","0","0","46","46","46","0","0","0","0","0","1","0","0","0","1","46","46","46","46","46","Wed Jun 28 13:16:46 2017","Forced-choice identification task with a practice and an experimental phase","yes","NAP-FC_GER_AA_ver-2.osexp","/Users/aviadalbert/Documents/Academisch/UoC/Dissertation/Experiment/OpenSesame/NAP-FC/NAP-FC_GER_AA/GER_AA_ver-2","yes","no","sans","no","20","no","black","no","Next","yes","768","legacy","36","9","0","/Users/aviadalbert/Documents/Academisch/UoC/Dissertation/Experiment/OpenSesame/NAP-FC/NAP-FC_GER_AA/GER_AA_ver-2/subject-0.csv","xpyriment","Jazzy James","3.1.6","yes","yes","5950408a6c613b0229e3e810","59504237594d9002288b1720","no","no","0","f","j","space","NA","f","f","f","1025","794","2026","NA","1327","483","1025","2","legacy","1024","1","44100","-16","experiment","lval","","","None","None","None","","","0","even","","611110","608781","NA","611906","611106","NA","571080","610870","571081","571080","579300","580632","706174","704669","707201","581812","581407","608781","574666","577896","607077","581181","611109","581411","NA","706174","706174","NA","NA","704665","NAP perception","36","29103","37","yes","1024"
"97.3684210526","yes","97.3684210526","785.421052632","785.421052632","white","no","xpyriment","I have read and understood the information shown above","legacy","legacy","0","uniform","1","0","0","undefined","undefined","1","j","1","0","NA","0","0","0","0","0","0","0","0","0","47","47","47","0","0","0","0","0","1","0","0","0","1","47","47","47","47","47","Wed Jun 28 13:16:46 2017","Forced-choice identification task with a practice and an experimental phase","yes","NAP-FC_GER_AA_ver-2.osexp","/Users/aviadalbert/Documents/Academisch/UoC/Dissertation/Experiment/OpenSesame/NAP-FC/NAP-FC_GER_AA/GER_AA_ver-2","yes","no","sans","no","20","no","black","no","Next","yes","768","legacy","37","9","0","/Users/aviadalbert/Documents/Academisch/UoC/Dissertation/Experiment/OpenSesame/NAP-FC/NAP-FC_GER_AA/GER_AA_ver-2/subject-0.csv","xpyriment","Jazzy James","3.1.6","yes","yes","5950408a6c613b0229e3e810","59504237594d9002288b1720","no","no","0","j","j","space","NA","f","f","j","743","794","2026","NA","1327","483","743","2","legacy","1024","1","44100","-16","experiment","efsal","","","None","None","None","","","0","even","","611110","608781","NA","611906","611106","NA","571080","610870","571081","571080","579300","580632","708997","707491","709742","581812","581407","608781","574666","577896","607077","581181","611109","581411","NA","708997","708997","NA","NA","707487","NAP perception","37","29846","38","yes","1024"
"97.4358974359","yes","97.4358974359","792.641025641","792.641025641","white","no","xpyriment","I have read and understood the information shown above","legacy","legacy","0","uniform","1","0","0","undefined","undefined","1","f","1","0","NA","0","0","0","0","0","0","0","0","0","48","48","48","0","0","0","0","0","1","0","0","0","1","48","48","48","48","48","Wed Jun 28 13:16:46 2017","Forced-choice identification task with a practice and an experimental phase","yes","NAP-FC_GER_AA_ver-2.osexp","/Users/aviadalbert/Documents/Academisch/UoC/Dissertation/Experiment/OpenSesame/NAP-FC/NAP-FC_GER_AA/GER_AA_ver-2","yes","no","sans","no","20","no","black","no","Next","yes","768","legacy","38","9","0","/Users/aviadalbert/Documents/Academisch/UoC/Dissertation/Experiment/OpenSesame/NAP-FC/NAP-FC_GER_AA/GER_AA_ver-2/subject-0.csv","xpyriment","Jazzy James","3.1.6","yes","yes","5950408a6c613b0229e3e810","59504237594d9002288b1720","no","no","0","f","j","space","NA","f","f","f","1067","794","2026","NA","1327","483","1067","2","legacy","1024","1","44100","-16","experiment","wzal","","","None","None","None","","","0","even","","611110","608781","NA","611906","611106","NA","571080","610870","571081","571080","579300","580632","711529","710022","712598","581812","581407","608781","574666","577896","607077","581181","611109","581411","NA","711528","711528","NA","NA","710018","NAP perception","38","30913","39","yes","1024"
"97.5","yes","97.5","793.65","793.65","white","no","xpyriment","I have read and understood the information shown above","legacy","legacy","0","uniform","1","0","0","undefined","undefined","1","j","1","0","NA","0","0","0","0","0","0","0","0","0","49","49","49","0","0","0","0","0","1","0","0","0","1","49","49","49","49","49","Wed Jun 28 13:16:46 2017","Forced-choice identification task with a practice and an experimental phase","yes","NAP-FC_GER_AA_ver-2.osexp","/Users/aviadalbert/Documents/Academisch/UoC/Dissertation/Experiment/OpenSesame/NAP-FC/NAP-FC_GER_AA/GER_AA_ver-2","yes","no","sans","no","20","no","black","no","Next","yes","768","legacy","39","9","0","/Users/aviadalbert/Documents/Academisch/UoC/Dissertation/Experiment/OpenSesame/NAP-FC/NAP-FC_GER_AA/GER_AA_ver-2/subject-0.csv","xpyriment","Jazzy James","3.1.6","yes","yes","5950408a6c613b0229e3e810","59504237594d9002288b1720","no","no","0","j","j","space","NA","f","f","j","833","794","2026","NA","1327","483","833","2","legacy","1024","1","44100","-16","experiment","jefal","","","None","None","None","","","0","even","","611110","608781","NA","611906","611106","NA","571080","610870","571081","571080","579300","580632","714378","712872","715213","581812","581407","608781","574666","577896","607077","581181","611109","581411","NA","714378","714378","NA","NA","712868","NAP perception","39","31746","40","yes","1024"
"97.5609756098","yes","97.5609756098","791.268292683","791.268292683","white","no","xpyriment","I have read and understood the information shown above","legacy","legacy","0","uniform","1","0","0","undefined","undefined","1","f","1","0","NA","0","0","0","0","0","0","0","0","0","50","50","50","0","0","0","0","0","1","0","0","0","1","50","50","50","50","50","Wed Jun 28 13:16:46 2017","Forced-choice identification task with a practice and an experimental phase","yes","NAP-FC_GER_AA_ver-2.osexp","/Users/aviadalbert/Documents/Academisch/UoC/Dissertation/Experiment/OpenSesame/NAP-FC/NAP-FC_GER_AA/GER_AA_ver-2","yes","no","sans","no","20","no","black","no","Next","yes","768","legacy","40","9","0","/Users/aviadalbert/Documents/Academisch/UoC/Dissertation/Experiment/OpenSesame/NAP-FC/NAP-FC_GER_AA/GER_AA_ver-2/subject-0.csv","xpyriment","Jazzy James","3.1.6","yes","yes","5950408a6c613b0229e3e810","59504237594d9002288b1720","no","no","0","f","j","space","NA","f","f","f","696","794","2026","NA","1327","483","696","2","legacy","1024","1","44100","-16","experiment","ʃmal","","","None","None","None","","","0","even","","611110","608781","NA","611906","611106","NA","571080","610870","571081","571080","579300","580632","717007","715501","717705","581812","581407","608781","574666","577896","607077","581181","611109","581411","NA","717007","717007","NA","NA","715497","NAP perception","40","32442","41","yes","1024"
"97.619047619","yes","97.619047619","789.571428571","789.571428571","white","no","xpyriment","I have read and understood the information shown above","legacy","legacy","0","uniform","1","0","0","undefined","undefined","1","f","1","0","NA","0","0","0","0","0","0","0","0","0","51","51","51","0","0","0","0","0","1","0","0","0","1","51","51","51","51","51","Wed Jun 28 13:16:46 2017","Forced-choice identification task with a practice and an experimental phase","yes","NAP-FC_GER_AA_ver-2.osexp","/Users/aviadalbert/Documents/Academisch/UoC/Dissertation/Experiment/OpenSesame/NAP-FC/NAP-FC_GER_AA/GER_AA_ver-2","yes","no","sans","no","20","no","black","no","Next","yes","768","legacy","41","9","0","/Users/aviadalbert/Documents/Academisch/UoC/Dissertation/Experiment/OpenSesame/NAP-FC/NAP-FC_GER_AA/GER_AA_ver-2/subject-0.csv","xpyriment","Jazzy James","3.1.6","yes","yes","5950408a6c613b0229e3e810","59504237594d9002288b1720","no","no","0","f","j","space","NA","f","f","f","720","794","2026","NA","1327","483","720","2","legacy","1024","1","44100","-16","experiment","lfal","","","None","None","None","","","0","even","","611110","608781","NA","611906","611106","NA","571080","610870","571081","571080","579300","580632","719495","717989","720218","581812","581407","608781","574666","577896","607077","581181","611109","581411","NA","719495","719495","NA","NA","717985","NAP perception","41","33162","42","yes","1024"
"97.6744186047","yes","97.6744186047","782.465116279","782.465116279","white","no","xpyriment","I have read and understood the information shown above","legacy","legacy","0","uniform","1","0","0","undefined","undefined","1","f","1","0","NA","0","0","0","0","0","0","0","0","0","52","52","52","0","0","0","0","0","1","0","0","0","1","52","52","52","52","52","Wed Jun 28 13:16:46 2017","Forced-choice identification task with a practice and an experimental phase","yes","NAP-FC_GER_AA_ver-2.osexp","/Users/aviadalbert/Documents/Academisch/UoC/Dissertation/Experiment/OpenSesame/NAP-FC/NAP-FC_GER_AA/GER_AA_ver-2","yes","no","sans","no","20","no","black","no","Next","yes","768","legacy","42","9","0","/Users/aviadalbert/Documents/Academisch/UoC/Dissertation/Experiment/OpenSesame/NAP-FC/NAP-FC_GER_AA/GER_AA_ver-2/subject-0.csv","xpyriment","Jazzy James","3.1.6","yes","yes","5950408a6c613b0229e3e810","59504237594d9002288b1720","no","no","0","f","j","space","NA","f","f","f","484","794","2026","NA","1327","483","484","2","legacy","1024","1","44100","-16","experiment","wnal","","","None","None","None","","","0","even","","611110","608781","NA","611906","611106","NA","571080","610870","571081","571080","579300","580632","722000","720495","722486","581812","581407","608781","574666","577896","607077","581181","611109","581411","NA","722000","722000","NA","NA","720491","NAP perception","42","33646","43","yes","1024"
"97.7272727273","yes","97.7272727273","777.204545455","777.204545455","white","no","xpyriment","I have read and understood the information shown above","legacy","legacy","0","uniform","1","0","0","undefined","undefined","1","f","1","0","NA","0","0","0","0","0","0","0","0","0","53","53","53","0","0","0","0","0","1","0","0","0","1","53","53","53","53","53","Wed Jun 28 13:16:46 2017","Forced-choice identification task with a practice and an experimental phase","yes","NAP-FC_GER_AA_ver-2.osexp","/Users/aviadalbert/Documents/Academisch/UoC/Dissertation/Experiment/OpenSesame/NAP-FC/NAP-FC_GER_AA/GER_AA_ver-2","yes","no","sans","no","20","no","black","no","Next","yes","768","legacy","43","9","0","/Users/aviadalbert/Documents/Academisch/UoC/Dissertation/Experiment/OpenSesame/NAP-FC/NAP-FC_GER_AA/GER_AA_ver-2/subject-0.csv","xpyriment","Jazzy James","3.1.6","yes","yes","5950408a6c613b0229e3e810","59504237594d9002288b1720","no","no","0","f","j","space","NA","f","f","f","551","794","2026","NA","1327","483","551","2","legacy","1024","1","44100","-16","experiment","wlal","","","None","None","None","","","0","even","","611110","608781","NA","611906","611106","NA","571080","610870","571081","571080","579300","580632","724275","722769","724828","581812","581407","608781","574666","577896","607077","581181","611109","581411","NA","724275","724275","NA","NA","722765","NAP perception","43","34197","44","yes","1024"
"97.7777777778","yes","97.7777777778","776.488888889","776.488888889","white","no","xpyriment","I have read and understood the information shown above","legacy","legacy","0","uniform","1","0","0","undefined","undefined","1","j","1","0","NA","0","0","0","0","0","0","0","0","0","54","54","54","0","0","0","0","0","1","0","0","0","1","54","54","54","54","54","Wed Jun 28 13:16:46 2017","Forced-choice identification task with a practice and an experimental phase","yes","NAP-FC_GER_AA_ver-2.osexp","/Users/aviadalbert/Documents/Academisch/UoC/Dissertation/Experiment/OpenSesame/NAP-FC/NAP-FC_GER_AA/GER_AA_ver-2","yes","no","sans","no","20","no","black","no","Next","yes","768","legacy","44","9","0","/Users/aviadalbert/Documents/Academisch/UoC/Dissertation/Experiment/OpenSesame/NAP-FC/NAP-FC_GER_AA/GER_AA_ver-2/subject-0.csv","xpyriment","Jazzy James","3.1.6","yes","yes","5950408a6c613b0229e3e810","59504237594d9002288b1720","no","no","0","j","j","space","NA","f","f","j","745","794","2026","NA","1327","483","745","2","legacy","1024","1","44100","-16","experiment","sefal","","","None","None","None","","","0","even","","611110","608781","NA","611906","611106","NA","571080","610870","571081","571080","579300","580632","726624","725116","727370","581812","581407","608781","574666","577896","607077","581181","611109","581411","NA","726623","726623","NA","NA","725112","NAP perception","44","34942","45","yes","1024"
"97.8260869565","yes","97.8260869565","810.869565217","810.869565217","white","no","xpyriment","I have read and understood the information shown above","legacy","legacy","0","uniform","1","0","0","undefined","undefined","1","j","1","0","NA","0","0","0","0","0","0","0","0","0","55","55","55","0","0","0","0","0","1","0","0","0","1","55","55","55","55","55","Wed Jun 28 13:16:46 2017","Forced-choice identification task with a practice and an experimental phase","yes","NAP-FC_GER_AA_ver-2.osexp","/Users/aviadalbert/Documents/Academisch/UoC/Dissertation/Experiment/OpenSesame/NAP-FC/NAP-FC_GER_AA/GER_AA_ver-2","yes","no","sans","no","20","no","black","no","Next","yes","768","legacy","45","9","0","/Users/aviadalbert/Documents/Academisch/UoC/Dissertation/Experiment/OpenSesame/NAP-FC/NAP-FC_GER_AA/GER_AA_ver-2/subject-0.csv","xpyriment","Jazzy James","3.1.6","yes","yes","5950408a6c613b0229e3e810","59504237594d9002288b1720","no","no","0","j","j","space","NA","f","f","j","2358","794","2026","NA","1327","483","2358","2","legacy","1024","1","44100","-16","experiment","wenal","","","None","None","None","","","0","even","","611110","608781","NA","611906","611106","NA","571080","610870","571081","571080","579300","580632","729164","727658","731524","581812","581407","608781","574666","577896","607077","581181","611109","581411","NA","729164","729164","NA","NA","727654","NAP perception","45","37300","46","yes","1024"
"95.7446808511","yes","95.7446808511","805.021276596","805.021276596","white","no","xpyriment","I have read and understood the information shown above","legacy","legacy","0","uniform","0","0","0","undefined","undefined","0","f","1","0","NA","0","0","0","0","0","0","0","0","0","56","56","56","0","0","0","0","0","1","0","0","0","1","56","56","56","56","56","Wed Jun 28 13:16:46 2017","Forced-choice identification task with a practice and an experimental phase","yes","NAP-FC_GER_AA_ver-2.osexp","/Users/aviadalbert/Documents/Academisch/UoC/Dissertation/Experiment/OpenSesame/NAP-FC/NAP-FC_GER_AA/GER_AA_ver-2","yes","no","sans","no","20","no","black","no","Next","yes","768","legacy","46","9","0","/Users/aviadalbert/Documents/Academisch/UoC/Dissertation/Experiment/OpenSesame/NAP-FC/NAP-FC_GER_AA/GER_AA_ver-2/subject-0.csv","xpyriment","Jazzy James","3.1.6","yes","yes","5950408a6c613b0229e3e810","59504237594d9002288b1720","no","no","0","j","j","space","NA","f","f","j","536","794","2026","NA","1327","483","536","2","legacy","1024","1","44100","-16","experiment","wsal","","","None","None","None","","","0","even","","611110","608781","NA","611906","611106","NA","571080","610870","571081","571080","579300","580632","733314","731808","733851","581812","581407","608781","574666","577896","607077","581181","611109","581411","NA","733313","733313","NA","NA","731804","NAP perception","45","37836","47","yes","1024"
"95.8333333333","yes","95.8333333333","809.666666667","809.666666667","white","no","xpyriment","I have read and understood the information shown above","legacy","legacy","0","uniform","1","0","0","undefined","undefined","1","f","1","0","NA","0","0","0","0","0","0","0","0","0","57","57","57","0","0","0","0","0","1","0","0","0","1","57","57","57","57","57","Wed Jun 28 13:16:46 2017","Forced-choice identification task with a practice and an experimental phase","yes","NAP-FC_GER_AA_ver-2.osexp","/Users/aviadalbert/Documents/Academisch/UoC/Dissertation/Experiment/OpenSesame/NAP-FC/NAP-FC_GER_AA/GER_AA_ver-2","yes","no","sans","no","20","no","black","no","Next","yes","768","legacy","47","9","0","/Users/aviadalbert/Documents/Academisch/UoC/Dissertation/Experiment/OpenSesame/NAP-FC/NAP-FC_GER_AA/GER_AA_ver-2/subject-0.csv","xpyriment","Jazzy James","3.1.6","yes","yes","5950408a6c613b0229e3e810","59504237594d9002288b1720","no","no","0","f","j","space","NA","f","f","f","1028","794","2026","NA","1327","483","1028","2","legacy","1024","1","44100","-16","experiment","zval","","","None","None","None","","","0","even","","611110","608781","NA","611906","611106","NA","571080","610870","571081","571080","579300","580632","735646","734137","736676","581812","581407","608781","574666","577896","607077","581181","611109","581411","NA","735646","735646","NA","NA","734133","NAP perception","46","38864","48","yes","1024"
"95.9183673469","yes","95.9183673469","819.755102041","819.755102041","white","no","xpyriment","I have read and understood the information shown above","legacy","legacy","0","uniform","1","0","0","undefined","undefined","1","f","1","0","NA","0","0","0","0","0","0","0","0","0","58","58","58","0","0","0","0","0","1","0","0","0","1","58","58","58","58","58","Wed Jun 28 13:16:46 2017","Forced-choice identification task with a practice and an experimental phase","yes","NAP-FC_GER_AA_ver-2.osexp","/Users/aviadalbert/Documents/Academisch/UoC/Dissertation/Experiment/OpenSesame/NAP-FC/NAP-FC_GER_AA/GER_AA_ver-2","yes","no","sans","no","20","no","black","no","Next","yes","768","legacy","48","9","0","/Users/aviadalbert/Documents/Academisch/UoC/Dissertation/Experiment/OpenSesame/NAP-FC/NAP-FC_GER_AA/GER_AA_ver-2/subject-0.csv","xpyriment","Jazzy James","3.1.6","yes","yes","5950408a6c613b0229e3e810","59504237594d9002288b1720","no","no","0","f","j","space","NA","f","f","f","1304","794","2026","NA","1327","483","1304","2","legacy","1024","1","44100","-16","experiment","nval","","","None","None","None","","","0","even","","611110","608781","NA","611906","611106","NA","571080","610870","571081","571080","579300","580632","738467","736960","739772","581812","581407","608781","574666","577896","607077","581181","611109","581411","NA","738466","738466","NA","NA","736956","NAP perception","47","40168","49","yes","1024"
"96","yes","96","833.38","833.38","white","no","xpyriment","I have read and understood the information shown above","legacy","legacy","0","uniform","1","0","0","undefined","undefined","1","j","1","0","NA","0","0","0","0","0","0","0","0","0","59","59","59","0","0","0","0","0","1","0","0","0","1","59","59","59","59","59","Wed Jun 28 13:16:46 2017","Forced-choice identification task with a practice and an experimental phase","yes","NAP-FC_GER_AA_ver-2.osexp","/Users/aviadalbert/Documents/Academisch/UoC/Dissertation/Experiment/OpenSesame/NAP-FC/NAP-FC_GER_AA/GER_AA_ver-2","yes","no","sans","no","20","no","black","no","Next","yes","768","legacy","49","9","0","/Users/aviadalbert/Documents/Academisch/UoC/Dissertation/Experiment/OpenSesame/NAP-FC/NAP-FC_GER_AA/GER_AA_ver-2/subject-0.csv","xpyriment","Jazzy James","3.1.6","yes","yes","5950408a6c613b0229e3e810","59504237594d9002288b1720","no","no","0","j","j","space","NA","f","f","j","1501","794","2026","NA","1327","483","1501","2","legacy","1024","1","44100","-16","experiment","mezal","","","None","None","None","","","0","even","","611110","608781","NA","611906","611106","NA","571080","610870","571081","571080","579300","580632","741562","740054","743064","581812","581407","608781","574666","577896","607077","581181","611109","581411","NA","741562","741562","NA","NA","740050","NAP perception","48","41669","50","yes","1024"
"96.0784313725","yes","96.0784313725","831.039215686","831.039215686","white","no","xpyriment","I have read and understood the information shown above","legacy","legacy","0","uniform","1","0","0","undefined","undefined","1","f","1","0","NA","0","0","0","0","0","0","0","0","0","60","60","60","0","0","0","0","0","1","0","0","0","1","60","60","60","60","60","Wed Jun 28 13:16:46 2017","Forced-choice identification task with a practice and an experimental phase","yes","NAP-FC_GER_AA_ver-2.osexp","/Users/aviadalbert/Documents/Academisch/UoC/Dissertation/Experiment/OpenSesame/NAP-FC/NAP-FC_GER_AA/GER_AA_ver-2","yes","no","sans","no","20","no","black","no","Next","yes","768","legacy","50","9","0","/Users/aviadalbert/Documents/Academisch/UoC/Dissertation/Experiment/OpenSesame/NAP-FC/NAP-FC_GER_AA/GER_AA_ver-2/subject-0.csv","xpyriment","Jazzy James","3.1.6","yes","yes","5950408a6c613b0229e3e810","59504237594d9002288b1720","no","no","0","f","j","space","NA","f","f","f","714","794","2026","NA","1327","483","714","2","legacy","1024","1","44100","-16","experiment","lmal","","","None","None","None","","","0","even","","611110","608781","NA","611906","611106","NA","571080","610870","571081","571080","579300","580632","744853","743346","745569","581812","581407","608781","574666","577896","607077","581181","611109","581411","NA","744853","744853","NA","NA","743342","NAP perception","49","42383","51","yes","1024"
"96.1538461538","yes","96.1538461538","854.115384615","854.115384615","white","no","xpyriment","I have read and understood the information shown above","legacy","legacy","0","uniform","1","0","0","undefined","undefined","1","f","1","0","NA","0","0","0","0","0","0","0","0","0","61","61","61","0","0","0","0","0","1","0","0","0","1","61","61","61","61","61","Wed Jun 28 13:16:46 2017","Forced-choice identification task with a practice and an experimental phase","yes","NAP-FC_GER_AA_ver-2.osexp","/Users/aviadalbert/Documents/Academisch/UoC/Dissertation/Experiment/OpenSesame/NAP-FC/NAP-FC_GER_AA/GER_AA_ver-2","yes","no","sans","no","20","no","black","no","Next","yes","768","legacy","51","9","0","/Users/aviadalbert/Documents/Academisch/UoC/Dissertation/Experiment/OpenSesame/NAP-FC/NAP-FC_GER_AA/GER_AA_ver-2/subject-0.csv","xpyriment","Jazzy James","3.1.6","yes","yes","5950408a6c613b0229e3e810","59504237594d9002288b1720","no","no","0","f","j","space","NA","f","f","f","2031","794","2026","NA","1327","483","2031","2","legacy","1024","1","44100","-16","experiment","mzal","","","None","None","None","","","0","even","","611110","608781","NA","611906","611106","NA","571080","610870","571081","571080","579300","580632","747355","745850","749388","581812","581407","608781","574666","577896","607077","581181","611109","581411","NA","747355","747355","NA","NA","745846","NAP perception","50","44414","52","yes","1024"
"96.2264150943","yes","96.2264150943","866.660377358","866.660377358","white","no","xpyriment","I have read and understood the information shown above","legacy","legacy","0","uniform","1","0","0","undefined","undefined","1","f","1","0","NA","0","0","0","0","0","0","0","0","0","62","62","62","0","0","0","0","0","1","0","0","0","1","62","62","62","62","62","Wed Jun 28 13:16:46 2017","Forced-choice identification task with a practice and an experimental phase","yes","NAP-FC_GER_AA_ver-2.osexp","/Users/aviadalbert/Documents/Academisch/UoC/Dissertation/Experiment/OpenSesame/NAP-FC/NAP-FC_GER_AA/GER_AA_ver-2","yes","no","sans","no","20","no","black","no","Next","yes","768","legacy","52","9","0","/Users/aviadalbert/Documents/Academisch/UoC/Dissertation/Experiment/OpenSesame/NAP-FC/NAP-FC_GER_AA/GER_AA_ver-2/subject-0.csv","xpyriment","Jazzy James","3.1.6","yes","yes","5950408a6c613b0229e3e810","59504237594d9002288b1720","no","no","0","f","j","space","NA","f","f","f","1519","794","2026","NA","1327","483","1519","2","legacy","1024","1","44100","-16","experiment","npal","","","None","None","None","","","0","even","","611110","608781","NA","611906","611106","NA","571080","610870","571081","571080","579300","580632","751188","749682","752709","581812","581407","608781","574666","577896","607077","581181","611109","581411","NA","751187","751187","NA","NA","749678","NAP perception","51","45933","53","yes","1024"
"96.2962962963","yes","96.2962962963","872.703703704","872.703703704","white","no","xpyriment","I have read and understood the information shown above","legacy","legacy","0","uniform","1","0","0","undefined","undefined","1","f","1","0","NA","0","0","0","0","0","0","0","0","0","63","63","63","0","0","0","0","0","1","0","0","0","1","63","63","63","63","63","Wed Jun 28 13:16:46 2017","Forced-choice identification task with a practice and an experimental phase","yes","NAP-FC_GER_AA_ver-2.osexp","/Users/aviadalbert/Documents/Academisch/UoC/Dissertation/Experiment/OpenSesame/NAP-FC/NAP-FC_GER_AA/GER_AA_ver-2","yes","no","sans","no","20","no","black","no","Next","yes","768","legacy","53","9","0","/Users/aviadalbert/Documents/Academisch/UoC/Dissertation/Experiment/OpenSesame/NAP-FC/NAP-FC_GER_AA/GER_AA_ver-2/subject-0.csv","xpyriment","Jazzy James","3.1.6","yes","yes","5950408a6c613b0229e3e810","59504237594d9002288b1720","no","no","0","f","j","space","NA","f","f","f","1193","794","2026","NA","1327","483","1193","2","legacy","1024","1","44100","-16","experiment","fnal","","","None","None","None","","","0","even","","611110","608781","NA","611906","611106","NA","571080","610870","571081","571080","579300","580632","754496","752989","755691","581812","581407","608781","574666","577896","607077","581181","611109","581411","NA","754495","754496","NA","NA","752985","NAP perception","52","47126","54","yes","1024"
"96.3636363636","yes","96.3636363636","882.781818182","882.781818182","white","no","xpyriment","I have read and understood the information shown above","legacy","legacy","0","uniform","1","0","0","undefined","undefined","1","j","1","0","NA","0","0","0","0","0","0","0","0","0","64","64","64","0","0","0","0","0","1","0","0","0","1","64","64","64","64","64","Wed Jun 28 13:16:46 2017","Forced-choice identification task with a practice and an experimental phase","yes","NAP-FC_GER_AA_ver-2.osexp","/Users/aviadalbert/Documents/Academisch/UoC/Dissertation/Experiment/OpenSesame/NAP-FC/NAP-FC_GER_AA/GER_AA_ver-2","yes","no","sans","no","20","no","black","no","Next","yes","768","legacy","54","9","0","/Users/aviadalbert/Documents/Academisch/UoC/Dissertation/Experiment/OpenSesame/NAP-FC/NAP-FC_GER_AA/GER_AA_ver-2/subject-0.csv","xpyriment","Jazzy James","3.1.6","yes","yes","5950408a6c613b0229e3e810","59504237594d9002288b1720","no","no","0","j","j","space","NA","f","f","j","1427","794","2026","NA","1327","483","1427","2","legacy","1024","1","44100","-16","experiment","metal","","","None","None","None","","","0","even","","611110","608781","NA","611906","611106","NA","571080","610870","571081","571080","579300","580632","757479","755973","758908","581812","581407","608781","574666","577896","607077","581181","611109","581411","NA","757479","757479","NA","NA","755969","NAP perception","53","48553","55","yes","1024"
"96.4285714286","yes","96.4285714286","879.339285714","879.339285714","white","no","xpyriment","I have read and understood the information shown above","legacy","legacy","0","uniform","1","0","0","undefined","undefined","1","j","1","0","NA","0","0","0","0","0","0","0","0","0","65","65","65","0","0","0","0","0","1","0","0","0","1","65","65","65","65","65","Wed Jun 28 13:16:46 2017","Forced-choice identification task with a practice and an experimental phase","yes","NAP-FC_GER_AA_ver-2.osexp","/Users/aviadalbert/Documents/Academisch/UoC/Dissertation/Experiment/OpenSesame/NAP-FC/NAP-FC_GER_AA/GER_AA_ver-2","yes","no","sans","no","20","no","black","no","Next","yes","768","legacy","55","9","0","/Users/aviadalbert/Documents/Academisch/UoC/Dissertation/Experiment/OpenSesame/NAP-FC/NAP-FC_GER_AA/GER_AA_ver-2/subject-0.csv","xpyriment","Jazzy James","3.1.6","yes","yes","5950408a6c613b0229e3e810","59504237594d9002288b1720","no","no","0","j","j","space","NA","f","f","j","690","794","2026","NA","1327","483","690","2","legacy","1024","1","44100","-16","experiment","welal","","","None","None","None","","","0","even","","611110","608781","NA","611906","611106","NA","571080","610870","571081","571080","579300","580632","760698","759191","761390","581812","581407","608781","574666","577896","607077","581181","611109","581411","NA","760697","760697","NA","NA","759187","NAP perception","54","49243","56","yes","1024"
"96.4912280702","yes","96.4912280702","877.50877193","877.50877193","white","no","xpyriment","I have read and understood the information shown above","legacy","legacy","0","uniform","1","0","0","undefined","undefined","1","j","1","0","NA","0","0","0","0","0","0","0","0","0","66","66","66","0","0","0","0","0","1","0","0","0","1","66","66","66","66","66","Wed Jun 28 13:16:46 2017","Forced-choice identification task with a practice and an experimental phase","yes","NAP-FC_GER_AA_ver-2.osexp","/Users/aviadalbert/Documents/Academisch/UoC/Dissertation/Experiment/OpenSesame/NAP-FC/NAP-FC_GER_AA/GER_AA_ver-2","yes","no","sans","no","20","no","black","no","Next","yes","768","legacy","56","9","0","/Users/aviadalbert/Documents/Academisch/UoC/Dissertation/Experiment/OpenSesame/NAP-FC/NAP-FC_GER_AA/GER_AA_ver-2/subject-0.csv","xpyriment","Jazzy James","3.1.6","yes","yes","5950408a6c613b0229e3e810","59504237594d9002288b1720","no","no","0","j","j","space","NA","f","f","j","775","794","2026","NA","1327","483","775","2","legacy","1024","1","44100","-16","experiment","leval","","","None","None","None","","","0","even","","611110","608781","NA","611906","611106","NA","571080","610870","571081","571080","579300","580632","763179","761673","763956","581812","581407","608781","574666","577896","607077","581181","611109","581411","NA","763179","763179","NA","NA","761669","NAP perception","55","50018","57","yes","1024"
"96.5517241379","yes","96.5517241379","875.051724138","875.051724138","white","no","xpyriment","I have read and understood the information shown above","legacy","legacy","0","uniform","1","0","0","undefined","undefined","1","j","1","0","NA","0","0","0","0","0","0","0","0","0","67","67","67","0","0","0","0","0","1","0","0","0","1","67","67","67","67","67","Wed Jun 28 13:16:46 2017","Forced-choice identification task with a practice and an experimental phase","yes","NAP-FC_GER_AA_ver-2.osexp","/Users/aviadalbert/Documents/Academisch/UoC/Dissertation/Experiment/OpenSesame/NAP-FC/NAP-FC_GER_AA/GER_AA_ver-2","yes","no","sans","no","20","no","black","no","Next","yes","768","legacy","57","9","0","/Users/aviadalbert/Documents/Academisch/UoC/Dissertation/Experiment/OpenSesame/NAP-FC/NAP-FC_GER_AA/GER_AA_ver-2/subject-0.csv","xpyriment","Jazzy James","3.1.6","yes","yes","5950408a6c613b0229e3e810","59504237594d9002288b1720","no","no","0","j","j","space","NA","f","f","j","735","794","2026","NA","1327","483","735","2","legacy","1024","1","44100","-16","experiment","ezmal","","","None","None","None","","","0","even","","611110","608781","NA","611906","611106","NA","571080","610870","571081","571080","579300","580632","765754","764246","766491","581812","581407","608781","574666","577896","607077","581181","611109","581411","NA","765754","765754","NA","NA","764242","NAP perception","56","50753","58","yes","1024"
"96.6101694915","yes","96.6101694915","871.677966102","871.677966102","white","no","xpyriment","I have read and understood the information shown above","legacy","legacy","0","uniform","1","0","0","undefined","undefined","1","j","1","0","NA","0","0","0","0","0","0","0","0","0","68","68","68","0","0","0","0","0","1","0","0","0","1","68","68","68","68","68","Wed Jun 28 13:16:46 2017","Forced-choice identification task with a practice and an experimental phase","yes","NAP-FC_GER_AA_ver-2.osexp","/Users/aviadalbert/Documents/Academisch/UoC/Dissertation/Experiment/OpenSesame/NAP-FC/NAP-FC_GER_AA/GER_AA_ver-2","yes","no","sans","no","20","no","black","no","Next","yes","768","legacy","58","9","0","/Users/aviadalbert/Documents/Academisch/UoC/Dissertation/Experiment/OpenSesame/NAP-FC/NAP-FC_GER_AA/GER_AA_ver-2/subject-0.csv","xpyriment","Jazzy James","3.1.6","yes","yes","5950408a6c613b0229e3e810","59504237594d9002288b1720","no","no","0","j","j","space","NA","f","f","j","676","794","2026","NA","1327","483","676","2","legacy","1024","1","44100","-16","experiment","elpal","","","None","None","None","","","0","even","","611110","608781","NA","611906","611106","NA","571080","610870","571081","571080","579300","580632","768279","766772","768957","581812","581407","608781","574666","577896","607077","581181","611109","581411","NA","768278","768278","NA","NA","766768","NAP perception","57","51429","59","yes","1024"
